time,seconds_elapsed,z,y,x
1772649770015055600,0.2830556640625,0.09747160971164703,-0.13781847059726715,-0.03675159066915512
1772649770025060400,0.293060302734375,0.10120003670454025,-0.14314478635787964,-0.047936856746673584
1772649770035065000,0.303065185546875,0.10226529836654663,-0.14847110211849213,-0.058589495718479156
1772649770045070000,0.313070068359375,0.10652635246515274,-0.1495363712310791,-0.06924212723970413
1772649770055074800,0.32307470703125,0.11504846066236496,-0.1399489939212799,-0.07283739000558853
1772649770065079800,0.333079833984375,0.1284974068403244,-0.1213068813085556,-0.07496792078018188
1772649770075084500,0.34308447265625,0.14820478856563568,-0.09254477173089981,-0.0739026591181755
1772649770085089500,0.353089599609375,0.16418373584747314,-0.06697844713926315,-0.07123950123786926
1772649770095094300,0.36309423828125,0.18335849046707153,-0.04673843830823898,-0.07123950123786926
1772649770105099300,0.373099365234375,0.1988048106431961,-0.02756369300186634,-0.06325002014636993
1772649770115104000,0.38310400390625,0.20679427683353424,-0.004127896390855312,-0.05259738489985466
1772649770125108700,0.393108642578125,0.22170796990394592,0.019307902082800865,-0.04301001504063606
1772649770135113700,0.40311376953125,0.231827974319458,0.04167843610048294,-0.02809632569551468
1772649770145118500,0.413118408203125,0.24154850840568542,0.060320548713207245,-0.021172111853957176
1772649770155123500,0.42312353515625,0.26391902565956116,0.0762995034456253,-0.014247899875044823
1772649770165128200,0.433128173828125,0.28362640738487244,0.09121318906545639,-0.006791055202484131
1772649770175133200,0.44313330078125,0.3145190477371216,0.08482161164283752,0.003328948514536023
1772649770185138000,0.453137939453125,0.33902010321617126,0.06884265691041946,0.009720529429614544
1772649770195142700,0.463142578125,0.35446643829345703,0.05020054429769516,0.024634219706058502
1772649770205147600,0.473147705078125,0.3885548710823059,0.008655265904963017,0.05872265249490738
1772649770215152600,0.483152587890625,0.39175066351890564,-0.05739107355475426,0.09707213938236237
1772649770225157400,0.493157470703125,0.3801659345626831,-0.10852371901273727,0.10346371680498123
1772649770235162000,0.503162109375,0.39840856194496155,-0.16604794561862946,0.08362318575382233
1772649770245167000,0.5131669921875,0.3824295997619629,-0.22889849543571472,0.07510107755661011
1772649770255171800,0.523171875,0.34088432788848877,-0.28375956416130066,0.054861072450876236
1772649770265176800,0.5331767578125,0.28122955560684204,-0.3567301332950592,0.018642112612724304
1772649770275181600,0.543181640625,0.21571587026119232,-0.45313647389411926,-0.013848425820469856
1772649770285186600,0.5531865234375,0.13102741539478302,-0.5697828531265259,-0.021837901324033737
1772649770295191300,0.56319140625,0.01651158556342125,-0.7103976011276245,0.009054739959537983
1772649770305196300,0.5731962890625,-0.08362318575382233,-0.8376966118812561,0.0846884474158287
1772649770315201000,0.583200927734375,-0.2029327005147934,-0.8813723921775818,0.1603221595287323
1772649770325205800,0.593205810546875,-0.3499390780925751,-0.808401882648468,0.20559586584568024
1772649770335210800,0.603210693359375,-0.4335622489452362,-0.7024081349372864,0.21891164779663086
1772649770345215500,0.613215576171875,-0.449008584022522,-0.6044039130210876,0.24341271817684174
1772649770355220500,0.623220458984375,-0.4708464741706848,-0.6262418031692505,0.32703590393066406
1772649770365225200,0.63322509765625,-0.48842331767082214,-0.7093323469161987,0.48416227102279663
1772649770375230200,0.643230224609375,-0.48256438970565796,-0.6049365401268005,0.5768402218818665
1772649770385235000,0.65323486328125,-0.404800146818161,-0.3748396039009094,0.5917539000511169
1772649770395240000,0.663239990234375,-0.3536674976348877,-0.1399489939212799,0.6343644261360168
1772649770405244700,0.67324462890625,-0.3808317184448242,0.08322371542453766,0.7664570808410645
1772649770415249400,0.68324951171875,-0.4287685751914978,0.30160272121429443,0.9491497874259949
1772649770425254400,0.69325439453125,-0.339819073677063,0.5775060057640076,1.0199898481369019
1772649770435259100,0.703259033203125,-0.09693898260593414,0.601474404335022,0.9081371426582336
1772649770445264100,0.71326416015625,0.05006738752126694,0.5103943943977356,0.713193953037262
1772649770455268900,0.723268798828125,0.059654757380485535,0.3926827609539032,0.5390233397483826
1772649770465273900,0.73327392578125,0.009587371721863747,0.2834932506084442,0.37390750646591187
1772649770475278600,0.743278564453125,-0.03408843278884888,0.14341109991073608,0.1315600425004959
1772649770485283600,0.75328369140625,-0.054861072450876236,-0.05206475406885147,-0.12144003808498383
1772649770495288300,0.763288330078125,-0.04207791015505791,-0.2544648349285126,-0.24447797238826752
1772649770505293300,0.773293212890625,-0.025566324591636658,-0.3045322000980377,-0.2593916654586792
1772649770515298000,0.783298095703125,-0.00852210819721222,-0.1442100554704666,-0.1885516494512558
1772649770525302800,0.793302734375,-0.005858949385583401,0.03368895873427391,-0.043143171817064285
1772649770535307800,0.803307861328125,-0.043675802648067474,0.09334371984004974,0.10120003670454025
1772649770545312500,0.8133125,-0.08628634363412857,0.07789739221334457,0.11717899143695831
1772649770555317500,0.8233173828125,-0.12090741097927094,0.04966791346669197,0.003195790573954582
1772649770565322000,0.833322021484375,-0.12090741097927094,0.0342215895652771,-0.16724637150764465
1772649770575326700,0.84332666015625,-0.07776423543691635,0.0762995034456253,-0.3350253701210022
1772649770585331200,0.853331298828125,-0.02077263966202736,0.16418373584747314,-0.4580633044242859
1772649770595336000,0.8633359375,0.04207791015505791,0.2877542972564697,-0.5241096615791321
1772649770605340400,0.87334033203125,0.09747160971164703,0.4006722569465637,-0.5289033651351929
1772649770615345200,0.88334521484375,0.12463583052158356,0.49281755089759827,-0.5107938647270203
1772649770625349600,0.893349609375,0.12836425006389618,0.5210469961166382,-0.4799012243747711
1772649770635354400,0.903354248046875,0.08894950151443481,0.6068007349967957,-0.4436822533607483
1772649770645358800,0.91335888671875,-0.022370534017682076,0.8044071197509766,-0.45912858843803406
1772649770655363600,0.923363525390625,-0.1278316229581833,0.8480829000473022,-0.47404226660728455
1772649770665368000,0.9333681640625,-0.23489060997962952,0.7708513140678406,-0.4862928092479706
1772649770675372800,0.943372802734375,-0.33609065413475037,0.6552702188491821,-0.45007383823394775
1772649770685377300,0.953377197265625,-0.37976643443107605,0.46139225363731384,-0.373374879360199
1772649770695382000,0.963382080078125,-0.3760380148887634,0.2520679831504822,-0.3392864465713501
1772649770705386500,0.973386474609375,-0.3440801203250885,0.307461678981781,-0.2844253480434418
1772649770715391200,0.98339111328125,-0.31798115372657776,0.4635227918624878,-0.22477060556411743
1772649770725395700,0.993395751953125,-0.3312969505786896,0.5247754454612732,-0.15925689041614532
1772649770735400400,1.003400390625,-0.27590325474739075,0.5327649116516113,-0.06657896935939789
1772649770745405000,1.013405029296875,-0.18695375323295593,0.677108108997345,-0.004793685860931873
1772649770755409700,1.02340966796875,-0.10546109080314636,0.8965524435043335,-0.023968428373336792
1772649770765414100,1.0334140625,-0.029294747859239578,1.104811429977417,-0.1422126740217209
1772649770775419000,1.0434189453125,0.06391581147909164,1.1905651092529297,-0.3249053657054901
1772649770785423400,1.05342333984375,0.19920428097248077,1.0558092594146729,-0.5390233397483826
1772649770795428000,1.063427978515625,0.32756853103637695,0.6813691854476929,-0.7563371062278748
1772649770805432600,1.0734326171875,0.3952127695083618,0.22064270079135895,-0.906539261341095
1772649770815437300,1.083437255859375,0.3829622268676758,-0.08615318685770035,-0.9560739994049072
1772649770825441800,1.09344189453125,0.3392864465713501,-0.13941636681556702,-0.9113329648971558
1772649770835446500,1.103446533203125,0.3195790648460388,-0.07816371321678162,-0.8239813446998596
1772649770845451000,1.113450927734375,0.34141695499420166,-0.04354264587163925,-0.7147918343544006
1772649770855455700,1.123455810546875,0.41278961300849915,0.08695213496685028,-0.5214464664459229
1772649770865460200,1.133460205078125,0.5518065094947815,0.33302801847457886,-0.24288007616996765
1772649770875465000,1.14346484375,0.6838991641998291,0.4736427962779999,0.043675802648067474
1772649770885469400,1.153469482421875,0.6588655114173889,0.4768385887145996,0.2503369152545929
1772649770895474200,1.16347412109375,0.5379580855369568,0.43209752440452576,0.3765706419944763
1772649770905478700,1.173478759765625,0.38189697265625,0.3463438153266907,0.4330296218395233
1772649770915483400,1.1834833984375,0.24767376482486725,0.23342587053775787,0.43143174052238464
1772649770925487900,1.19348779296875,0.12623372673988342,0.10080055892467499,0.4042675197124481
1772649770935492600,1.20349267578125,0.042610540986061096,0.11464899033308029,0.37923380732536316
1772649770945497000,1.2134970703125,0.03621895983815193,0.3266364336013794,0.3542001247406006
1772649770955501800,1.223501708984375,0.021305270493030548,0.5354281067848206,0.29507800936698914
1772649770965506300,1.23350634765625,-0.042610540986061096,0.7005439400672913,0.2306295484304428
1772649770975511000,1.243510986328125,-0.10918951034545898,1.0403629541397095,0.30839377641677856
1772649770985515500,1.253515625,-0.1555284708738327,1.474457859992981,0.5848296880722046
1772649770995520000,1.26352001953125,-0.19494321942329407,2.041177988052368,1.1297119855880737
1772649771005524700,1.273524658203125,-0.26152220368385315,1.9793927669525146,1.7204005718231201
1772649771015529500,1.283529541015625,-0.030892642214894295,0.019840532913804054,1.594699501991272
1772649771025534000,1.293533935546875,0.20026955008506775,-1.4081451892852783,0.8064044713973999
1772649771035538700,1.30353857421875,0.2034653276205063,-1.126915693283081,-0.240216925740242
1772649771045543200,1.313543212890625,0.11984214931726456,-0.10000161081552505,-0.7233139276504517
1772649771055548000,1.3235478515625,-0.10599371790885925,0.2568616569042206,-0.5278380513191223
1772649771065552000,1.3335517578125,-0.4527370035648346,0.28136274218559265,-0.2647179961204529
1772649771075555600,1.3435556640625,-0.7584676146507263,-0.058456335216760635,-0.2961432635784149
1772649771085559600,1.3535595703125,-0.8740487098693848,-0.15326479077339172,-0.3488737940788269
1772649771095563500,1.3635634765625,-0.805871844291687,-0.06165212765336037,-0.13315793871879578
1772649771105567200,1.373567138671875,-0.6673876047134399,0.10133319348096848,0.1363537311553955
1772649771115571200,1.3835712890625,-0.5038696527481079,0.288286954164505,0.3099916875362396
1772649771125575200,1.3935751953125,-0.35633066296577454,0.5402217507362366,0.2886864244937897
1772649771135579000,1.403578857421875,-0.20080217719078064,0.697880744934082,0.141680046916008
1772649771145582800,1.413582763671875,-0.11504846066236496,0.5210469961166382,-0.06444844603538513
1772649771155586800,1.4235869140625,-0.16671374440193176,0.10719214379787445,-0.3259706497192383
1772649771165590500,1.433590576171875,-0.13582110404968262,0.006524738855659962,-0.5656549334526062
1772649771175594500,1.443594482421875,-0.15765899419784546,-0.037683695554733276,-0.5816338658332825
1772649771185598500,1.453598388671875,-0.1507347822189331,-0.05952160060405731,-0.3952127695083618
1772649771195602400,1.4636025390625,-0.24341271817684174,-0.03448790684342384,-0.19867165386676788
1772649771205606100,1.473606201171875,-0.4527370035648346,-0.0318247489631176,-0.12996214628219604
1772649771215610000,1.483610107421875,-0.675909698009491,-0.06431528180837631,-0.19547586143016815
1772649771225614000,1.493614013671875,-0.7866970896720886,-0.23635534942150116,-0.2780337929725647
1772649771235617800,1.50361767578125,-0.8660592436790466,-0.4515385627746582,-0.31318747997283936
1772649771245621800,1.513621826171875,-0.8948213458061218,-0.6811028718948364,-0.26152220368385315
1772649771255625700,1.523625732421875,-0.8703203201293945,-0.855273425579071,-0.12410320341587067
1772649771265629400,1.53362939453125,-0.705204427242279,-0.8291745185852051,0.055926334112882614
1772649771275633400,1.54363330078125,-0.4713791012763977,-0.7072018384933472,0.1842905879020691
1772649771285637400,1.553637451171875,-0.2721748352050781,-0.5708481073379517,0.24447797238826752
1772649771295641000,1.56364111328125,-0.14274531602859497,-0.475506991147995,0.24288007616996765
1772649771305645000,1.57364501953125,-0.06817686557769775,-0.4036017060279846,0.21518322825431824
1772649771315649000,1.58364892578125,-0.013315794058144093,-0.3279680013656616,0.18109479546546936
1772649771325652700,1.59365283203125,0.023435797542333603,-0.2012016475200653,0.1038631945848465
1772649771335656700,1.60365673828125,0.021837901324033737,-0.08562055230140686,-0.03675159066915512
1772649771345660700,1.61366064453125,-0.006391581147909164,0.012916320003569126,-0.19547586143016815
1772649771355664400,1.623664306640625,-0.06338317692279816,0.043808963149785995,-0.33182957768440247
1772649771365668400,1.63366845703125,-0.16298532485961914,0.02516685053706169,-0.42717066407203674
1772649771375672300,1.64367236328125,-0.260456919670105,-0.02703106217086315,-0.47457489371299744
1772649771385676300,1.65367626953125,-0.30360010266304016,-0.02756369300186634,-0.46338963508605957
1772649771395680000,1.663679931640625,-0.3078611493110657,-0.07230476289987564,-0.43089908361434937
1772649771405684000,1.67368408203125,-0.2785664200782776,-0.2533995509147644,-0.446878045797348
1772649771415688000,1.68368798828125,-0.2210421860218048,-0.3950796127319336,-0.42290961742401123
1772649771425691600,1.693691650390625,-0.11025477200746536,-0.3849596083164215,-0.3259706497192383
1772649771435695600,1.703695556640625,0.06231791526079178,-0.24274691939353943,-0.1789642721414566
1772649771445699600,1.713699462890625,0.09267792850732803,-0.1213068813085556,-0.07297055423259735
1772649771455703300,1.723703369140625,-0.01597895286977291,-0.19907112419605255,0.05273054540157318
1772649771465707300,1.733707275390625,-0.141680046916008,-0.3226417005062103,0.2631200850009918
1772649771475711200,1.743711181640625,-0.23861902952194214,-0.41105857491493225,0.4846948981285095
1772649771485715000,1.75371484375,-0.3163832724094391,-0.47763752937316895,0.633831799030304
1772649771495719000,1.763718994140625,-0.37550538778305054,-0.5133238434791565,0.6817686557769775
1772649771505723000,1.773722900390625,-0.40799593925476074,-0.5032038688659668,0.6396907567977905
1772649771515726600,1.7837265625,-0.4149201512336731,-0.46219122409820557,0.48789069056510925
1772649771525730600,1.79373046875,-0.4138548672199249,-0.259258508682251,0.2844253480434418
1772649771535734500,1.803734619140625,-0.34621065855026245,0.08375634253025055,0.1555284708738327
1772649771545738200,1.81373828125,-0.18482321500778198,0.4997417628765106,0.1560611128807068
1772649771555742200,1.8237421875,0.07350318133831024,1.117594599723816,0.39414751529693604
1772649771565746400,1.833746337890625,0.45433488488197327,2.567950963973999,1.3832446336746216
1772649771575751000,1.8437509765625,0.7590002417564392,2.363952875137329,2.087916612625122
1772649771585755100,1.853755126953125,0.8735160827636719,-1.5716631412506104,1.2650004625320435
1772649771595759400,1.86375927734375,0.46392226219177246,-2.6076319217681885,1.279914140701294
1772649771605763800,1.873763916015625,0.6274402141571045,-0.3375553786754608,1.7933712005615234
1772649771615768000,1.88376806640625,0.8463518619537354,0.42251014709472656,1.8061542510986328
1772649771625772300,1.893772216796875,0.3542001247406006,-0.6225133538246155,1.4370404481887817
1772649771635776800,1.90377685546875,-0.34621065855026245,-1.5801852941513062,0.7568697333335876
1772649771645781000,1.913781005859375,-0.6636591553688049,-1.5839136838912964,0.21571587026119232
1772649771655785200,1.92378515625,-0.6902907490730286,-1.1759177446365356,-0.22530323266983032
1772649771665789700,1.933789794921875,-0.34088432788848877,-0.7652586698532104,-0.5214464664459229
1772649771675794000,1.9437939453125,-0.005326317623257637,-0.36525222659111023,-0.46072646975517273
1772649771685798400,1.95379833984375,0.22264008224010468,-0.07230476289987564,-0.22477060556411743
1772649771695802600,1.963802734375,0.4095938205718994,0.10293108969926834,-0.13901689648628235
1772649771705806800,1.973806884765625,0.545414924621582,0.03475422412157059,-0.22796639800071716
1772649771715811300,1.983811279296875,0.536892831325531,-0.05313001945614815,-0.3771032989025116
1772649771725815600,1.993815673828125,0.3909517228603363,0.08801739662885666,-0.5219791531562805
1772649771735819800,2.00381982421875,0.19973690807819366,0.3548659086227417,-0.6823012828826904
1772649771745824300,2.01382421875,0.035153694450855255,0.5359607338905334,-0.8719182014465332
1772649771755828500,2.023828369140625,-0.08522108197212219,0.6217144131660461,-1.0647308826446533
1772649771765833000,2.0338330078125,-0.20399796962738037,0.6344975829124451,-1.2554130554199219
1772649771775837200,2.043837158203125,-0.3115895688533783,0.5695165395736694,-1.3912341594696045
1772649771785841400,2.05384130859375,-0.3824295997619629,0.5737775564193726,-1.455682635307312
1772649771795846000,2.063845947265625,-0.3904190957546234,0.4400869905948639,-1.400821566581726
1772649771805850000,2.07385009765625,-0.3526022136211395,0.3271690607070923,-1.2554130554199219
1772649771815854300,2.083854248046875,-0.295610636472702,0.156194269657135,-1.0700571537017822
1772649771825858800,2.09385888671875,-0.21305270493030548,0.02996053732931614,-0.8149266242980957
1772649771835863000,2.103863037109375,-0.09693898260593414,0.06351634114980698,-0.5438170433044434
1772649771845867300,2.1138671875,0.05326317623257637,0.10399635136127472,-0.3403517007827759
1772649771855871700,2.123871826171875,0.1842905879020691,0.07416897267103195,-0.26578325033187866
1772649771865876000,2.1338759765625,0.27483800053596497,0.023568956181406975,-0.2258358597755432
1772649771875880400,2.14388037109375,0.3014695644378662,0.003328948514536023,-0.13102741539478302
1772649771885884700,2.153884765625,0.27963167428970337,0.024101587012410164,-0.043675802648067474
1772649771895889000,2.163888916015625,0.24394534528255463,0.15992268919944763,-0.023968428373336792
1772649771905893400,2.173893310546875,0.21305270493030548,0.30053746700286865,-0.07403581589460373
1772649771915897600,2.183897705078125,0.20559586584568024,0.5087965130805969,-0.16618111729621887
1772649771925901800,2.19390185546875,0.19014954566955566,0.7474155426025391,-0.29454535245895386
1772649771935906300,2.20390625,0.13369056582450867,0.8677902817726135,-0.4484759569168091
1772649771945910500,2.21391064453125,0.11877688020467758,0.983371376991272,-0.5597959756851196
1772649771955915000,2.2239150390625,0.14540846645832062,0.8640618920326233,-0.684431791305542
1772649771965919200,2.233919189453125,0.20932428538799286,0.4214448928833008,-0.7749792337417603
1772649771975923500,2.24392333984375,0.2817622125148773,0.043276332318782806,-0.7398255467414856
1772649771985928000,2.253927978515625,0.3632548749446869,-0.04034685716032982,-0.5800359845161438
1772649771995932200,2.26393212890625,0.45912858843803406,0.16258583962917328,-0.3456780016422272
1772649772005936400,2.273936279296875,0.47404226660728455,0.28189536929130554,-0.11504846066236496
1772649772015940900,2.28394091796875,0.3296990692615509,0.1476721614599228,0.1549958437681198
1772649772025945000,2.293945068359375,0.1225053071975708,-0.06431528180837631,0.4767054319381714
1772649772035949600,2.303949462890625,-0.06764423102140427,-0.30293431878089905,0.7744466066360474
1772649772045953800,2.313953857421875,-0.19600848853588104,-0.5399554371833801,0.9614003300666809
1772649772055958000,2.3239580078125,-0.2593916654586792,-0.6677870750427246,0.9715203046798706
1772649772065962200,2.333962158203125,-0.2450106143951416,-0.5735112428665161,0.7866970896720886
1772649772075966700,2.343966796875,-0.1880190074443817,-0.29441219568252563,0.4293012022972107
1772649772085971000,2.353970947265625,-0.11611372232437134,0.028362641111016273,0.00426105409860611
1772649772095975200,2.36397509765625,-0.04420843720436096,0.4358259439468384,-0.2918822169303894
1772649772105979400,2.3739794921875,0.017576847225427628,0.9364997744560242,-0.3355579972267151
1772649772115984000,2.38398388671875,0.07030738890171051,1.4036178588867188,-0.12516845762729645
1772649772125988000,2.393988037109375,0.15286532044410706,1.9346517324447632,0.4420843720436096
1772649772135992300,2.403992431640625,0.32330748438835144,2.8619635105133057,1.8940385580062866
1772649772145996800,2.413996826171875,0.48789069056510925,0.7644597291946411,2.642918825149536
1772649772156001000,2.4240009765625,0.36485275626182556,-1.6456990242004395,1.7683374881744385
1772649772166005200,2.434005126953125,0.10705898702144623,-0.8930903077125549,0.1938779652118683
1772649772176009700,2.444009765625,0.09267792850732803,0.4203796088695526,-0.4846948981285095
1772649772186014000,2.454013916015625,-0.6551370620727539,-0.4430164694786072,-0.09640634804964066
1772649772196018200,2.46401806640625,-1.7683374881744385,-1.434244155883789,0.14753900468349457
1772649772206022400,2.4740224609375,-2.058089017868042,-1.3788504600524902,0.10120003670454025
1772649772216027000,2.48402685546875,-1.6277226209640503,-0.6454165577888489,0.09054739773273468
1772649772226031000,2.494031005859375,-1.262869954109192,-0.27896589040756226,0.11984214931726456
1772649772236035300,2.504035400390625,-0.9182571768760681,-0.17510269582271576,0.207726389169693
1772649772246039800,2.514039794921875,-0.4623243808746338,-0.2922816872596741,0.3494064211845398
1772649772256044000,2.5240439453125,-0.07403581589460373,-0.2736395597457886,0.4016043543815613
1772649772266048300,2.53404833984375,0.06072001904249191,-0.1356879472732544,0.31744852662086487
1772649772276052500,2.544052490234375,-0.01651158556342125,-0.20546270906925201,0.20985691249370575
1772649772286057000,2.554056884765625,-0.2024000734090805,-0.2858901023864746,0.03728422522544861
1772649772296061200,2.564061279296875,-0.36538538336753845,-0.3114564120769501,-0.18695375323295593
1772649772306065400,2.5740654296875,-0.4324969947338104,-0.28003114461898804,-0.3691138029098511
1772649772316070000,2.58406982421875,-0.4996086061000824,-0.2065279632806778,-0.4580633044242859
1772649772326074000,2.59407421875,-0.5741770267486572,-0.012650004588067532,-0.5081307291984558
1772649772336078300,2.604078369140625,-0.6109286546707153,0.10186582803726196,-0.5741770267486572
1772649772346082600,2.61408251953125,-0.6189181208610535,0.08002792298793793,-0.6215812563896179
1772649772356087000,2.624087158203125,-0.5805686116218567,-0.10958898812532425,-0.6098633408546448
1772649772366091300,2.63409130859375,-0.45966121554374695,-0.28961852192878723,-0.47830331325531006
1772649772376095500,2.644095458984375,-0.2577937841415405,-0.3950796127319336,-0.2636527121067047
1772649772386100000,2.654099853515625,-0.01651158556342125,-0.47817015647888184,-0.050600018352270126
1772649772396104200,2.664104248046875,0.21571587026119232,-0.5287702083587646,0.1177116185426712
1772649772406108400,2.6741083984375,0.39787593483924866,-0.5591301918029785,0.21944428980350494
1772649772416113000,2.68411279296875,0.5107938647270203,-0.6107954978942871,0.24873903393745422
1772649772426117000,2.6941171875,0.5811012387275696,-0.5612607002258301,0.2588590383529663
1772649772436121300,2.704121337890625,0.6178528666496277,-0.3705785572528839,0.22956429421901703
1772649772446125600,2.71412548828125,0.6141244173049927,-0.15219952166080475,0.1928126960992813
1772649772456130000,2.724130126953125,0.5949496626853943,-0.11012161523103714,0.07616633921861649
1772649772466134300,2.73413427734375,0.5384907126426697,-0.17616795003414154,-0.1699095368385315
1772649772476138500,2.744138427734375,0.4058654010295868,-0.02330263890326023,-0.3861580193042755
1772649772486142700,2.754142822265625,0.2961432635784149,0.3921501338481903,-0.5139896273612976
1772649772496147200,2.764147216796875,0.23009692132472992,0.6206491589546204,-0.6673876047134399
1772649772506151400,2.7741513671875,0.20026955008506775,0.5114596486091614,-0.7563371062278748
1772649772516155600,2.78415576171875,0.20825901627540588,0.28668904304504395,-0.7158570885658264
1772649772526160100,2.79416015625,0.3307643234729767,0.22650165855884552,-0.5374254584312439
1772649772536164400,2.804164306640625,0.45540016889572144,0.22543638944625854,-0.29454535245895386
1772649772546168600,2.81416845703125,0.4000064432621002,0.11305109411478043,-0.03142527490854263
1772649772556173000,2.824173095703125,0.2961432635784149,-0.0414121188223362,0.23755376040935516
1772649772566177300,2.83417724609375,0.18056216835975647,-0.16285216808319092,0.4900212287902832
1772649772576182000,2.84418212890625,0.066046342253685,-0.2779006361961365,0.6732465624809265
1772649772586186500,2.8541865234375,-0.021837901324033737,-0.34554484486579895,0.7803055047988892
1772649772596191000,2.86419091796875,-0.07030738890171051,-0.4036017060279846,0.8277097344398499
1772649772606195700,2.87419580078125,-0.11504846066236496,-0.4653870165348053,0.814393937587738
1772649772616200200,2.8842001953125,-0.1747032105922699,-0.45313647389411926,0.7233139276504517
1772649772626204700,2.89420458984375,-0.18695375323295593,-0.4078627824783325,0.5502086281776428
1772649772636209200,2.904209228515625,-0.22956429421901703,-0.29441219568252563,0.30892643332481384
1772649772646214000,2.9142138671875,-0.2780337929725647,-0.12397003918886185,0.04580633342266083
1772649772656218400,2.92421826171875,-0.24128219485282898,0.14074794948101044,-0.15233267843723297
1772649772666222800,2.934222900390625,-0.10492845624685287,0.6025396585464478,-0.2679137885570526
1772649772676227300,2.944227294921875,0.018642112612724304,1.1431609392166138,-0.3020022213459015
1772649772686232000,2.954232177734375,0.017576847225427628,2.3426475524902344,0.4016043543815613
1772649772696236500,2.964236572265625,-0.12037477642297745,2.960500478744507,1.9419753551483154
1772649772706241000,2.974240966796875,0.10492845624685287,-0.59002286195755,1.7694027423858643
1772649772716245500,2.98424560546875,0.7020086646080017,-2.5879244804382324,0.5736443996429443
1772649772726250200,2.994250244140625,1.0423603057861328,-0.48189857602119446,-0.15872426331043243
1772649772736254700,3.004254638671875,0.8708529472351074,0.0672447606921196,0.4426169991493225
1772649772746259200,3.01425927734375,0.11611372232437134,-0.42650488018989563,1.4093436002731323
1772649772756264000,3.024263916015625,-0.9832382202148438,-0.3482080101966858,1.2021498680114746
1772649772766268400,3.034268310546875,-1.2857730388641357,-0.1303616166114807,0.23648850619792938
1772649772776273000,3.04427294921875,-0.8660592436790466,-0.028628956526517868,-0.36432012915611267
1772649772786277400,3.05427734375,-0.554469645023346,0.13009530305862427,-0.3680485486984253
1772649772796282000,3.0642822265625,-0.27483800053596497,0.38575854897499084,-0.15712636709213257
1772649772806286600,3.07428662109375,-0.012783162295818329,0.5865607261657715,0.029827378690242767
1772649772816291000,3.084291015625,0.12197267264127731,0.5668533444404602,0.015446321107447147
1772649772826295600,3.094295654296875,0.1693768948316574,0.35167011618614197,-0.1134505644440651
1772649772836300300,3.10430029296875,0.09960214048624039,0.13169319927692413,-0.2119874358177185
1772649772846304800,3.1143046875,-0.0378168560564518,0.08215844631195068,-0.23382534086704254
1772649772856309200,3.124309326171875,-0.09267792850732803,0.17696690559387207,-0.20026955008506775
1772649772866313700,3.134313720703125,-0.2173137664794922,0.36711645126342773,-0.06551370769739151
1772649772876318500,3.144318359375,-0.5235770344734192,0.26165536046028137,0.07297055423259735
1772649772886323000,3.154322998046875,-0.8681897521018982,-0.0009321055840700865,0.06870950013399124
1772649772896327400,3.164327392578125,-1.10308039188385,-0.2438121885061264,-0.08841687440872192
1772649772906332000,3.174331787109375,-1.1563435792922974,-0.34128379821777344,-0.36165696382522583
1772649772916336600,3.184336669921875,-1.079111933708191,-0.3055974841117859,-0.6258423328399658
1772649772926341000,3.194341064453125,-0.9315729737281799,-0.19960375130176544,-0.7829686999320984
1772649772936345600,3.204345703125,-0.7595328688621521,-0.08934897929430008,-0.7968171238899231
1772649772946350300,3.214350341796875,-0.5645896792411804,-0.006258423440158367,-0.6801707744598389
1772649772956354800,3.224354736328125,-0.3499390780925751,-0.022237375378608704,-0.515587568283081
1772649772966359300,3.234359375,-0.13848425447940826,-0.10852371901273727,-0.35526537895202637
1772649772976363800,3.24436376953125,0.03249053657054901,-0.21238692104816437,-0.2071937620639801
1772649772986368500,3.254368408203125,0.1549958437681198,-0.23688797652721405,-0.060187388211488724
1772649772996373000,3.264373046875,0.22264008224010468,-0.2017342746257782,0.043675802648067474
1772649773006377500,3.27437744140625,0.27483800053596497,-0.15646058320999146,-0.007456844672560692
1772649773016382000,3.2843818359375,0.32224223017692566,-0.05952160060405731,-0.2263685017824173
1772649773026386700,3.29438671875,0.35153695940971375,0.07044055312871933,-0.5427517890930176
1772649773036391200,3.30439111328125,0.3627222180366516,0.18868480622768402,-0.872983455657959
1772649773046395600,3.314395751953125,0.34674328565597534,0.2834932506084442,-1.1355708837509155
1772649773056400100,3.324400146484375,0.29987168312072754,0.4198469817638397,-1.2868382930755615
1772649773066405000,3.334405029296875,0.2450106143951416,0.6781733632087708,-1.2974909543991089
1772649773076409900,3.344409912109375,0.21571587026119232,0.8422240018844604,-1.2399667501449585
1772649773086414800,3.354414794921875,0.20399796962738037,0.7404913306236267,-1.204813003540039
1772649773096419800,3.364419921875,0.16777899861335754,0.5354281067848206,-1.1371687650680542
1772649773106424800,3.3744248046875,0.06231791526079178,0.3495396077632904,-0.9454213976860046
1772649773116429600,3.3844296875,0.04580633342266083,0.22596903145313263,-0.6327665448188782
1772649773126434600,3.3944345703125,0.20026955008506775,-0.01584579423069954,-0.27057692408561707
1772649773136439300,3.404439208984375,0.2785664200782776,-0.324239581823349,0.07882949709892273
1772649773146444300,3.4144443359375,0.27590325474739075,-0.5474122762680054,0.43622541427612305
1772649773156449300,3.42444921875,0.2599242925643921,-0.7306376099586487,0.8127960562705994
1772649773166454000,3.4344541015625,0.20612849295139313,-0.905340850353241,1.1414299011230469
1772649773176459000,3.444458984375,0.1177116185426712,-0.9767134785652161,1.3624720573425293
1772649773186464000,3.454464111328125,-0.019174743443727493,-1.0416945219039917,1.418931007385254
1772649773196469000,3.464468994140625,-0.16724637150764465,-1.0246503353118896,1.2857730388641357
1772649773206473700,3.4744736328125,-0.3057306408882141,-0.7668565511703491,0.985901415348053
1772649773216478700,3.484478759765625,-0.3813643455505371,-0.2198437601327896,0.5640570521354675
1772649773226483700,3.494483642578125,-0.42131173610687256,0.4150533080101013,0.11451582610607147
1772649773236488400,3.504488525390625,-0.40213698148727417,0.8800408244132996,-0.21465060114860535
1772649773246493400,3.514493408203125,-0.3020022213459015,1.4611420631408691,-0.17683374881744385
1772649773256498400,3.52449853515625,-0.0804273933172226,2.945586919784546,0.8772445321083069
1772649773266503200,3.534503173828125,0.11238530278205872,2.752241373062134,2.1805944442749023
1772649773276508200,3.544508056640625,0.33822116255760193,-1.4022862911224365,1.3150677680969238
1772649773286513200,3.55451318359375,0.5954822897911072,-1.56047785282135,-0.23009692132472992
1772649773296518000,3.564517822265625,0.9677919149398804,-0.0073236869648098946,-0.7036065459251404
1772649773306523000,3.57452294921875,0.8633961081504822,-0.19321216642856598,0.17736637592315674
1772649773316527900,3.58452783203125,-0.08149266242980957,-0.8904271721839905,1.0008150339126587
1772649773326532600,3.59453271484375,-1.1318424940109253,-1.1636672019958496,1.0173267126083374
1772649773336537600,3.60453759765625,-1.393364667892456,-0.6267744302749634,0.41225698590278625
1772649773346542600,3.61454248046875,-0.9432908296585083,-0.07123950123786926,-0.31798115372657776
1772649773356547300,3.62454736328125,-0.5597959756851196,0.24035008251667023,-0.6135917901992798
1772649773366552300,3.63455224609375,-0.29454535245895386,0.32929959893226624,-0.5060001611709595
1772649773376557300,3.644557373046875,-0.07456845045089722,0.5428849458694458,-0.2162484973669052
1772649773386562000,3.65456201171875,0.09001477062702179,0.5434175729751587,0.023968428373336792
1772649773396567000,3.664567138671875,0.20186743140220642,0.3884217143058777,0.06498107314109802
1772649773406572000,3.674572021484375,0.19228006899356842,0.22863218188285828,-0.08309055864810944
1772649773416577000,3.684576904296875,-0.012250530533492565,0.07044055312871933,-0.3627222180366516
1772649773426581800,3.694581787109375,-0.21305270493030548,-0.1399489939212799,-0.6178528666496277
1772649773436586800,3.704586669921875,-0.3717769682407379,-0.29441219568252563,-0.7462170720100403
1772649773446591700,3.714591796875,-0.47297701239585876,-0.29760798811912537,-0.7669897079467773
1772649773456596500,3.724596435546875,-0.5683180689811707,-0.13195951282978058,-0.751543402671814
1772649773466601500,3.7346015625,-0.7115960121154785,0.0810931846499443,-0.7664570808410645
1772649773476606500,3.7446064453125,-0.8655266165733337,0.21531638503074646,-0.8266444802284241
1772649773486611200,3.754611083984375,-0.9219855666160583,0.22650165855884552,-0.8825708031654358
1772649773496616200,3.7646162109375,-0.8942887187004089,0.11837740987539291,-0.91026771068573
1772649773506621200,3.77462109375,-0.814393937587738,0.00918789766728878,-0.8692550659179688
1772649773516626000,3.7846259765625,-0.6764423251152039,-0.024900535121560097,-0.7323686480522156
1772649773526631000,3.794630859375,-0.47350963950157166,0.10399635136127472,-0.49854332208633423
1772649773536636000,3.804635986328125,-0.24714113771915436,0.16365110874176025,-0.2306295484304428
1772649773546640600,3.814640625,-0.08096002787351608,0.1098553016781807,-0.011717898771166801
1772649773556645600,3.824645751953125,0.03568632900714874,0.008655265904963017,0.141680046916008
1772649773566650000,3.834650146484375,0.12303793430328369,-0.06644581258296967,0.23009692132472992
1772649773576654600,3.844654541015625,0.1656484752893448,-0.057923704385757446,0.2354232370853424
1772649773586659300,3.854659423828125,0.17204006016254425,0.08215844631195068,0.14540846645832062
1772649773596663800,3.864663818359375,0.1651158481836319,0.14554162323474884,-0.019174743443727493
1772649773606668300,3.874668212890625,0.17576847970485687,0.07843002676963806,-0.22903165221214294
1772649773616672800,3.8846728515625,0.21465060114860535,-0.10532793402671814,-0.47777068614959717
1772649773626677200,3.89467724609375,0.2551306188106537,-0.36418697237968445,-0.6775075793266296
1772649773636681700,3.904681640625,0.31744852662086487,-0.4952143728733063,-0.760065495967865
1772649773646686200,3.914686279296875,0.4005391001701355,-0.36791539192199707,-0.7270423769950867
1772649773656690700,3.924690673828125,0.40320223569869995,-0.2299637645483017,-0.6641917824745178
1772649773666695400,3.9346953125,0.3771032989025116,-0.1404816210269928,-0.5400885939598083
1772649773676700000,3.944699951171875,0.33662328124046326,-0.0978710874915123,-0.30413272976875305
1772649773686704400,3.954704345703125,0.26578325033187866,-0.17616795003414154,0.003728422336280346
1772649773696708900,3.964708984375,0.24128219485282898,-0.21291954815387726,0.35206958651542664
1772649773706713300,3.97471337890625,0.22530323266983032,-0.29387956857681274,0.6237117648124695
1772649773716717800,3.9847177734375,0.1832253336906433,-0.3609911799430847,0.7350318431854248
1772649773726722300,3.994722412109375,0.13741900026798248,-0.34714275598526,0.6727139353752136
1772649773736726800,4.004726806640625,0.08415582031011581,-0.22730059921741486,0.4905538558959961
1772649773746731500,4.0147314453125,0,-0.033955276012420654,0.27590325474739075
1772649773756736000,4.024736083984375,-0.06338317692279816,0.14500899612903595,0.10120003670454025
1772649773766740500,4.034740478515625,-0.09747160971164703,0.2376869171857834,-0.07669897377490997
1772649773776745000,4.044744873046875,-0.1693768948316574,0.3261038064956665,-0.2215748131275177
1772649773786749400,4.05474951171875,-0.23276008665561676,0.5253080725669861,-0.27643588185310364
1772649773796754000,4.06475390625,-0.20399796962738037,0.9093355536460876,-0.207726389169693
1772649773806758400,4.07475830078125,-0.003195790573954582,1.888845443725586,0.38456013798713684
1772649773816763000,4.084762939453125,-0.030360009521245956,3.5314817428588867,2.1848554611206055
1772649773826767600,4.094767578125,-0.32384011149406433,0.786297619342804,2.91243052482605
1772649773836772000,4.104772216796875,-0.28602325916290283,-2.421743392944336,1.5627416372299194
1772649773846776600,4.114776611328125,0.06711160391569138,-1.0166609287261963,0.16192005574703217
1772649773856781000,4.124781005859375,0.49747806787490845,0.5231775641441345,-0.19014954566955566
1772649773866785500,4.13478564453125,0.5139896273612976,-0.2438121885061264,0.5395559668540955
1772649773876790000,4.1447900390625,-0.5107938647270203,-0.7892271280288696,0.9864340424537659
1772649773886794500,4.15479443359375,-1.4322468042373657,-0.456332266330719,0.7483476400375366
1772649773896799000,4.164799072265625,-1.3523520231246948,-0.1404816210269928,0.26152220368385315
1772649773906803700,4.1748037109375,-0.8495476841926575,-0.06325002014636993,-0.09374319016933441
1772649773916808200,4.18480810546875,-0.4948149025440216,-0.09201213717460632,-0.24714113771915436
1772649773926812700,4.194812744140625,-0.1129179298877716,-0.12290477752685547,-0.2359558641910553
1772649773936817200,4.204817138671875,0.17363795638084412,-0.16658058762550354,-0.21944428980350494
1772649773946821600,4.214821533203125,0.18269269168376923,-0.17723321914672852,-0.21092218160629272
1772649773956826000,4.224826171875,0.06285054981708527,-0.2390184998512268,-0.22903165221214294
1772649773966830600,4.23483056640625,-0.10066740214824677,-0.2299637645483017,-0.3307643234729767
1772649773976835000,4.2448349609375,-0.283360093832016,0.09387634694576263,-0.4942822754383087
1772649773986839800,4.25483984375,-0.3334274888038635,0.5487438440322876,-0.713193953037262
1772649773996844300,4.26484423828125,-0.3430148661136627,0.77724289894104,-0.8410255312919617
1772649774006848800,4.274848876953125,-0.44581279158592224,0.7447523474693298,-0.8154592514038086
1772649774016853200,4.284853271484375,-0.5976128578186035,0.5684512257575989,-0.6977475881576538
1772649774026857700,4.294857666015625,-0.637560248374939,0.19560901820659637,-0.5502086281776428
1772649774036862200,4.3048623046875,-0.5864275693893433,-0.28375956416130066,-0.37071171402931213
1772649774046866700,4.31486669921875,-0.5587307214736938,-0.6896249651908875,-0.1747032105922699
1772649774056871400,4.324871337890625,-0.5134570002555847,-0.8701871633529663,-0.03249053657054901
1772649774066875600,4.334875732421875,-0.42610540986061096,-0.7567365765571594,0.08735160529613495
1772649774076880000,4.3448798828125,-0.2886864244937897,-0.5575323104858398,0.18056216835975647
1772649774086884400,4.35488427734375,-0.17150743305683136,-0.4360922574996948,0.20506322383880615
1772649774096888600,4.364888671875,-0.09214529395103455,-0.3386206328868866,0.18535585701465607
1772649774106893000,4.37489306640625,-0.019707374274730682,-0.25553008913993835,0.141680046916008
1772649774116897300,4.384897216796875,0.066046342253685,-0.13462267816066742,0.05006738752126694
1772649774126901800,4.39490185546875,0.15659373998641968,0.14554162323474884,-0.07616633921861649
1772649774136906000,4.404906005859375,0.2545979917049408,0.397476464509964,-0.2577937841415405
1772649774146910500,4.414910400390625,0.3632548749446869,0.37617117166519165,-0.5177180767059326
1772649774156914700,4.424914794921875,0.4756401777267456,0.2270342856645584,-0.7376949787139893
1772649774166919200,4.434919189453125,0.6285054683685303,0.0576573871076107,-0.8740487098693848
1772649774176923400,4.44492333984375,0.8303729295730591,-0.10159950703382492,-0.9241161346435547
1772649774186927900,4.454927978515625,0.9427582025527954,-0.2502037584781647,-0.8697876930236816
1772649774196932000,4.46493212890625,0.8777771592140198,-0.506932258605957,-0.7510107755661011
1772649774206936600,4.4749365234375,0.6173202395439148,-0.8446208238601685,-0.5880254507064819
1772649774216940800,4.48494091796875,0.3206443190574646,-1.0757830142974854,-0.3344927430152893
1772649774226945300,4.4949453125,0.28069692850112915,-1.211604118347168,0.0005326317623257637
1772649774236949500,4.504949462890625,0.2913495600223541,-1.234241008758545,0.3478085398674011
1772649774246954000,4.5149541015625,0.25726112723350525,-1.0808429718017578,0.6439517736434937
1772649774256958200,4.524958251953125,0.16777899861335754,-0.9173250794410706,0.7440865635871887
1772649774266962700,4.534962646484375,0.09587371349334717,-0.6712491512298584,0.637560248374939
1772649774276967000,4.544966796875,0.09587371349334717,-0.3319627344608307,0.4042675197124481
1772649774286971400,4.554971435546875,0.05752423033118248,-0.018242638558149338,0.13475583493709564
1772649774296975600,4.5649755859375,-0.050600018352270126,0.25126904249191284,-0.0005326317623257637
1772649774306980000,4.57497998046875,-0.11664635688066483,0.42064592242240906,0.03621895983815193
1772649774316984300,4.584984375,-0.20612849295139313,0.5165196657180786,0.16351795196533203
1772649774326988800,4.59498876953125,-0.17257268726825714,0.6480796933174133,0.3296990692615509
1772649774336993000,4.604992919921875,-0.018109479919075966,0.9303745031356812,0.48735806345939636
1772649774346997500,4.61499755859375,0.25246745347976685,1.5727283954620361,0.7893602848052979
1772649774357001700,4.625001708984375,0.38029909133911133,2.747714042663574,1.5707310438156128
1772649774367006200,4.635006103515625,0.25726112723350525,1.4576799869537354,1.5164026021957397
1772649774377010400,4.645010498046875,0.1981390118598938,-1.4701968431472778,0.5800359845161438
1772649774387015000,4.655014892578125,0.5123917460441589,-1.1080071926116943,0.2162484973669052
1772649774397019100,4.66501904296875,1.0514150857925415,0.3279680013656616,0.19707375764846802
1772649774407023600,4.675023681640625,1.3246551752090454,0.6358291506767273,0.6530065536499023
1772649774417027800,4.68502783203125,1.1984214782714844,0.008388950489461422,1.1941604614257812
1772649774427032300,4.6950322265625,0.27110958099365234,-0.5844302177429199,1.3603415489196777
1772649774437036500,4.70503662109375,-0.7068023681640625,-0.672314465045929,1.0247834920883179
1772649774447041000,4.715041015625,-1.0801771879196167,-0.760198712348938,0.295610636472702
1772649774457045200,4.725045166015625,-0.9193224310874939,-0.7974829077720642,-0.27483800053596497
1772649774467049700,4.7350498046875,-0.7153244614601135,-0.5135901570320129,-0.34674328565597534
1772649774477054000,4.745053955078125,-0.5571328401565552,-0.14074794948101044,-0.1938779652118683
1772649774487058400,4.755058349609375,-0.3856253921985626,0.32157641649246216,-0.1267663538455963
1772649774497062700,4.765062744140625,-0.09640634804964066,0.5751091241836548,-0.18002954125404358
1772649774507067100,4.775067138671875,0.13901689648628235,0.39348170161247253,-0.1976063847541809
1772649774517071400,4.7850712890625,0.1608547866344452,0.2502037584781647,-0.29028430581092834
1772649774527075800,4.795075927734375,0.08841687440872192,0.2805637717247009,-0.5502086281776428
1772649774537080000,4.805080078125,0.0378168560564518,0.45899543166160583,-0.8500803112983704
1772649774547084500,4.81508447265625,-0.023435797542333603,0.5314333438873291,-1.0056087970733643
1772649774557088800,4.8250888671875,-0.20186743140220642,0.5628586411476135,-0.9683245420455933
1772649774567093200,4.83509326171875,-0.43516016006469727,0.6171870827674866,-0.8101329207420349
1772649774577097700,4.84509765625,-0.6737791895866394,0.5820333361625671,-0.6199833750724792
1772649774587102000,4.85510205078125,-0.8021434545516968,0.43502700328826904,-0.4569980502128601
1772649774597106400,4.8651064453125,-0.7659244537353516,0.38709014654159546,-0.2870885133743286
1772649774607111000,4.87511083984375,-0.6988128423690796,0.3673827648162842,-0.14807163178920746
1772649774617115400,4.885115478515625,-0.608798086643219,0.4286354184150696,-0.06178528442978859
1772649774627119900,4.895119873046875,-0.4426169991493225,0.5697828531265259,-0.0026631588116288185
1772649774637124400,4.905124267578125,-0.2215748131275177,0.7897597551345825,0.08096002787351608
1772649774647128800,4.91512890625,-0.04633896425366402,0.7886945009231567,0.1512674242258072
1772649774657133000,4.925133056640625,0.07669897377490997,0.607599675655365,0.21411797404289246
1772649774667137500,4.935137451171875,0.1842905879020691,0.3657848536968231,0.2450106143951416
1772649774677142000,4.94514208984375,0.26578325033187866,0.1303616166114807,0.2407495528459549
1772649774687146500,4.955146484375,0.3110569417476654,0.0739026591181755,0.1603221595287323
1772649774697151000,4.96515087890625,0.3531348705291748,0.058456335216760635,0.009054739959537983
1772649774707155500,4.975155517578125,0.4324969947338104,-0.3133206367492676,-0.28549063205718994
1772649774717159700,4.98515966796875,0.5715138912200928,-0.764992356300354,-0.6386255025863647
1772649774727164200,4.9951640625,0.8543413281440735,-0.8928239941596985,-0.931040346622467
1772649774737168600,5.005168701171875,1.2788488864898682,-0.6360954642295837,-1.158474087715149
1772649774747173000,5.015173095703125,1.6405057907104492,-0.05499422922730446,-1.279914140701294
1772649774757177600,5.025177490234375,1.8226659297943115,0.4243743419647217,-1.3416993618011475
1772649774767181800,5.035181884765625,1.7672722339630127,0.5484775304794312,-1.3422319889068604
1772649774777186300,5.045186279296875,1.442899465560913,0.4845617413520813,-1.1936278343200684
1772649774787190800,5.055190673828125,1.0077393054962158,0.2805637717247009,-0.8905603289604187
1772649774797195300,5.0651953125,0.7238465547561646,-0.010785792954266071,-0.46445488929748535
1772649774807199700,5.07519970703125,0.5928191542625427,-0.10879004001617432,0.04420843720436096
1772649774817204200,5.085204345703125,0.4676506817340851,-0.24727429449558258,0.41172435879707336
1772649774827208700,5.095208740234375,0.3259706497192383,-0.37084487080574036,0.5731117725372314
1772649774837213000,5.105212890625,0.21038953959941864,-0.5002743601799011,0.5811012387275696
1772649774847217400,5.115217529296875,0.09853687882423401,-0.592952311038971,0.47350963950157166
1772649774857222000,5.125221923828125,0.0005326317623257637,-0.5279712080955505,0.3430148661136627
1772649774867226400,5.135226318359375,-0.06551370769739151,-0.37670382857322693,0.20879164338111877
1772649774877230800,5.14523095703125,-0.10705898702144623,-0.2701774537563324,0.11185266822576523
1772649774887235300,5.1552353515625,-0.06924212723970413,-0.10879004001617432,0.050600018352270126
1772649774897239600,5.165239501953125,0.04154527932405472,0.025965798646211624,-0.08362318575382233
1772649774907244000,5.175244140625,0.15659373998641968,0.2012016475200653,-0.3099916875362396
1772649774917248500,5.18524853515625,0.21944428980350494,0.5399554371833801,-0.4708464741706848
1772649774927253000,5.1952529296875,0.2221074402332306,0.9303745031356812,-0.44048646092414856
1772649774937257500,5.205257568359375,0.16138742864131927,1.4619410037994385,-0.13475583493709564
1772649774947262000,5.215261962890625,0.003195790573954582,2.372741460800171,0.9342361092567444
1772649774957266400,5.225266357421875,-0.3312969505786896,1.8022927045822144,2.574741840362549
1772649774967270700,5.235270751953125,-0.38029909133911133,-1.6193337440490723,2.8581020832061768
1772649774977275100,5.245275146484375,-0.39361485838890076,-2.841191053390503,1.2634025812149048
1772649774987279600,5.255279541015625,-0.03994738310575485,-0.7207839488983154,-0.14274531602859497
1772649774997284000,5.2652841796875,0.2354232370853424,0.6432859897613525,-0.41705065965652466
1772649775007288600,5.27528857421875,-0.6673876047134399,-0.015046847052872181,-0.1837579607963562
1772649775017293000,5.28529296875,-1.4503562450408936,-0.48536068201065063,0.01012000348418951
1772649775027297300,5.29529736328125,-1.4285184144973755,-0.1423458456993103,0.1129179298877716
1772649775037301800,5.3053017578125,-1.0135982036590576,0.3514038026332855,0.2306295484304428
1772649775047306200,5.31530615234375,-0.7126613259315491,0.4946817457675934,0.306263267993927
1772649775057310700,5.325310791015625,-0.4538022577762604,0.17989638447761536,0.22423797845840454
1772649775067315500,5.3353154296875,-0.11984214931726456,-0.09920266270637512,-0.02503369376063347
1772649775077320400,5.345320556640625,0.13369056582450867,-0.1327584683895111,-0.22423797845840454
1772649775087325200,5.3553251953125,0.24820640683174133,-0.12583425641059875,-0.306263267993927
1772649775097330000,5.365329833984375,0.16724637150764465,-0.1988048106431961,-0.35206958651542664
1772649775107334700,5.375334716796875,0.006391581147909164,-0.24940481781959534,-0.4335622489452362
1772649775117339600,5.385339599609375,-0.1747032105922699,-0.12263846397399902,-0.5273054242134094
1772649775127344400,5.395344482421875,-0.423974871635437,0.09520792961120605,-0.5576654672622681
1772649775137349000,5.40534912109375,-0.738760232925415,0.24647535383701324,-0.48309701681137085
1772649775147353900,5.415353759765625,-1.053545594215393,0.2826943099498749,-0.3446127474308014
1772649775157358800,5.42535888671875,-1.2010846138000488,0.09946898370981216,-0.18269269168376923
1772649775167363600,5.435363525390625,-1.2239878177642822,-0.26698166131973267,-0.02503369376063347
1772649775177368300,5.445368408203125,-1.1664636135101318,-0.5791038870811462,0.11078740656375885
1772649775187373300,5.455373291015625,-1.0151960849761963,-0.5615270137786865,0.23222744464874268
1772649775197378000,5.4653779296875,-0.7835013270378113,-0.27284061908721924,0.348341166973114
1772649775207382800,5.4753828125,-0.5624591112136841,-0.031558431684970856,0.43196436762809753
1772649775217387500,5.485387451171875,-0.3723095953464508,0.0696416050195694,0.46445488929748535
1772649775227392500,5.495392578125,-0.20612849295139313,0.06325002014636993,0.42184436321258545
1772649775237397200,5.505397216796875,-0.04580633342266083,0.04460791125893593,0.3536674976348877
1772649775247402000,5.515402099609375,0.06817686557769775,0.09946898370981216,0.27696850895881653
1772649775257407000,5.525406982421875,0.15925689041614532,0.1639174222946167,0.1603221595287323
1772649775267411700,5.53541162109375,0.3099916875362396,0.03342264145612717,-0.06711160391569138
1772649775277416400,5.54541650390625,0.5757749080657959,-0.2515353560447693,-0.4095938205718994
1772649775287421400,5.55542138671875,0.9241161346435547,-0.40386801958084106,-0.7563371062278748
1772649775297426200,5.56542626953125,1.2181288003921509,-0.19773954153060913,-1.029044508934021
1772649775307431000,5.575430908203125,1.3976256847381592,0.16658058762550354,-1.2362383604049683
1772649775317435600,5.585435546875,1.4333120584487915,0.41105857491493225,-1.358743667602539
1772649775327440600,5.595440673828125,1.225585699081421,0.5101280808448792,-1.3528846502304077
1772649775337445400,5.6054453125,0.8170571327209473,0.40733012557029724,-1.1808446645736694
1772649775347450000,5.6154501953125,0.4612590968608856,0.058456335216760635,-0.8484823703765869
1772649775357454800,5.625454833984375,0.30040431022644043,-0.37670382857322693,-0.41225698590278625
1772649775367459800,5.6354599609375,0.3078611493110657,-0.7340997457504272,0.04527369886636734
1772649775377464600,5.645464599609375,0.4095938205718994,-0.9631313681602478,0.44634541869163513
1772649775387469300,5.65546923828125,0.5432844161987305,-1.045689344406128,0.7414234280586243
1772649775397474300,5.665474365234375,0.5970802307128906,-1.0190577507019043,0.8841687440872192
1772649775407479000,5.67547900390625,0.5645896792411804,-0.9743166565895081,0.8703203201293945
1772649775417483800,5.68548388671875,0.48682543635368347,-0.941293478012085,0.7185202240943909
1772649775427488500,5.695488525390625,0.38828855752944946,-0.8150597810745239,0.4793685972690582
1772649775437493500,5.705493408203125,0.29880642890930176,-0.5977460145950317,0.21891164779663086
1772649775447498200,5.715498291015625,0.22050954401493073,-0.4667185842990875,-0.08362318575382233
1772649775457503000,5.7255029296875,0.16777899861335754,-0.2552637755870819,-0.33662328124046326
1772649775467507700,5.7355078125,0.09480845183134079,0.23635534942150116,-0.3952127695083618
1772649775477512700,5.7455126953125,-0.06498107314109802,0.7242460250854492,-0.2828274667263031
1772649775487517400,5.755517333984375,-0.35100433230400085,1.0954903364181519,0.06924212723970413
1772649775497522200,5.765522216796875,-0.5768402218818665,2.163417100906372,1.309208869934082
1772649775507527200,5.775527099609375,-0.9331708550453186,2.540520429611206,3.4051148891448975
1772649775517532000,5.785531982421875,-0.6279728412628174,-1.6827168464660645,2.7840662002563477
1772649775527536600,5.79553662109375,0.31372010707855225,-2.752241373062134,0.449008584022522
1772649775537541600,5.805541748046875,0.7637939453125,-0.2462090253829956,-0.49694544076919556
1772649775547546400,5.81554638671875,0.5832318067550659,0.30719536542892456,0.07137265801429749
1772649775557551000,5.825551025390625,-0.18269269168376923,-0.3655185401439667,0.6764423251152039
1772649775567556000,5.83555615234375,-0.9736508727073669,-0.3394196033477783,0.5725791454315186
1772649775577560800,5.845560791015625,-1.091362476348877,0.07709844410419464,0.09214529395103455
1772649775587565800,5.85556591796875,-0.8538087010383606,0.4797680675983429,-0.17523585259914398
1772649775597570600,5.865570556640625,-0.6625939011573792,0.41105857491493225,-0.1938779652118683
1772649775607575600,5.875575439453125,-0.4660528004169464,0.19427743554115295,-0.22956429421901703
1772649775617580300,5.885580322265625,-0.20932428538799286,0.19108164310455322,-0.3669832944869995
1772649775627585300,5.895585205078125,0.06924212723970413,0.23582270741462708,-0.4016043543815613
1772649775637590000,5.905590087890625,0.2593916654586792,0.22730059921741486,-0.329166442155838
1772649775647595000,5.915594970703125,0.20985691249370575,0.1447426825761795,-0.27164220809936523
1772649775657599700,5.925599853515625,0.03621895983815193,0.045673172920942307,-0.3403517007827759
1772649775667604700,5.935604736328125,-0.14753900468349457,0.09840371459722519,-0.5315665006637573
1772649775677609500,5.945609375,-0.3568632900714874,0.366317480802536,-0.7494128942489624
1772649775687614500,5.955614501953125,-0.6183854937553406,0.6342312693595886,-0.8804402947425842
1772649775697619200,5.965619140625,-0.8719182014465332,0.7226481437683105,-0.872983455657959
1772649775707624200,5.975624267578125,-1.0530129671096802,0.5383575558662415,-0.7558044791221619
1772649775717629000,5.98562890625,-1.0524803400039673,0.1681784838438034,-0.5656549334526062
1772649775727634000,5.995634033203125,-0.9752487540245056,-0.13116057217121124,-0.35206958651542664
1772649775737638700,6.005638671875,-0.847949743270874,-0.2462090253829956,-0.15446321666240692
1772649775747643600,6.0156435546875,-0.6636591553688049,-0.18655426800251007,0.02077263966202736
1772649775757648400,6.0256484375,-0.457530677318573,-0.08855003118515015,0.17044216394424438
1772649775767653400,6.0356533203125,-0.27643588185310364,-0.09600687772035599,0.2631200850009918
1772649775777658000,6.045658203125,-0.14913690090179443,-0.17909742891788483,0.2785664200782776
1772649775787663000,6.0556630859375,-0.03834948688745499,-0.26218798756599426,0.2695116698741913
1772649775797667800,6.065667724609375,0.04101264476776123,-0.20040270686149597,0.25246745347976685
1772649775807672800,6.0756728515625,0.10120003670454025,-0.04274369776248932,0.19121479988098145
1772649775817677600,6.085677490234375,0.17576847970485687,-0.019840532913804054,0.06711160391569138
1772649775827682600,6.0956826171875,0.2924148440361023,-0.22543638944625854,-0.1267663538455963
1772649775837687300,6.105687255859375,0.46019384264945984,-0.4523375332355499,-0.35153695940971375
1772649775847692300,6.1156923828125,0.621048629283905,-0.33302801847457886,-0.4916191101074219
1772649775857697300,6.125697265625,0.7147918343544006,-0.048602648079395294,-0.5400885939598083
1772649775867702000,6.135701904296875,0.7408908009529114,-0.06138581037521362,-0.5395559668540955
1772649775877707000,6.14570703125,0.6977475881576538,-0.3175816833972931,-0.43675804138183594
1772649775887711700,6.155711669921875,0.6103960275650024,-0.5396891236305237,-0.19707375764846802
1772649775897716500,6.165716552734375,0.5320991277694702,-0.668053388595581,0.11451582610607147
1772649775907721500,6.175721435546875,0.4388885796070099,-0.6856302618980408,0.3776359260082245
1772649775917726200,6.185726318359375,0.29827380180358887,-0.5913544297218323,0.5230444073677063
1772649775927731200,6.195731201171875,0.13741900026798248,-0.4970785975456238,0.5443496704101562
1772649775937736000,6.20573583984375,0.006391581147909164,-0.4576638340950012,0.4809664785861969
1772649775947741000,6.215740966796875,-0.06072001904249191,-0.4534027874469757,0.39840856194496155
1772649775957746000,6.225745849609375,-0.08415582031011581,-0.5098617672920227,0.3355579972267151
1772649775967750700,6.235750732421875,-0.10333056002855301,-0.592952311038971,0.27483800053596497
1772649775977755600,6.245755615234375,-0.11451582610607147,-0.5982786417007446,0.21411797404289246
1772649775987760400,6.255760498046875,-0.09054739773273468,-0.47417542338371277,0.15020215511322021
1772649775997765400,6.265765380859375,-0.02503369376063347,-0.31065747141838074,0.08788423985242844
1772649776007770000,6.27577001953125,0.07669897377490997,-0.17963005602359772,0.004793685860931873
1772649776017775000,6.285775146484375,0.17736637592315674,0.01904158480465412,-0.07723160833120346
1772649776027779800,6.29577978515625,0.2583264112472534,0.39348170161247253,-0.12144003808498383
1772649776037784800,6.305784912109375,0.2679137885570526,0.7870965600013733,-0.0612526535987854
1772649776047789600,6.31578955078125,0.19920428097248077,1.12478506565094,0.2838927209377289
1772649776057794300,6.325794189453125,0.04580633342266083,1.7303874492645264,1.3401014804840088
1772649776067798500,6.335798583984375,-0.25672850012779236,0.7583344578742981,2.122537612915039
1772649776077802500,6.345802490234375,-0.010652635246515274,-1.6912389993667603,1.0301098823547363
1772649776087806500,6.355806396484375,0.5390233397483826,-1.5330473184585571,-0.8756465911865234
1772649776097810400,6.365810546875,0.558198094367981,0.313586950302124,-1.381646752357483
1772649776107814400,6.375814453125,-0.14540846645832062,0.1681784838438034,-0.28549063205718994
1772649776117818600,6.385818603515625,-1.0205224752426147,-0.3676490783691406,0.7840339541435242
1772649776127822600,6.395822509765625,-1.3981584310531616,-0.3037332594394684,0.8836361169815063
1772649776137826600,6.40582666015625,-1.0620677471160889,0.08508792519569397,0.35633066296577454
1772649776147830500,6.41583056640625,-0.5933517813682556,0.3753722310066223,-0.240216925740242
1772649776157834800,6.425834716796875,-0.3243727385997772,0.4882901608943939,-0.5363602042198181
1772649776167838700,6.435838623046875,-0.13049478828907013,0.6214480996131897,-0.4665854275226593
1772649776177842700,6.4458427734375,0.046871595084667206,0.7045386433601379,-0.2647179961204529
1772649776187846700,6.4558466796875,0.17204006016254425,0.5458143949508667,-0.21411797404289246
1772649776197850600,6.4658505859375,0.14700636267662048,0.22144165635108948,-0.3158506453037262
1772649776207854800,6.475854736328125,-0.07776423543691635,-0.03315632790327072,-0.42131173610687256
1772649776217858800,6.48585888671875,-0.3627222180366516,-0.1609879434108734,-0.457530677318573
1772649776227862800,6.49586279296875,-0.5608612298965454,-0.17217321693897247,-0.40799593925476074
1772649776237866800,6.50586669921875,-0.7371623516082764,-0.05339633300900459,-0.348341166973114
1772649776247871000,6.51587109375,-0.9198550581932068,0.11278477311134338,-0.33715590834617615
1772649776257875000,6.525875,-1.0695245265960693,0.21824586391448975,-0.36964643001556396
1772649776267879000,6.53587890625,-1.158474087715149,0.22357217967510223,-0.4106590747833252
1772649776277883000,6.5458828125,-1.0945582389831543,0.19907112419605255,-0.44581279158592224
1772649776287887000,6.55588720703125,-0.9001476764678955,0.2246374487876892,-0.45433488488197327
1772649776297891000,6.56589111328125,-0.6476802229881287,0.29441219568252563,-0.37870118021965027
1772649776307895000,6.57589501953125,-0.37390750646591187,0.3375553786754608,-0.2258358597755432
1772649776317899000,6.58589892578125,-0.1177116185426712,0.3183806240558624,-0.05273054540157318
1772649776327903000,6.595903076171875,0.058589495718479156,0.2251700758934021,0.0612526535987854
1772649776337907200,6.6059072265625,0.16192005574703217,0.13941636681556702,0.13475583493709564
1772649776347911200,6.6159111328125,0.240216925740242,0.08562055230140686,0.19547586143016815
1772649776357915100,6.6259150390625,0.33182957768440247,0.07976160943508148,0.22477060556411743
1772649776367919000,6.635919189453125,0.43196436762809753,0.24114902317523956,0.17257268726825714
1772649776377923000,6.645923095703125,0.5496760010719299,0.366317480802536,0.03195790573954582
1772649776387927300,6.65592724609375,0.6988128423690796,0.2858901023864746,-0.16405057907104492
1772649776397931300,6.66593115234375,0.897484540939331,-0.11145319789648056,-0.49747806787490845
1772649776407935200,6.675935302734375,1.15314781665802,-0.37137749791145325,-0.9033434391021729
1772649776417939200,6.685939208984375,1.3731247186660767,-0.20146796107292175,-1.200551986694336
1772649776427943400,6.695943359375,1.5073479413986206,0.028628956526517868,-1.314002513885498
1772649776437947400,6.705947509765625,1.456215262413025,0.0882837176322937,-1.237303614616394
1772649776447951400,6.715951416015625,1.0759161710739136,0.0057257916778326035,-0.9677919149398804
1772649776457955300,6.725955322265625,0.48309701681137085,-0.21957744657993317,-0.5230444073677063
1772649776467959600,6.73595947265625,0.012783162295818329,-0.6217144131660461,0.0378168560564518
1772649776477963500,6.745963623046875,-0.1699095368385315,-1.0728535652160645,0.5906886458396912
1772649776487967500,6.755967529296875,-0.1459411084651947,-1.3876389265060425,1.0476866960525513
1772649776497971500,6.765971435546875,0.019707374274730682,-1.2614052295684814,1.3848426342010498
1772649776507975400,6.775975341796875,0.1603221595287323,-0.9482176899909973,1.410941481590271
1772649776517979600,6.785979736328125,0.23169481754302979,-0.6792386770248413,1.1291793584823608
1772649776527983600,6.795983642578125,0.19600848853588104,-0.3740406632423401,0.6849644184112549
1772649776537987600,6.805987548828125,0.11238530278205872,-0.199337437748909,0.27590325474739075
1772649776547991600,6.815991455078125,0.04633896425366402,-0.12476898729801178,0.021305270493030548
1772649776557995800,6.825995849609375,-0.002130527049303055,-0.043808963149785995,-0.11877688020467758
1772649776568000500,6.83600048828125,-0.027164220809936523,0.05579317733645439,-0.174170583486557
1772649776578005500,6.846005615234375,0.030892642214894295,0.14261215925216675,-0.20506322383880615
1772649776588010200,6.85601025390625,0.1278316229581833,0.301336407661438,-0.27696850895881653
1772649776598015200,6.86601513671875,0.2354232370853424,0.7615302801132202,-0.15339794754981995
1772649776608020000,6.87602001953125,0.3808317184448242,1.685646414756775,0.6205160021781921
1772649776618025000,6.88602490234375,0.20879164338111877,1.9727349281311035,1.8817880153656006
1772649776628029700,6.89602978515625,0.059122126549482346,-0.9460871815681458,2.188051223754883
1772649776638034700,6.90603466796875,0.1842905879020691,-2.7783403396606445,1.4716615676879883
1772649776648039400,6.916039306640625,0.5054675340652466,-0.5519396662712097,0.3946801424026489
1772649776658044400,6.92604443359375,0.8703203201293945,1.451820969581604,-0.15020215511322021
1772649776668049200,6.936049072265625,0.3494064211845398,0.7849660515785217,0.1837579607963562
1772649776678054100,6.94605419921875,-0.90281081199646,-0.15992268919944763,0.5347622632980347
1772649776688059000,6.956058837890625,-1.2895015478134155,-0.3910848796367645,0.5677854418754578
1772649776698064000,6.96606396484375,-1.0274466276168823,0.06697844713926315,0.25193482637405396
1772649776708068600,6.976068603515625,-0.7739139795303345,0.3055974841117859,-0.13741900026798248
1772649776718073600,6.986073486328125,-0.5848296880722046,0.5410206913948059,-0.3568632900714874
1772649776728078300,6.996078369140625,-0.4016043543815613,0.6901575922966003,-0.4197138249874115
1772649776738083300,7.006083251953125,-0.2162484973669052,0.5633912682533264,-0.44581279158592224
1772649776748088000,7.016088134765625,-0.08894950151443481,0.4041343629360199,-0.438355952501297
1772649776758093000,7.026093017578125,-0.02450106106698513,0.4126564562320709,-0.44581279158592224
1772649776768097800,7.036097900390625,0.002130527049303055,0.5388901829719543,-0.48895594477653503
1772649776778102800,7.046102783203125,-0.004793685860931873,0.5479449033737183,-0.48256438970565796
1772649776788107500,7.056107421875,-0.050600018352270126,0.4787027835845947,-0.40373486280441284
1772649776798112500,7.066112548828125,-0.16618111729621887,0.4270375072956085,-0.35100433230400085
1772649776808117200,7.0761171875,-0.39894118905067444,0.24594271183013916,-0.4069306552410126
1772649776818122000,7.0861220703125,-0.6386255025863647,0.008921582251787186,-0.5182507038116455
1772649776828127000,7.096126953125,-0.7968171238899231,-0.1663142740726471,-0.6151896715164185
1772649776838132000,7.106132080078125,-0.9049413800239563,-0.28615641593933105,-0.6407560110092163
1772649776848136700,7.11613671875,-0.8740487098693848,-0.30160272121429443,-0.5837644338607788
1772649776858141700,7.1261416015625,-0.6892254948616028,-0.2414153516292572,-0.511859118938446
1772649776868146400,7.136146484375,-0.44048646092414856,-0.2664490342140198,-0.4937496483325958
1772649776878151200,7.146151123046875,-0.17204006016254425,-0.34368064999580383,-0.4948149025440216
1772649776888156200,7.15615625,0.051665280014276505,-0.4262385666370392,-0.48895594477653503
1772649776898161000,7.166160888671875,0.2024000734090805,-0.5162533521652222,-0.4719117283821106
1772649776908166000,7.176165771484375,0.339819073677063,-0.6467481255531311,-0.43569278717041016
1772649776918170600,7.186170654296875,0.480433851480484,-0.9732514023780823,-0.4053327739238739
1772649776928175600,7.196175537109375,0.6823012828826904,-1.5921695232391357,-0.42663803696632385
1772649776938180400,7.206180419921875,0.906539261341095,-1.8622138500213623,-0.5001412034034729
1772649776948185300,7.216185302734375,1.108939290046692,-1.2938957214355469,-0.6082654595375061
1772649776958190000,7.226190185546875,1.3315794467926025,-0.31491851806640625,-0.7792402505874634
1772649776968195000,7.236195068359375,1.4945647716522217,0.4760396480560303,-0.982172966003418
1772649776978199800,7.24619970703125,1.4647372961044312,0.9687240123748779,-1.0823076963424683
1772649776988204800,7.256204833984375,1.1132004261016846,1.1828420162200928,-0.9411603212356567
1772649776998209500,7.26620947265625,0.6279728412628174,0.774846076965332,-0.5139896273612976
1772649777008214500,7.276214599609375,0.36538538336753845,0.03289001062512398,0.18216006457805634
1772649777018219300,7.28621923828125,0.2966758906841278,-0.5210469961166382,0.9970866441726685
1772649777028224300,7.296224365234375,0.32224223017692566,-0.9295755624771118,1.661811113357544
1772649777038229000,7.30622900390625,0.3355579972267151,-1.2076094150543213,2.003760576248169
1772649777048234000,7.31623388671875,0.23382534086704254,-1.1351714134216309,1.971270203590393
1772649777058238700,7.32623876953125,0.060187388211488724,-0.8890955448150635,1.6058847904205322
1772649777068243000,7.336242919921875,-0.0942758247256279,-0.4954806864261627,1.023718237876892
1772649777078247200,7.3462470703125,-0.16618111729621887,-0.027830010280013084,0.4181159436702728
1772649777088251400,7.35625146484375,-0.10279793292284012,0.22357217967510223,0.005858949385583401
1772649777098256000,7.366255859375,-0.09480845183134079,0.28003114461898804,-0.19867165386676788
1772649777108260000,7.376260009765625,-0.05273054540157318,0.34075117111206055,-0.24181482195854187
1772649777118264300,7.386264404296875,-0.01704421639442444,0.4717785716056824,-0.17363795638084412
1772649777128268500,7.3962685546875,0.06231791526079178,0.7066692113876343,-0.030892642214894295
1772649777138272800,7.406272705078125,0.20506322383880615,1.2132019996643066,0.3813643455505371
1772649777148277000,7.416277099609375,0.348341166973114,2.400970935821533,1.5579478740692139
1772649777158281200,7.42628125,0.025566324591636658,1.9967032670974731,2.768087387084961
1772649777168285700,7.43628564453125,-0.3211769461631775,-1.2321103811264038,2.1305270195007324
1772649777178290000,7.4462900390625,-0.12836425006389618,-2.067809581756592,0.371244341135025
1772649777188294100,7.456294189453125,0.37390750646591187,-0.2462090253829956,-0.6114612817764282
1772649777198298400,7.46629833984375,0.5656549334526062,0.8478165864944458,-0.3664506673812866
1772649777208302600,7.476302490234375,0.07776423543691635,0.19853848218917847,0.4159854054450989
1772649777218306800,7.486306884765625,-0.5347622632980347,-0.06511422991752625,0.9992172122001648
1772649777228311000,7.49631103515625,-0.772316038608551,0.0014647373463958502,0.940095067024231
1772649777238315300,7.506315185546875,-0.6604633927345276,-0.08961529284715652,0.3685811758041382
1772649777248319700,7.51631982421875,-0.5107938647270203,0.09254477173089981,-0.13049478828907013
1772649777258324000,7.526323974609375,-0.38349485397338867,0.40679749846458435,-0.26738113164901733
1772649777268328200,7.536328125,-0.2870885133743286,0.5207806825637817,-0.18002954125404358
1772649777278332400,7.54633251953125,-0.16298532485961914,0.33009853959083557,-0.06231791526079178
1772649777288336600,7.556336669921875,-0.04633896425366402,0.09041424095630646,-0.09267792850732803
1772649777298340900,7.5663408203125,-0.023435797542333603,-0.09600687772035599,-0.19228006899356842
1772649777308345300,7.576345458984375,-0.08149266242980957,-0.22490376234054565,-0.29827380180358887
1772649777318349600,7.586349609375,-0.1464737355709076,-0.2749711573123932,-0.4042675197124481
1772649777328353800,7.596353759765625,-0.24181482195854187,-0.24940481781959534,-0.4522043764591217
1772649777338358000,7.60635791015625,-0.42610540986061096,-0.16045531630516052,-0.44155174493789673
1772649777348362200,7.6163623046875,-0.7105307579040527,-0.0864195004105568,-0.4101264476776123
1772649777358366500,7.626366455078125,-1.0210551023483276,-0.012383688241243362,-0.40213698148727417
1772649777368370700,7.63637060546875,-1.2410320043563843,-0.024634219706058502,-0.41651803255081177
1772649777378375200,7.646375244140625,-1.2697941064834595,-0.08215844631195068,-0.43143174052238464
1772649777388379400,7.65637939453125,-1.1552783250808716,-0.07257107645273209,-0.4665854275226593
1772649777398383600,7.666383544921875,-0.9970866441726685,0.026498429477214813,-0.4612590968608856
1772649777408387800,7.676387939453125,-0.793621301651001,0.1639174222946167,-0.3776359260082245
1772649777418392000,7.68639208984375,-0.5400885939598083,0.25073641538619995,-0.2396842986345291
1772649777428396300,7.696396240234375,-0.28069692850112915,0.21931113302707672,-0.070840023458004
1772649777438400500,7.706400390625,-0.08309055864810944,0.04460791125893593,0.058589495718479156
1772649777448405000,7.716405029296875,0.02450106106698513,-0.17430374026298523,0.10918951034545898
1772649777458409200,7.7264091796875,0.07882949709892273,-0.32450589537620544,0.08309055864810944
1772649777468413400,7.736413330078125,0.141680046916008,-0.34740906953811646,-0.010652635246515274
1772649777478417700,7.746417724609375,0.24607586860656738,-0.19347849488258362,-0.1363537311553955
1772649777488422000,7.756421875,0.371244341135025,0.022770008072257042,-0.272707462310791
1772649777498426000,7.766426025390625,0.5006738305091858,0.06165212765336037,-0.42663803696632385
1772649777508430300,7.776430419921875,0.6173202395439148,-0.13382373750209808,-0.637560248374939
1772649777518434800,7.786434814453125,0.6732465624809265,-0.1375521570444107,-0.8026760816574097
1772649777528439000,7.79643896484375,0.7057371139526367,0.14740583300590515,-0.8239813446998596
1772649777538443300,7.806443359375,0.721716046333313,0.35087117552757263,-0.7824360728263855
1772649777548447500,7.816447509765625,0.7046718001365662,0.27843326330184937,-0.738760232925415
1772649777558451700,7.82645166015625,0.6258423328399658,0.1213068813085556,-0.6226465106010437
1772649777568456200,7.836456298828125,0.4852275252342224,0.11065424978733063,-0.3946801424026489
1772649777578461000,7.8464609375,0.3355579972267151,0.0552605465054512,-0.07190528512001038
1772649777588465400,7.85646533203125,0.2311621904373169,-0.11731214821338654,0.3051980137825012
1772649777598470000,7.866469970703125,0.15446321666240692,-0.24354587495326996,0.6625939011573792
1772649777608474400,7.876474365234375,0.1134505644440651,-0.3069290518760681,0.9358339905738831
1772649777618478800,7.886478759765625,0.0942758247256279,-0.3825627565383911,1.065796136856079
1772649777628483300,7.8964833984375,0.05432844161987305,-0.45713120698928833,1.031175136566162
1772649777638487800,7.90648779296875,-0.00852210819721222,-0.4528701603412628,0.8681897521018982
1772649777648492300,7.9164921875,-0.07882949709892273,-0.4022701382637024,0.6157222986221313
1772649777658496800,7.926496826171875,-0.13262531161308289,-0.2643185257911682,0.36432012915611267
1772649777668501500,7.93650146484375,-0.11185266822576523,-0.07789739221334457,0.15180005133152008
1772649777678505700,7.946505615234375,-0.10173266381025314,0.03555316850543022,-0.022903166711330414
1772649777688510500,7.956510498046875,-0.10279793292284012,0.0882837176322937,-0.16831164062023163
1772649777698515000,7.966514892578125,-0.0804273933172226,0.1868205964565277,-0.29827380180358887
1772649777708519400,7.97651953125,0.002130527049303055,0.6454165577888489,-0.1512674242258072
1772649777718524000,7.98652392578125,0.1315600425004959,1.7708674669265747,0.7653918266296387
1772649777728528400,7.9965283203125,-0.018642112612724304,2.372741460800171,2.4128217697143555
1772649777738532900,8.006532958984375,0.1656484752893448,-0.5796365141868591,2.5209460258483887
1772649777748537300,8.016537353515625,1.0620677471160889,-2.5109593868255615,0.9544761180877686
1772649777758541800,8.026541748046874,1.5552847385406494,-0.647280752658844,-0.24660851061344147
1772649777768546300,8.03654638671875,1.5190657377243042,0.5127912163734436,-0.164583221077919
1772649777778551000,8.046551025390626,0.6865623593330383,-0.19720691442489624,0.7488802671432495
1772649777788555500,8.056555419921875,-0.5651223063468933,-0.588691234588623,1.0423603057861328
1772649777798560000,8.06656005859375,-1.205345630645752,-0.8139944672584534,0.621048629283905
1772649777808564500,8.076564453125,-1.0407624244689941,-0.6414217948913574,0.10333056002855301
1772649777818569000,8.08656884765625,-0.8218508362770081,-0.2893522083759308,-0.21944428980350494
1772649777828573400,8.096573486328126,-0.6657897233963013,0.1255679428577423,-0.38402751088142395
1772649777838578000,8.106577880859374,-0.3307643234729767,0.32104378938674927,-0.46924859285354614
1772649777848582400,8.11658251953125,-0.011185267008841038,0.23582270741462708,-0.4287685751914978
1772649777858587100,8.126587158203124,0.13741900026798248,0.1591237336397171,-0.3153179883956909
1772649777868591600,8.136591552734375,0.14807163178920746,0.17883111536502838,-0.24447797238826752
1772649777878596000,8.14659619140625,0.04953475296497345,0.15752583742141724,-0.2780337929725647
1772649777888600600,8.1566005859375,-0.09640634804964066,0.06058686226606369,-0.39414751529693604
1772649777898605000,8.16660498046875,-0.23702113330364227,0.02010684832930565,-0.5129243731498718
1772649777908609500,8.176609619140624,-0.39787593483924866,0.03502053767442703,-0.5613938570022583
1772649777918614000,8.186614013671875,-0.6322339177131653,0.02330263890326023,-0.5363602042198181
1772649777928618500,8.196618408203125,-0.9006803035736084,-0.06671212613582611,-0.5028043985366821
1772649777938623000,8.206623046875,-1.0855035781860352,-0.18282584846019745,-0.49321702122688293
1772649777948627700,8.216627685546875,-1.137701392173767,-0.28189536929130554,-0.5395559668540955
1772649777958632200,8.226632080078126,-1.0641982555389404,-0.25313323736190796,-0.5747096538543701
1772649777968636700,8.23663671875,-0.9155939817428589,-0.048602648079395294,-0.5310338735580444
1772649777978641200,8.24664111328125,-0.7408908009529114,0.24594271183013916,-0.37390750646591187
1772649777988645600,8.256645751953124,-0.5566002130508423,0.4936164915561676,-0.16724637150764465
1772649777998650000,8.266650146484375,-0.3579285442829132,0.6310355067253113,0.030892642214894295
1772649778008654600,8.276654541015626,-0.16724637150764465,0.5820333361625671,0.17576847970485687
1772649778018659000,8.2866591796875,-0.0026631588116288185,0.410525918006897,0.28495800495147705
1772649778028663600,8.29666357421875,0.10226529836654663,0.18096163868904114,0.36112433671951294
1772649778038668300,8.306668212890624,0.1880190074443817,-0.0768321305513382,0.36059170961380005
1772649778048672800,8.3166728515625,0.31798115372657776,-0.2504700720310211,0.2684464156627655
1772649778058677200,8.32667724609375,0.48362964391708374,-0.33728906512260437,0.029827378690242767
1772649778068682000,8.336681884765625,0.6540718078613281,-0.46085962653160095,-0.3302316963672638
1772649778078686700,8.346686767578126,0.8021434545516968,-0.7127944827079773,-0.7073349952697754
1772649778088691500,8.35669140625,0.9038761258125305,-1.032906174659729,-0.9885645508766174
1772649778098696200,8.3666962890625,0.9779118895530701,-1.2102725505828857,-1.1313098669052124
1772649778108701000,8.376700927734374,1.0711225271224976,-1.0558092594146729,-1.1137330532073975
1772649778118705700,8.38670556640625,1.1190593242645264,-0.743687093257904,-0.9747161269187927
1772649778128710400,8.39671044921875,0.9960213899612427,-0.3585943281650543,-0.7025412917137146
1772649778138715100,8.406715087890625,0.6354296803474426,0.0414121188223362,-0.3211769461631775
1772649778148719900,8.416719970703125,0.272707462310791,0.17243953049182892,0.13102741539478302
1772649778158724400,8.426724365234374,0.08841687440872192,0.0030626326333731413,0.554469645023346
1772649778168729000,8.43672900390625,0.02077263966202736,-0.3037332594394684,0.8836361169815063
1772649778178733800,8.44673388671875,0.021837901324033737,-0.5599291324615479,1.0514150857925415
1772649778188738600,8.456738525390625,0.06551370769739151,-0.6206491589546204,0.994423508644104
1772649778198743300,8.466743408203126,0.09267792850732803,-0.6542049646377563,0.709465503692627
1772649778208748000,8.476748046875,0.06977476179599762,-0.6126596927642822,0.32863378524780273
1772649778218752800,8.486752685546875,0.05273054540157318,-0.4400869905948639,-0.01597895286977291
1772649778228757500,8.496757568359374,-0.01438105758279562,-0.22490376234054565,-0.2737727165222168
1772649778238762200,8.50676220703125,-0.11877688020467758,0.033955276012420654,-0.3595264256000519
1772649778248767000,8.51676708984375,-0.25140219926834106,0.3817638158798218,-0.2396842986345291
1772649778258771700,8.526771728515625,-0.306263267993927,0.8227829337120056,0.1597895324230194
1772649778268776400,8.5367763671875,-0.15180005133152008,1.5823158025741577,1.0295772552490234
1772649778278781200,8.54678125,-0.19174742698669434,2.178863286972046,2.3478407859802246
1772649778288786000,8.556785888671875,-0.5395559668540955,-0.6456828713417053,2.3233397006988525
1772649778298790700,8.566790771484374,-0.3494064211845398,-2.8140268325805664,0.8085350394248962
1772649778308795400,8.57679541015625,-0.04474106803536415,-1.2283819913864136,-0.5587307214736938
1772649778318800100,8.586800048828126,0.3339601159095764,0.8568713665008545,-0.8474171161651611
1772649778328804900,8.596804931640625,0.2865558862686157,0.7237133979797363,-0.4751075208187103
1772649778338809600,8.6068095703125,-0.12516845762729645,0.03342264145612717,-0.04527369886636734
1772649778348814000,8.61681396484375,-0.28016430139541626,-0.007590002380311489,0.14327794313430786
1772649778358818800,8.62681884765625,-0.3057306408882141,0.3295659124851227,-0.03675159066915512
1772649778368823600,8.636823486328124,-0.17363795638084412,0.27044376730918884,-0.3302316963672638
1772649778378828300,8.646828369140625,-0.002130527049303055,0.20706059038639069,-0.4559327960014343
1772649778388833000,8.6568330078125,0.08096002787351608,0.3950796127319336,-0.3717769682407379
1772649778398837800,8.666837646484375,0.059654757380485535,0.619850218296051,-0.1081242486834526
1772649778408842500,8.676842529296875,0.02077263966202736,0.6427533626556396,0.141680046916008
1772649778418847200,8.68684716796875,-0.03568632900714874,0.46272385120391846,0.2024000734090805
1772649778428852000,8.69685205078125,-0.11664635688066483,0.14580795168876648,0.09267792850732803
1772649778438856700,8.706856689453126,-0.22423797845840454,-0.21052271127700806,-0.0990695059299469
1772649778448861400,8.716861328125,-0.3355579972267151,-0.3889543414115906,-0.306263267993927
1772649778458866200,8.7268662109375,-0.38882118463516235,-0.43316277861595154,-0.4436822533607483
1772649778468871000,8.736870849609375,-0.38828855752944946,-0.39587855339050293,-0.44101908802986145
1772649778478875600,8.746875732421875,-0.3584611713886261,-0.31012484431266785,-0.32384011149406433
1772649778488880400,8.75688037109375,-0.33822116255760193,-0.2233058661222458,-0.1459411084651947
1772649778498885000,8.766885009765625,-0.3872233033180237,-0.1998700648546219,0.02503369376063347
1772649778508889900,8.776889892578126,-0.5044022798538208,-0.30053746700286865,0.13582110404968262
1772649778518894600,8.78689453125,-0.6274402141571045,-0.4523375332355499,0.21784639358520508
1772649778528899300,8.7968994140625,-0.6833665370941162,-0.5141227841377258,0.28549063205718994
1772649778538903800,8.80690380859375,-0.6588655114173889,-0.4779038429260254,0.3201116919517517
1772649778548908500,8.816908447265625,-0.575242280960083,-0.40919435024261475,0.33182957768440247
1772649778558913300,8.826913330078124,-0.4612590968608856,-0.32503852248191833,0.33822116255760193
1772649778568918000,8.83691796875,-0.3350253701210022,-0.2270342856645584,0.3536674976348877
1772649778578922800,8.8469228515625,-0.20879164338111877,-0.13488899171352386,0.36432012915611267
1772649778588927500,8.856927490234375,-0.13369056582450867,-0.09600687772035599,0.358993798494339
1772649778598932200,8.86693212890625,-0.10066740214824677,-0.07789739221334457,0.3526022136211395
1772649778608936700,8.876936767578124,-0.06711160391569138,-0.06671212613582611,0.31851378083229065
1772649778618941400,8.88694140625,-0.03355580195784569,-0.06777739524841309,0.2695116698741913
1772649778628946200,8.8969462890625,-0.007456844672560692,-0.08695213496685028,0.22796639800071716
1772649778638951000,8.906950927734375,-0.010652635246515274,-0.1524658352136612,0.20932428538799286
1772649778648955400,8.916955322265625,-0.04580633342266083,-0.2808300852775574,0.21038953959941864
1772649778658960100,8.926960205078124,-0.09161266684532166,-0.39428067207336426,0.23329271376132965
1772649778668964900,8.93696484375,-0.1411474198102951,-0.4406196177005768,0.283360093832016
1772649778678969600,8.946969482421874,-0.19547586143016815,-0.43742382526397705,0.3435474932193756
1772649778688974300,8.956974365234375,-0.23915165662765503,-0.4496743679046631,0.4042675197124481
1772649778698978800,8.966978759765626,-0.26098957657814026,-0.5194491147994995,0.44101908802986145
1772649778708983600,8.976983642578125,-0.26258745789527893,-0.6238449811935425,0.4479433000087738
1772649778718988300,8.98698828125,-0.240216925740242,-0.7463502287864685,0.44581279158592224
1772649778728993000,8.996992919921874,-0.20612849295139313,-0.886432409286499,0.4431496262550354
1772649778738997500,9.00699755859375,-0.1938779652118683,-1.0744514465332031,0.4447475075721741
1772649778749002200,9.017002197265626,-0.2162484973669052,-1.2970914840698242,0.4564654231071472
1772649778759007000,9.027007080078125,-0.2551306188106537,-1.4707294702529907,0.4793685972690582
1772649778769011700,9.03701171875,-0.2780337929725647,-1.5282536745071411,0.5044022798538208
1772649778779016400,9.047016357421874,-0.2838927209377289,-1.452620029449463,0.5145222544670105
1772649778789021000,9.05702099609375,-0.2684464156627655,-1.2912325859069824,0.5273054242134094
1772649778799025700,9.067025634765624,-0.2029327005147934,-1.125051498413086,0.5278380513191223
1772649778809030400,9.077030517578125,-0.03621895983815193,-1.1266493797302246,0.6854971051216125
1772649778819035100,9.08703515625,0.07669897377490997,-1.066994547843933,0.8484823703765869
1772649778829039900,9.097039794921875,0.03621895983815193,-0.7676555514335632,0.6439517736434937
1772649778839044400,9.10704443359375,0.05326317623257637,-0.823581874370575,0.5619264841079712
1772649778849049000,9.117049072265624,0.04420843720436096,-0.7910913228988647,0.5171854496002197
1772649778859053800,9.1270537109375,-0.03621895983815193,-0.6456828713417053,0.42237699031829834
1772649778869058600,9.13705859375,-0.09853687882423401,-0.5285038948059082,0.29827380180358887
1772649778879063000,9.14706298828125,-0.11025477200746536,-0.4677838385105133,0.17789900302886963
1772649778889067800,9.15706787109375,-0.11824425309896469,-0.45659857988357544,0.12410320341587067
1772649778899072500,9.167072509765624,-0.1225053071975708,-0.4539354145526886,0.12144003808498383
1772649778909077200,9.1770771484375,-0.13422320783138275,-0.43689119815826416,0.11504846066236496
1772649778919081700,9.187081787109374,-0.12996214628219604,-0.43689119815826416,0.0894821360707283
1772649778929086500,9.19708642578125,-0.11877688020467758,-0.42197751998901367,0.0330231711268425
1772649778939091200,9.20709130859375,-0.11558109521865845,-0.39960697293281555,-0.015446321107447147
1772649778949096000,9.217095947265625,-0.12357056885957718,-0.40013960003852844,-0.02876211516559124
1772649778959100700,9.2271005859375,-0.12942951917648315,-0.3319627344608307,-0.04048001393675804
1772649778969105400,9.23710546875,-0.14913690090179443,-0.318114310503006,-0.05805686116218567
1772649778979110000,9.24710986328125,-0.1656484752893448,-0.32397326827049255,-0.022370534017682076
1772649778989114600,9.257114501953126,-0.16298532485961914,-0.27763429284095764,0.039414748549461365
1772649778999119400,9.267119384765625,-0.18695375323295593,-0.254731148481369,0.10120003670454025
1772649779009124000,9.2771240234375,-0.21997691690921783,-0.24727429449558258,0.16405057907104492
1772649779019128600,9.287128662109374,-0.2359558641910553,-0.23928481340408325,0.1832253336906433
1772649779029133300,9.29713330078125,-0.260456919670105,-0.2563290297985077,0.1699095368385315
1772649779039138000,9.307137939453124,-0.26205483078956604,-0.26272061467170715,0.12889689207077026
1772649779049142800,9.317142822265625,-0.24660851061344147,-0.2515353560447693,0.07350318133831024
1772649779059147300,9.327147216796876,-0.21092218160629272,-0.21957744657993317,0.012250530533492565
1772649779069152000,9.337152099609375,-0.18162743747234344,-0.20040270686149597,-0.009587371721863747
1772649779079156500,9.347156494140625,-0.10173266381025314,-0.13169319927692413,-0.026631588116288185
1772649779089161200,9.3571611328125,-0.03355580195784569,-0.05978791415691376,-0.05326317623257637
1772649779099165700,9.367165771484375,-0.003195790573954582,-0.023568956181406975,-0.035153694450855255
1772649779109170400,9.37717041015625,0.021305270493030548,-0.032091062515974045,0.08841687440872192
1772649779119175000,9.3871748046875,0.035153694450855255,0.07123950123786926,0.03834948688745499
1772649779129179600,9.3971796875,0.029294747859239578,0.05206475406885147,-0.012783162295818329
1772649779139184000,9.40718408203125,0.026631588116288185,0.025965798646211624,-0.02876211516559124
1772649779149188900,9.41718896484375,-0.002130527049303055,-0.06884265691041946,0.026098955422639847
1772649779159193300,9.427193359375,-0.012783162295818329,-0.17803215980529785,0.11451582610607147
1772649779169197800,9.43719775390625,0.0005326317623257637,-0.2371542900800705,0.16405057907104492
1772649779179202600,9.44720263671875,0.010652635246515274,-0.26165536046028137,0.1938779652118683
1772649779189207000,9.45720703125,-0.02450106106698513,-0.2643185257911682,0.16618111729621887
1772649779199211800,9.467211669921875,-0.08309055864810944,-0.15992268919944763,0.021305270493030548
1772649779209216300,9.47721630859375,-0.08681897819042206,-0.19188059866428375,-0.043675802648067474
1772649779219221000,9.487220947265625,-0.09374319016933441,-0.26272061467170715,-0.002130527049303055
1772649779229225500,9.4972255859375,-0.0894821360707283,-0.2877542972564697,0.050600018352270126
1772649779239230200,9.507230224609375,-0.07350318133831024,-0.24035008251667023,0.013848425820469856
1772649779249234700,9.517234619140625,-0.06072001904249191,-0.21425113081932068,-0.04474106803536415
1772649779259239200,9.5272392578125,-0.05379580706357956,-0.21584902703762054,-0.06178528442978859
1772649779269244000,9.537243896484375,-0.04154527932405472,-0.2131858617067337,-0.0612526535987854
1772649779279248400,9.547248291015626,-0.03568632900714874,-0.20999006927013397,-0.05432844161987305
1772649779289253000,9.557253173828125,-0.026631588116288185,-0.22490376234054565,-0.043143171817064285
1772649779299257600,9.567257568359375,-0.006924212910234928,-0.22117534279823303,-0.042610540986061096
1772649779309262300,9.577262451171874,-0.005858949385583401,-0.15299847722053528,-0.059122126549482346
1772649779319266800,9.587266845703125,-0.011717898771166801,-0.12476898729801178,-0.051665280014276505
1772649779329271600,9.597271484375,-0.018109479919075966,-0.12530162930488586,-0.018642112612724304
1772649779339276000,9.607276123046875,-0.02450106106698513,-0.12263846397399902,0.011717898771166801
1772649779349280800,9.61728076171875,-0.029827378690242767,-0.12636688351631165,0.04154527932405472
1772649779359285200,9.62728515625,-0.03249053657054901,-0.11518161743879318,0.06977476179599762
1772649779369290000,9.6372900390625,-0.0330231711268425,-0.08801739662885666,0.06711160391569138
1772649779379294500,9.64729443359375,-0.04580633342266083,-0.06191844120621681,0.04207791015505791
1772649779389299200,9.65729931640625,-0.05379580706357956,-0.04913527891039848,0.0005326317623257637
1772649779399303700,9.6673037109375,-0.06391581147909164,-0.09227845072746277,0.0282294824719429
1772649779409308200,9.67730810546875,-0.0756337121129036,-0.0762995034456253,0.02876211516559124
1772649779419313000,9.68731298828125,-0.05432844161987305,-0.0390152782201767,-0.05379580706357956
1772649779429317400,9.6973173828125,-0.04846949130296707,-0.07949528843164444,-0.035153694450855255
1772649779439322000,9.707322021484375,-0.05273054540157318,-0.1284974068403244,0.047936856746673584
1772649779449326600,9.71732666015625,-0.0330231711268425,-0.09440898150205612,0.046871595084667206
1772649779459331300,9.727331298828124,-0.01597895286977291,-0.0768321305513382,0.005858949385583401
1772649779469335800,9.737335693359375,-0.011717898771166801,-0.0762995034456253,-0.013315794058144093
1772649779479340500,9.747340576171876,-0.004793685860931873,-0.06777739524841309,-0.023968428373336792
1772649779489345000,9.757344970703125,0.006924212910234928,-0.0624510757625103,-0.030892642214894295
1772649779499349800,9.767349853515626,0.019707374274730682,-0.05126580595970154,-0.03675159066915512
1772649779509354200,9.777354248046874,0.02450106106698513,-0.032091062515974045,-0.03568632900714874
1772649779519358700,9.787358642578125,0.03249053657054901,-0.015579478815197945,-0.0378168560564518
1772649779529363500,9.797363525390624,0.03834948688745499,-0.00918789766728878,-0.04101264476776123
1772649779539368000,9.807367919921875,0.04420843720436096,0.001997369108721614,-0.04900212213397026
1772649779549372700,9.81737255859375,0.047936856746673584,0.013715268112719059,-0.05805686116218567
1772649779559377200,9.827377197265625,0.04846949130296707,0.020639481022953987,-0.0564589649438858
1772649779569381600,9.837381591796875,0.043143171817064285,0.02010684832930565,-0.042610540986061096
1772649779579386000,9.84738623046875,0.0378168560564518,0.01531316339969635,-0.029294747859239578
1772649779589390300,9.857390380859375,0.03568632900714874,0.008921582251787186,-0.019707374274730682
1772649779599394800,9.867394775390625,0.029827378690242767,-0.008122634142637253,-0.006391581147909164
1772649779609399300,9.8773994140625,0.03195790573954582,-0.024634219706058502,0.018642112612724304
1772649779619403800,9.88740380859375,0.0378168560564518,-0.014514215290546417,0.02450106106698513
1772649779629408000,9.897407958984376,0.03728422522544861,-0.008655265904963017,0.003195790573954582
1772649779639412500,9.90741259765625,0.0330231711268425,-0.019840532913804054,0.010652635246515274
1772649779649417000,9.9174169921875,0.0282294824719429,-0.024634219706058502,0.011185267008841038
1772649779659421400,9.92742138671875,0.022903166711330414,-0.032091062515974045,0.012250530533492565
1772649779669425700,9.93742578125,0.01704421639442444,-0.0294279046356678,-0.0010652635246515274
1772649779679430100,9.94743017578125,0.01597895286977291,-0.027830010280013084,-0.02450106106698513
1772649779689434600,9.9574345703125,0.022903166711330414,-0.03475422412157059,-0.0282294824719429
1772649779699439000,9.967439208984375,0.03195790573954582,-0.051798440515995026,-0.007456844672560692
1772649779709443600,9.977443603515624,0.03621895983815193,-0.04913527891039848,-0.006391581147909164
