time,seconds_elapsed,z,y,x
1772649701258140400,0.297140380859375,0.2014792561531067,0.0628061294555664,-0.03634309768676758
1772649701278149000,0.317149169921875,0.3259025812149048,-0.19684219360351562,0.03692054748535156
1772649701298157600,0.337157470703125,0.15665514767169952,-0.16149044036865234,0.05830419063568115
1772649701318166000,0.357166015625,-0.15767842531204224,0.1480388641357422,0.01138448715209961
1772649701338174500,0.377174560546875,0.13053034245967865,0.5583534240722656,-0.2088090181350708
1772649701358183200,0.39718310546875,-0.14095984399318695,0.9350986480712891,-0.37919938564300537
1772649701378191600,0.417191650390625,-0.1511966586112976,1.574167251586914,-0.5156463384628296
1772649701398200000,0.437199951171875,0.1504753828048706,2.4641566276550293,-0.40279555320739746
1772649701418208800,0.457208740234375,0.15841495990753174,2.9541964530944824,-0.1581031084060669
1772649701438217200,0.47721728515625,0.39765533804893494,3.244570255279541,-0.050214171409606934
1772649701458225700,0.4972255859375,0.5077332258224487,2.933746814727783,0.10397684574127197
1772649701478234000,0.517234130859375,0.08094942569732666,2.2688841819763184,0.5853245258331299
1772649701498242600,0.53724267578125,-1.0094528198242188,1.6878342628479004,0.8573630452156067
1772649701518251300,0.557251220703125,-1.5375754833221436,1.720029354095459,0.6422322988510132
1772649701538259700,0.577259765625,-0.917425274848938,1.968493938446045,1.4064340591430664
1772649701558268200,0.59726806640625,0.5301826000213623,2.1955628395080566,1.4828922748565674
1772649701578277000,0.617277099609375,1.0991497039794922,1.5592470169067383,0.1762925386428833
1772649701598286000,0.6372861328125,2.130086660385132,-1.5989294052124023,-0.1184607744216919
1772649701618295000,0.657294921875,2.4891438484191895,-5.259908676147461,-0.32993030548095703
1772649701638304000,0.677303955078125,-0.36982250213623047,-7.078560829162598,-0.7918142080307007
1772649701658313000,0.69731298828125,-0.8151923418045044,-5.9466447830200195,-1.1355621814727783
1772649701678322000,0.717322021484375,0.5838397741317749,-8.334611892700195,-1.3549002408981323
1772649701698331000,0.737330810546875,0.7689429521560669,-10.09640884399414,-2.590597629547119
1772649701718339800,0.75733984375,1.0922117233276367,-10.336255073547363,-2.8051934242248535
1772649701738348800,0.777348876953125,1.633724570274353,-9.11408805847168,-2.064161777496338
1772649701758357800,0.797357666015625,1.2599291801452637,-8.14030647277832,-1.1667145490646362
1772649701778366700,0.81736669921875,0.9442019462585449,-7.401094436645508,-0.2985938787460327
1772649701798375700,0.837375732421875,0.4191584587097168,-6.301057815551758,-0.04678940773010254
1772649701818384600,0.857384521484375,-0.4580644965171814,-4.47354793548584,-0.3148287534713745
1772649701838393600,0.8773935546875,-1.2879984378814697,-1.7526426315307617,-0.7184857130050659
1772649701858402600,0.897402587890625,-1.5561401844024658,0.6895761489868164,0.2848699688911438
1772649701878411500,0.91741162109375,-0.7667202353477478,4.22157096862793,-0.5337580442428589
1772649701898420500,0.93742041015625,-0.9710268974304199,7.036187648773193,-1.0587133169174194
1772649701918429400,0.957429443359375,-1.0344361066818237,9.691302299499512,-1.8092116117477417
1772649701938438100,0.977438232421875,-0.7076946496963501,11.840662002563477,-2.3986051082611084
1772649701958447000,0.997447021484375,-0.1545979082584381,13.455331802368164,-2.1826066970825195
1772649701978456000,1.0174560546875,-1.1620311737060547,13.312807083129883,-0.5973142385482788
1772649701998465000,1.037465087890625,-1.3566339015960693,12.020465850830078,-0.18005871772766113
1772649702018474000,1.057473876953125,-0.8240991830825806,10.471364974975586,0.9251280426979065
1772649702038483000,1.07748291015625,-0.26691165566444397,9.493815422058105,1.7104170322418213
1772649702058492000,1.097491943359375,0.38938599824905396,8.598892211914062,2.0740504264831543
1772649702078500400,1.117500244140625,0.5123949646949768,8.597752571105957,1.775228500366211
1772649702098509000,1.137509033203125,-0.09729108214378357,8.91993522644043,1.310645580291748
1772649702118517500,1.157517578125,0.8855845928192139,7.793619632720947,0.19106650352478027
1772649702138526200,1.177526123046875,2.663709878921509,3.404541492462158,-2.894670248031616
1772649702158534700,1.19753466796875,7.80183219909668,-11.965752601623535,-7.779570579528809
1772649702178543000,1.217543212890625,-13.036407470703125,-16.870126724243164,-0.33880484104156494
1772649702198551800,1.2375517578125,7.647416591644287,-19.131610870361328,0.02422165870666504
1772649702218560300,1.257560302734375,1.428623080253601,-14.63565444946289,0.7267369627952576
1772649702238569000,1.27756884765625,4.350512504577637,-13.837601661682129,1.6884344816207886
1772649702258577400,1.297577392578125,1.2238277196884155,-11.422032356262207,0.055716633796691895
1772649702278585900,1.3175859375,0.891547679901123,-12.19092845916748,0.31010740995407104
1772649702298594600,1.337594482421875,2.487839460372925,-11.133262634277344,1.7511541843414307
1772649702318603000,1.35760302734375,2.195220470428467,-9.22834587097168,1.15261709690094
1772649702338611700,1.37761181640625,0.24827176332473755,-7.1735382080078125,0.008305132389068604
1772649702358620200,1.3976201171875,-0.6978748440742493,-4.385283470153809,-0.87325119972229
1772649702378628600,1.417628662109375,-1.081989049911499,-1.7524948120117188,-1.1572339534759521
1772649702398637300,1.43763720703125,-0.7142413854598999,1.2254972457885742,-1.4344158172607422
1772649702418645800,1.457645751953125,-0.8809583783149719,5.2933573722839355,-1.9623830318450928
1772649702438654500,1.477654541015625,-0.718182384967804,9.115479469299316,-2.599761724472046
1772649702458663000,1.497662841796875,-0.5652554035186768,12.247089385986328,-3.1307179927825928
1772649702478671400,1.51767138671875,-1.6874325275421143,13.286775588989258,-3.1507468223571777
1772649702498680000,1.53768017578125,-3.113208055496216,13.279044151306152,-1.880509376525879
1772649702518688500,1.5576884765625,-1.9998576641082764,13.242730140686035,-0.5851627588272095
1772649702538697200,1.577697265625,-0.10646209865808487,13.508868217468262,-0.6299608945846558
1772649702558705700,1.59770556640625,-0.08837442845106125,12.996480941772461,-0.11597561836242676
1772649702578713900,1.6177138671875,-0.1968858540058136,8.436136245727539,1.2136077880859375
1772649702598722000,1.63772216796875,1.4112353324890137,6.6936540603637695,1.5598728656768799
1772649702618730200,1.657730224609375,0.504988431930542,8.31495475769043,1.1486796140670776
1772649702638738400,1.677738525390625,-0.19086989760398865,9.956521034240723,1.0815675258636475
1772649702658747000,1.697746826171875,-0.6409083604812622,8.725637435913086,-0.4697367250919342
1772649702678755000,1.717755126953125,0.6742749214172363,4.827741622924805,-3.153588056564331
1772649702698763300,1.73776318359375,10.089399337768555,-11.333824157714844,-2.0310001373291016
1772649702718771500,1.757771484375,-7.786757469177246,-14.71642017364502,3.3715009689331055
1772649702738779600,1.777779541015625,0.3998628854751587,-18.59524154663086,-0.8670068979263306
1772649702758787800,1.797787841796875,1.937983751296997,-20.025440216064453,2.159604072570801
1772649702778796300,1.81779638671875,1.2395920753479004,-11.510560989379883,1.8716760873794556
1772649702798804500,1.837804443359375,3.527817726135254,-8.894396781921387,2.5506250858306885
1772649702818812700,1.857812744140625,3.767639636993408,-11.0675687789917,2.131441593170166
1772649702838820900,1.87782080078125,4.491315841674805,-11.019194602966309,3.1025166511535645
1772649702858829000,1.8978291015625,1.9712274074554443,-10.057119369506836,2.0252575874328613
1772649702878837200,1.917837158203125,0.15867233276367188,-7.584814071655273,-0.05931580066680908
1772649702898845700,1.937845703125,-0.5877590179443359,-6.217998504638672,-0.5457919239997864
1772649702918854000,1.95785400390625,-0.4129101634025574,-5.320634841918945,-0.7174303531646729
1772649702938862000,1.977862060546875,0.001955270767211914,-3.002552032470703,-0.9612299799919128
1772649702958870300,1.997870361328125,-0.11993980407714844,-0.5021553039550781,-0.9010659456253052
1772649702978878500,2.01787841796875,-0.27508944272994995,2.546215534210205,-0.7508858442306519
1772649702998886700,2.03788671875,-0.23789039254188538,5.458540439605713,-0.365031361579895
1772649703018895000,2.05789501953125,-0.4341171681880951,8.204085350036621,-0.535868763923645
1772649703038903300,2.0779033203125,-0.6297760605812073,10.893579483032227,-1.2672902345657349
1772649703058911200,2.0979111328125,-0.9102715849876404,12.64663314819336,-1.4202589988708496
1772649703078919200,2.117919189453125,-0.8706550002098083,13.102572441101074,-1.6358686685562134
1772649703098926800,2.1379267578125,-0.429531067609787,13.54238510131836,-1.2002151012420654
1772649703118934500,2.1579345703125,-0.10126817226409912,13.897893905639648,-0.5013517141342163
1772649703138942500,2.1779423828125,-0.0765235424041748,13.113971710205078,0.3899758458137512
1772649703158950100,2.1979501953125,-0.048846423625946045,8.511676788330078,1.2642717361450195
1772649703178958000,2.2179580078125,1.1602684259414673,6.802722930908203,1.7884461879730225
1772649703198965800,2.2379658203125,0.32317182421684265,7.441213130950928,0.6749081015586853
1772649703218973400,2.257973388671875,-0.7528879046440125,7.529221057891846,-0.7727843523025513
1772649703238981000,2.277981201171875,1.9540281295776367,4.480710029602051,-4.271376609802246
1772649703258989000,2.297989013671875,7.366054058074951,-9.681957244873047,-7.281247138977051
1772649703278996700,2.317996826171875,-7.607454299926758,-17.085433959960938,-4.071261405944824
1772649703299004400,2.33800439453125,-4.953115940093994,-11.703255653381348,5.174203395843506
1772649703319012400,2.358012451171875,1.6694252490997314,-7.600648880004883,3.6809043884277344
1772649703339020000,2.37802001953125,7.8372802734375,-13.33223819732666,4.079219818115234
1772649703359028000,2.398028076171875,5.1865057945251465,-16.736284255981445,1.6164259910583496
1772649703379035600,2.41803564453125,-0.9394958019256592,-13.427255630493164,1.9576375484466553
1772649703399043300,2.438043212890625,-0.014994263648986816,-12.067567825317383,2.797086477279663
1772649703419051300,2.45805126953125,-0.10186240077018738,-11.823238372802734,2.308720111846924
1772649703439059000,2.478058837890625,0.18637394905090332,-8.742877006530762,-0.34359145164489746
1772649703459066600,2.498066650390625,0.38049250841140747,-6.460443496704102,-2.177104949951172
1772649703479074600,2.518074462890625,0.3088643550872803,-4.118284225463867,-2.4103810787200928
1772649703499082200,2.538082275390625,0.01553366333246231,-1.0136470794677734,-1.0364279747009277
1772649703519090000,2.55808984375,0.5547114014625549,2.6086363792419434,-0.5138002634048462
1772649703539097900,2.578097900390625,-0.15984593331813812,6.032341003417969,-0.7714031934738159
1772649703559105500,2.59810546875,-0.6976708173751831,9.47921371459961,-0.9818785786628723
1772649703579113500,2.618113525390625,-0.7369926571846008,12.412819862365723,-1.4423625469207764
1772649703599121400,2.638121337890625,-0.3688969612121582,13.784866333007812,-2.3290395736694336
1772649703619129300,2.65812939453125,-0.7627624869346619,13.791325569152832,-2.3164024353027344
1772649703639137300,2.67813720703125,-0.7052815556526184,13.446338653564453,-1.3694345951080322
1772649703659145500,2.6981455078125,-0.057236313819885254,13.582870483398438,-0.8101157546043396
1772649703679153400,2.7181533203125,-1.0640575885772705,10.66960334777832,0.006082713603973389
1772649703699161300,2.738161376953125,0.284707248210907,7.661497116088867,1.1076769828796387
1772649703719169300,2.758169189453125,0.9034115076065063,7.217733860015869,1.2436035871505737
1772649703739177200,2.77817724609375,0.45800670981407166,8.761360168457031,0.805749773979187
1772649703759185200,2.79818505859375,-0.3304964005947113,9.749533653259277,-0.4113095998764038
1772649703779193300,2.818193359375,-0.44747641682624817,8.748127937316895,-2.1885223388671875
1772649703799201300,2.838201171875,2.333786964416504,3.769599437713623,-5.067381858825684
1772649703819209200,2.858209228515625,7.266879558563232,-14.152685165405273,-3.171903610229492
1772649703839217200,2.878217041015625,-6.947104454040527,-18.171920776367188,3.5352163314819336
1772649703859225000,2.89822509765625,-0.6126059293746948,-19.75096321105957,4.579445838928223
1772649703879233000,2.91823291015625,5.902486801147461,-20.054929733276367,6.27960205078125
1772649703899241000,2.938240966796875,3.075965404510498,-13.268599510192871,1.0229849815368652
1772649703919249000,2.958248779296875,1.05845046043396,-12.971076965332031,1.648176670074463
1772649703939257000,2.978257080078125,0.6840866804122925,-15.62899398803711,3.0238595008850098
1772649703959265000,2.99826513671875,1.215526819229126,-13.896514892578125,3.366136074066162
1772649703979273000,3.01827294921875,0.9058605432510376,-11.213456153869629,1.6270804405212402
1772649703999281000,3.038281005859375,-0.013023078441619873,-7.335925102233887,-0.7188157439231873
1772649704019288800,3.058288818359375,-0.9307767152786255,-3.284579277038574,-1.785517692565918
1772649704039296800,3.078296875,-0.11032989621162415,0.7626876831054688,-2.4463675022125244
1772649704059305000,3.098304931640625,1.670182228088379,4.340529441833496,-2.8061017990112305
1772649704079313400,3.1183134765625,0.4859050214290619,7.7705535888671875,-3.369943618774414
1772649704099321900,3.13832177734375,-0.660466730594635,11.129443168640137,-3.326549768447876
1772649704119330300,3.158330322265625,-1.9380236864089966,12.672684669494629,-3.33879017829895
1772649704139338800,3.1783388671875,-2.037330150604248,12.909950256347656,-3.28287410736084
1772649704159347200,3.19834716796875,-3.266603946685791,13.119148254394531,-2.674553871154785
1772649704179356000,3.21835595703125,-2.8350768089294434,13.115328788757324,-1.7119269371032715
1772649704199364000,3.238364013671875,-0.33676379919052124,13.008237838745117,-1.1674246788024902
1772649704219372800,3.258372802734375,1.634147047996521,11.272525787353516,0.3967421054840088
1772649704239381200,3.27838134765625,0.9727941751480103,7.807174205780029,1.0754570960998535
1772649704259389700,3.2983896484375,1.6607210636138916,6.632806301116943,1.2054593563079834
1772649704279398100,3.318398193359375,0.9595018625259399,7.580021858215332,1.6104719638824463
1772649704299406600,3.338406494140625,0.18202418088912964,9.913228988647461,0.8426350951194763
1772649704319415000,3.3584150390625,-0.041826486587524414,9.879897117614746,-0.5101609230041504
1772649704339423500,3.378423583984375,0.1531188189983368,6.674580097198486,-1.7604014873504639
1772649704359432000,3.398431884765625,4.961071491241455,-3.4748611450195312,-4.068102836608887
1772649704379440400,3.4184404296875,2.591778516769409,-21.846820831298828,1.497957468032837
1772649704399448800,3.43844873046875,-6.668797969818115,-21.697229385375977,2.251478910446167
1772649704419457300,3.458457275390625,5.0756516456604,-17.689125061035156,3.96378493309021
1772649704439466000,3.478466064453125,3.777742385864258,-17.162025451660156,4.92129373550415
1772649704459474400,3.498474365234375,2.725747585296631,-13.043665885925293,0.19894373416900635
1772649704479483000,3.51848291015625,1.6262142658233643,-12.828217506408691,0.22307759523391724
1772649704499491300,3.5384912109375,1.5560996532440186,-13.039121627807617,2.2720022201538086
1772649704519499800,3.558499755859375,1.4684454202651978,-12.84717082977295,3.0882561206817627
1772649704539508200,3.57850830078125,0.040581077337265015,-9.618559837341309,0.6954882144927979
1772649704559516700,3.5985166015625,-0.23701724410057068,-6.370131492614746,-0.9349890351295471
1772649704579525600,3.618525634765625,-0.9028579592704773,-2.5435829162597656,-1.7778629064559937
1772649704599534300,3.638534423828125,-0.030029941350221634,2.188162326812744,-2.027129650115967
1772649704619543300,3.658543212890625,0.527794361114502,6.037656307220459,-2.5261526107788086
1772649704639552000,3.678552001953125,0.3132970929145813,9.388224601745605,-3.2085390090942383
1772649704659561000,3.69856103515625,-0.801112174987793,11.963571548461914,-2.7181079387664795
1772649704679569700,3.718569580078125,-0.12782834470272064,12.793960571289062,-2.7311720848083496
1772649704699578600,3.73857861328125,-0.42254573106765747,13.375808715820312,-3.023979902267456
1772649704719587300,3.75858740234375,-2.866596221923828,13.540379524230957,-2.3290607929229736
1772649704739596300,3.77859619140625,-2.1801960468292236,13.557552337646484,-1.2824996709823608
1772649704759605000,3.79860498046875,0.7213598489761353,12.862146377563477,-0.5181789398193359
1772649704779614000,3.818614013671875,0.7204234004020691,8.749479293823242,0.5195060968399048
1772649704799622700,3.83862255859375,0.5352378487586975,7.068589687347412,1.0230803489685059
1772649704819631600,3.858631591796875,0.40331655740737915,7.767727851867676,0.19762474298477173
1772649704839640300,3.878640380859375,-0.31052064895629883,9.246188163757324,-0.6762138605117798
1772649704859649300,3.898649169921875,-1.098398208618164,9.558995246887207,-1.8560222387313843
1772649704879658000,3.918657958984375,-1.1115679740905762,7.457529067993164,-2.993950128555298
1772649704899667000,3.9386669921875,5.3490519523620605,-0.1884622573852539,-4.098162651062012
1772649704919675600,3.958675537109375,5.446154594421387,-20.95819854736328,-1.6997082233428955
1772649704939684600,3.9786845703125,-6.325594902038574,-25.85396957397461,3.84915828704834
1772649704959693300,3.998693359375,-0.5881857872009277,-19.407527923583984,6.066653728485107
1772649704979702300,4.018702392578125,5.257504463195801,-13.324515342712402,4.388754844665527
1772649704999711000,4.0387109375,4.844533920288086,-13.046329498291016,-0.2597450315952301
1772649705019720000,4.058719970703125,1.1080799102783203,-16.280616760253906,1.2634060382843018
1772649705039728600,4.078728759765625,-1.4757583141326904,-12.626008033752441,2.7177367210388184
1772649705059737900,4.09873779296875,-1.2284646034240723,-10.150633811950684,2.4504523277282715
1772649705079747600,4.11874755859375,-0.905264675617218,-8.17442798614502,0.7234718203544617
1772649705099757600,4.138757568359375,-0.241103395819664,-5.194022178649902,-0.6995140910148621
1772649705119767600,4.158767578125,-0.44052207469940186,-0.7892541885375977,-1.877800703048706
1772649705139777500,4.178777587890625,0.5815247893333435,4.691210746765137,-2.5851359367370605
1772649705159787300,4.198787353515625,1.1594247817993164,8.852672576904297,-2.9195058345794678
1772649705179797200,4.21879736328125,0.09499251842498779,12.009021759033203,-2.61692476272583
1772649705199807200,4.23880712890625,0.27940911054611206,13.399832725524902,-2.585026502609253
1772649705219817000,4.25881689453125,0.006547391414642334,13.901939392089844,-3.111849308013916
1772649705239827000,4.278826904296875,-1.8911330699920654,14.065519332885742,-2.4330854415893555
1772649705259837000,4.2988369140625,-1.9116462469100952,14.391820907592773,-1.7162327766418457
1772649705279846700,4.3188466796875,-0.3803582787513733,11.882951736450195,0.4415835440158844
1772649705299856600,4.338856689453125,0.6668970584869385,8.047161102294922,0.9826337099075317
1772649705319866600,4.35886669921875,0.026181936264038086,7.330016136169434,1.062178134918213
1772649705339876400,4.37887646484375,-0.01873120665550232,8.426534652709961,0.9295843839645386
1772649705359886300,4.39888623046875,0.7301955223083496,9.847892761230469,0.16615766286849976
1772649705379896300,4.418896240234375,0.3289879858493805,9.682296752929688,-0.8316860198974609
1772649705399906000,4.438906005859375,0.2013186663389206,8.400087356567383,-1.7354152202606201
1772649705419916000,4.458916015625,1.228817343711853,4.233490467071533,-3.7655701637268066
1772649705439926000,4.478926025390625,9.513354301452637,-12.747446060180664,-1.3820078372955322
1772649705459935700,4.498935791015625,-7.430434703826904,-25.563661575317383,3.442446231842041
1772649705479945700,4.51894580078125,-0.6998614072799683,-27.291200637817383,3.5815589427948
1772649705499955700,4.538955810546875,5.594777584075928,-16.954891204833984,2.7744057178497314
1772649705519965700,4.558965576171875,4.732974529266357,-11.75809383392334,2.0366954803466797
1772649705539975400,4.578975341796875,0.2490166425704956,-11.912915229797363,4.677328586578369
1772649705559984600,4.598984619140625,1.0148894786834717,-11.053008079528809,6.0664825439453125
1772649705579992600,4.61899267578125,2.2491400241851807,-11.9906587600708,5.94677209854126
1772649705600000300,4.639000244140625,1.4392260313034058,-9.908201217651367,1.5303467512130737
1772649705620008200,4.65900830078125,0.3121630847454071,-7.152599334716797,-0.7995164394378662
1772649705640016000,4.679015869140625,-1.1467530727386475,-3.9134340286254883,-1.9024229049682617
1772649705660023600,4.6990234375,-0.4970443546772003,0.4853048324584961,-2.1344079971313477
1772649705680031200,4.71903125,-0.055925168097019196,4.954793453216553,-2.1904287338256836
1772649705700039200,4.7390390625,0.07130397856235504,7.997520446777344,-2.6486289501190186
1772649705720046800,4.759046875,0.02838519960641861,10.649230003356934,-2.536875009536743
1772649705740054800,4.7790546875,-0.6444324254989624,12.370534896850586,-2.486511468887329
1772649705760062500,4.7990625,-0.5281624794006348,12.906057357788086,-2.798675298690796
1772649705780070100,4.819070068359375,-1.4858973026275635,13.133167266845703,-2.1139824390411377
1772649705800078000,4.839078125,-1.9843709468841553,13.454609870910645,-0.9777361154556274
1772649705820085800,4.859085693359375,-0.3268144130706787,13.273725509643555,-0.18941456079483032
1772649705840093400,4.879093505859375,0.5618343949317932,9.176316261291504,0.8039302825927734
1772649705860101400,4.899101318359375,0.9275811910629272,7.489772319793701,0.3512270450592041
1772649705880109000,4.919109130859375,-0.0369705855846405,7.584667205810547,-0.07608556747436523
1772649705900116700,4.93911669921875,-1.1598875522613525,9.2349853515625,-0.5117710828781128
1772649705920124700,4.959124755859375,-0.7829208374023438,9.793091773986816,-0.2852967381477356
1772649705940132400,4.97913232421875,-0.12841609120368958,8.299696922302246,-0.7971768975257874
1772649705960140000,4.99914013671875,1.1637829542160034,4.670617580413818,-1.553666114807129
1772649705980148000,5.01914794921875,9.584308624267578,-11.494778633117676,-3.734761953353882
1772649706000155600,5.03915576171875,-4.284862995147705,-27.408870697021484,-2.529695510864258
1772649706020163300,5.059163330078125,-0.12056034803390503,-25.748077392578125,-0.42136943340301514
1772649706040171300,5.079171142578125,2.9490838050842285,-14.82807445526123,4.200217247009277
1772649706060179200,5.09917919921875,3.800187826156616,-15.01323413848877,6.3231892585754395
1772649706080187400,5.1191875,2.5230650901794434,-13.505027770996094,5.146139621734619
1772649706100195800,5.13919580078125,1.9706218242645264,-13.218897819519043,6.562509536743164
1772649706120204300,5.159204345703125,1.0971654653549194,-12.402409553527832,6.694711208343506
1772649706140212700,5.179212646484375,0.06585437059402466,-9.929366111755371,2.816152572631836
1772649706160221200,5.19922119140625,0.12787878513336182,-6.700949668884277,0.04032936692237854
1772649706180229400,5.2192294921875,0.016551345586776733,-2.4527759552001953,-3.0236117839813232
1772649706200237800,5.23923779296875,-0.7058029770851135,3.6894707679748535,-4.506241321563721
1772649706220246300,5.259246337890625,-0.14812394976615906,8.336393356323242,-4.644429683685303
1772649706240254700,5.279254638671875,0.14265242218971252,11.806113243103027,-3.58794903755188
1772649706260263000,5.299262939453125,0.7384635210037231,13.084037780761719,-2.984539031982422
1772649706280271400,5.319271240234375,0.11795556545257568,13.661436080932617,-3.696469783782959
1772649706300279800,5.33927978515625,-3.3855509757995605,14.602103233337402,-3.1137261390686035
1772649706320288300,5.359288330078125,-2.8440585136413574,15.275030136108398,-1.5767905712127686
1772649706340296400,5.37929638671875,0.43167805671691895,14.279030799865723,-1.055910348892212
1772649706360305000,5.399304931640625,0.25755685567855835,8.74638557434082,-0.40522557497024536
1772649706380313300,5.419313232421875,0.8899698257446289,6.44766092300415,0.5104032754898071
1772649706400321800,5.43932177734375,0.6021131277084351,6.613259315490723,0.2135148048400879
1772649706420330000,5.459330078125,0.22536048293113708,8.379204750061035,-0.09806719422340393
1772649706440338400,5.47933837890625,0.06201213598251343,9.539807319641113,-1.159026861190796
1772649706460347000,5.499346923828125,0.05427461862564087,8.413829803466797,-1.5863924026489258
1772649706480355300,5.519355224609375,-0.7159802317619324,5.64456033706665,-2.7333481311798096
1772649706500363500,5.539363525390625,4.912951946258545,-3.8313817977905273,-3.362549304962158
1772649706520372000,5.5593720703125,3.118337392807007,-24.601703643798828,1.9197763204574585
1772649706540380400,5.57938037109375,-4.889742851257324,-22.40028953552246,5.9868245124816895
1772649706560389000,5.59938916015625,3.4208133220672607,-14.729615211486816,3.9547009468078613
1772649706580398300,5.6193984375,6.3038811683654785,-12.370564460754395,4.725306510925293
1772649706600407600,5.639407470703125,1.5868089199066162,-13.788098335266113,2.2810957431793213
1772649706620417000,5.6594169921875,0.7267543077468872,-11.640948295593262,3.5002012252807617
1772649706640426200,5.67942626953125,1.1531168222427368,-10.592483520507812,4.218346118927002
1772649706660435500,5.699435546875,-0.20127537846565247,-11.29058837890625,2.833977460861206
1772649706680444700,5.719444580078125,-0.7058510780334473,-10.678130149841309,0.8081074357032776
1772649706700454100,5.7394541015625,-0.01459642592817545,-7.817216873168945,-0.8997864127159119
1772649706720463400,5.75946337890625,-0.44775015115737915,-3.3434743881225586,-0.8533301949501038
1772649706740472600,5.77947265625,0.17311862111091614,1.4556732177734375,-0.526182234287262
1772649706760482000,5.79948193359375,1.4814759492874146,6.061117172241211,-1.3813657760620117
1772649706780491300,5.8194912109375,0.5224645137786865,9.310041427612305,-2.3244731426239014
1772649706800500500,5.83950048828125,-0.9297822713851929,11.733664512634277,-2.7227747440338135
1772649706820509700,5.859509765625,-0.10666966438293457,12.489904403686523,-3.265188694000244
1772649706840519200,5.879519287109375,-1.0149345397949219,13.565946578979492,-3.655775308609009
1772649706860528400,5.8995283203125,-2.599536418914795,14.579489707946777,-2.628162384033203
1772649706880537600,5.91953759765625,-0.3781287670135498,15.193084716796875,-1.4787147045135498
1772649706900547000,5.939547119140625,1.4657799005508423,12.173661231994629,-0.7049765586853027
1772649706920556300,5.959556396484375,1.6915949583053589,7.229183673858643,0.4047183096408844
1772649706940565500,5.9795654296875,0.8631277084350586,5.948004245758057,0.4554956555366516
1772649706960574700,5.99957470703125,-0.4540354609489441,7.4721360206604,-0.22136685252189636
1772649706980584200,6.019584228515625,-0.36223870515823364,9.561509132385254,-1.2772998809814453
1772649707000593400,6.039593505859375,-0.356637179851532,8.809748649597168,-2.114487648010254
1772649707020602600,6.0596025390625,1.496279239654541,5.7952189445495605,-2.7324624061584473
1772649707040612000,6.079612060546875,5.8139801025390625,-3.3262939453125,-4.705463409423828
1772649707060620800,6.099620849609375,-2.8503177165985107,-20.853923797607422,1.8308621644973755
1772649707080628700,6.119628662109375,-5.648866653442383,-16.24221420288086,9.598674774169922
1772649707100636700,6.13963671875,6.282487869262695,-16.986236572265625,6.091042995452881
1772649707120644600,6.15964453125,3.052919387817383,-18.406795501708984,6.189161777496338
1772649707140652800,6.17965283203125,1.193734884262085,-13.871651649475098,3.2827308177948
1772649707160660700,6.19966064453125,0.8204660415649414,-12.71478271484375,4.135580062866211
1772649707180668700,6.219668701171875,1.3146451711654663,-12.678569793701172,4.557595252990723
1772649707200676600,6.239676513671875,0.18681931495666504,-11.504125595092773,3.7960691452026367
1772649707220684500,6.2596845703125,-0.6659646034240723,-7.440448760986328,1.3707093000411987
1772649707240692500,6.2796923828125,-1.4534000158309937,-4.304025650024414,-0.4308634400367737
1772649707260700700,6.29970068359375,-0.8392823934555054,-1.4072561264038086,-0.8898002505302429
1772649707280708600,6.31970849609375,0.8343799710273743,1.5456323623657227,-1.5851060152053833
1772649707300716500,6.339716552734375,0.8603192567825317,5.258350372314453,-2.672649383544922
1772649707320724500,6.359724365234375,-0.2442011833190918,8.360838890075684,-2.8943469524383545
1772649707340732400,6.379732421875,-0.27181747555732727,10.83102035522461,-2.993169069290161
1772649707360740400,6.399740234375,-0.4163568615913391,12.017560958862305,-2.7958226203918457
1772649707380748300,6.419748291015625,-1.5754817724227905,13.1705322265625,-3.0277247428894043
1772649707400756200,6.439756103515625,-1.2797309160232544,14.315075874328613,-2.1584315299987793
1772649707420764400,6.459764404296875,1.1429040431976318,15.22640609741211,-1.1437402963638306
1772649707440772400,6.4797724609375,0.9700207710266113,11.920598030090332,-0.9644081592559814
1772649707460780300,6.4997802734375,1.0489779710769653,7.9664459228515625,0.10059964656829834
1772649707480788200,6.519788330078125,0.3370998799800873,7.288013458251953,0.5149341225624084
1772649707500796200,6.539796142578125,0.4257052540779114,8.220548629760742,0.5787148475646973
1772649707520804000,6.55980419921875,0.4022461771965027,9.625186920166016,-0.13740450143814087
1772649707540812300,6.579812255859375,0.7301477789878845,8.058618545532227,-1.274649739265442
1772649707560820500,6.599820556640625,0.23003387451171875,4.654666423797607,-3.765136241912842
1772649707580829700,6.61982958984375,4.903731822967529,-5.659019470214844,-3.4997241497039795
1772649707600839000,6.6398388671875,-0.8439972996711731,-22.77389907836914,6.498209476470947
1772649707620848000,6.65984814453125,-6.076968669891357,-23.827377319335938,6.258266925811768
1772649707640857300,6.679857421875,5.150490760803223,-24.024337768554688,7.378366947174072
1772649707660866600,6.699866455078125,4.850924015045166,-17.44841766357422,3.4492146968841553
1772649707680875800,6.719875732421875,1.1863172054290771,-16.00602912902832,3.4709019660949707
1772649707700885000,6.739885009765625,-0.23282432556152344,-14.419239044189453,5.431422710418701
1772649707720894200,6.759894287109375,-1.2163276672363281,-10.974318504333496,6.072617530822754
1772649707740903400,6.7799033203125,-0.05443909019231796,-6.470003128051758,4.108066082000732
1772649707760912600,6.79991259765625,-0.6153957843780518,-2.558267593383789,0.9616232514381409
1772649707780921900,6.819921875,-0.7920039892196655,0.16464710235595703,-1.1470961570739746
1772649707800930800,6.839930908203125,0.7358556985855103,3.864457607269287,-3.558821201324463
1772649707820940000,6.85993994140625,1.3472192287445068,8.296533584594727,-4.8745269775390625
1772649707840949200,6.87994921875,1.0093507766723633,12.237720489501953,-4.601707935333252
1772649707860958500,6.89995849609375,0.6134762763977051,14.135303497314453,-4.539821147918701
1772649707880967700,6.9199677734375,0.3874395489692688,14.79052734375,-4.286890506744385
1772649707900977000,6.939976806640625,-1.4815863370895386,15.108494758605957,-1.8683009147644043
1772649707920986000,6.959986083984375,-1.2577176094055176,14.139123916625977,0.06957435607910156
1772649707940995300,6.979995361328125,1.1162456274032593,8.745818138122559,0.726629376411438
1772649707961004500,7.000004638671875,1.8258378505706787,5.663435935974121,1.8061985969543457
1772649707981013800,7.020013671875,0.7354044914245605,6.527215003967285,0.9383803606033325
1772649708001023000,7.04002294921875,-0.715692937374115,8.834601402282715,0.1533184051513672
1772649708021032200,7.0600322265625,-0.7365904450416565,10.712101936340332,-0.23039960861206055
1772649708041041400,7.08004150390625,-0.15955787897109985,11.644121170043945,-0.39651036262512207
1772649708061050400,7.10005029296875,-0.4348793625831604,10.17024040222168,-1.6312859058380127
1772649708081058600,7.12005859375,-0.45381325483322144,5.909829139709473,-4.017603397369385
1772649708101066800,7.140066650390625,8.344132423400879,-8.838537216186523,-1.5805776119232178
1772649708121075000,7.160074951171875,1.4206554889678955,-29.237735748291016,4.588359355926514
1772649708141083100,7.180083251953125,-8.870203971862793,-24.480697631835938,2.5244345664978027
1772649708161091300,7.20009130859375,6.9336981773376465,-18.18781852722168,4.524026393890381
1772649708181099500,7.220099609375,4.557765007019043,-15.203559875488281,4.2903032302856445
1772649708201107700,7.240107666015625,1.3779147863388062,-11.006562232971191,4.754016876220703
1772649708221116000,7.260115966796875,2.1167116165161133,-11.225748062133789,6.924234867095947
1772649708241124000,7.2801240234375,2.2328646183013916,-11.917939186096191,7.843595027923584
1772649708261132300,7.30013232421875,0.6987783312797546,-10.563782691955566,3.4603524208068848
1772649708281140500,7.320140380859375,0.1887892186641693,-8.003665924072266,0.7497262358665466
1772649708301148700,7.340148681640625,-0.35408085584640503,-5.573558807373047,-0.14582014083862305
1772649708321156900,7.360156982421875,0.7363023161888123,-1.0476884841918945,-1.1809433698654175
1772649708341165000,7.3801650390625,1.2846996784210205,4.099202632904053,-2.209561347961426
1772649708361173200,7.40017333984375,1.1420706510543823,8.27334213256836,-3.3073761463165283
1772649708381181400,7.420181396484375,0.478574275970459,11.655866622924805,-2.9494168758392334
1772649708401189600,7.440189697265625,-0.2880555987358093,12.772705078125,-2.642094135284424
1772649708421198000,7.460197998046875,-1.3263685703277588,12.981609344482422,-3.22424578666687
1772649708441206300,7.480206298828125,-2.1903610229492188,13.522573471069336,-2.4049713611602783
1772649708461214500,7.50021435546875,-1.1744000911712646,14.232887268066406,-1.8403480052947998
1772649708481222700,7.52022265625,-0.09852874279022217,12.326455116271973,-0.5508638024330139
1772649708501230800,7.54023095703125,0.36641746759414673,8.149870872497559,0.4883904457092285
1772649708521239000,7.560239013671875,0.8222505450248718,7.236964225769043,1.3005118370056152
1772649708541247200,7.580247314453125,0.7325365543365479,7.70769739151001,1.1897096633911133
1772649708561255700,7.600255615234375,0.10444408655166626,9.121597290039062,0.4390559196472168
1772649708581264600,7.6202646484375,-0.15866762399673462,10.148591041564941,-0.7210471630096436
1772649708601273300,7.6402734375,0.5180760025978088,8.424467086791992,-1.9377224445343018
1772649708621282300,7.6602822265625,1.5602712631225586,4.117441654205322,-3.360382080078125
1772649708641291300,7.680291259765625,5.886421203613281,-11.991411209106445,-2.9911763668060303
1772649708661300000,7.700300048828125,-0.8623392581939697,-28.23020362854004,3.25557804107666
1772649708681309000,7.720308837890625,-3.5574069023132324,-16.387231826782227,5.217634201049805
1772649708701318000,7.74031787109375,8.647960662841797,-14.438879013061523,5.605412483215332
1772649708721326600,7.76032666015625,3.5904905796051025,-15.76587200164795,8.368471145629883
1772649708741335600,7.78033544921875,0.5514287948608398,-14.343420028686523,5.112865924835205
1772649708761344500,7.800344482421875,0.7506836652755737,-11.208636283874512,3.2092437744140625
1772649708781353500,7.820353515625,2.202747344970703,-11.390647888183594,3.440819501876831
1772649708801362200,7.840362060546875,1.2917944192886353,-11.316215515136719,2.5456056594848633
1772649708821371100,7.86037109375,1.0997029542922974,-8.32572078704834,0.27260226011276245
1772649708841380000,7.880380126953125,-0.31672799587249756,-4.469537734985352,-0.6946635842323303
1772649708861388800,7.900388916015625,-0.2978256642818451,0.8856801986694336,-1.257645845413208
1772649708881397800,7.920397705078125,0.2629570960998535,5.889487266540527,-1.5338183641433716
1772649708901406700,7.94040673828125,-0.0611301064491272,9.555804252624512,-2.1610355377197266
1772649708921415700,7.960415771484375,-0.8519346117973328,11.964529991149902,-2.711395502090454
1772649708941424400,7.98042431640625,0.5952438712120056,12.53170394897461,-3.5588977336883545
1772649708961433300,8.000433349609375,0.27528104186058044,13.887154579162598,-4.466684818267822
1772649708981442300,8.0204423828125,-1.6458595991134644,15.226089477539062,-3.7769885063171387
1772649709001451300,8.040451171875,-0.6124014854431152,15.136804580688477,-2.234269857406616
1772649709021460000,8.0604599609375,0.5572828054428101,10.154115676879883,-1.2320103645324707
1772649709041469000,8.080468994140626,1.0975146293640137,7.426354885101318,-0.48845812678337097
1772649709061477600,8.1004775390625,0.914539635181427,6.9929986000061035,0.014503855258226395
1772649709081485800,8.12048583984375,0.934258759021759,7.468876838684082,-0.29590466618537903
1772649709101494000,8.140493896484376,-0.5069748163223267,9.018412590026855,-1.2767430543899536
1772649709121502200,8.160502197265625,-0.6295886635780334,9.575039863586426,-1.7981325387954712
1772649709141510400,8.180510498046875,0.5169447660446167,7.652446746826172,-1.8844735622406006
1772649709161518600,8.2005185546875,1.2737455368041992,2.7794647216796875,-4.35363245010376
1772649709181526800,8.22052685546875,5.7179694175720215,-17.235891342163086,-1.0218342542648315
1772649709201535000,8.240534912109375,-7.932858467102051,-24.398605346679688,7.161782741546631
1772649709221543200,8.260543212890624,-1.1428043842315674,-11.788516998291016,6.816208839416504
1772649709241551400,8.28055126953125,5.672043800354004,-11.764212608337402,5.294795989990234
1772649709261559600,8.3005595703125,3.859116315841675,-12.075884819030762,3.979276657104492
1772649709281567700,8.320567626953125,0.3948177695274353,-9.386150360107422,2.8115878105163574
1772649709301576000,8.340575927734376,-0.9658640623092651,-5.74140739440918,3.9047930240631104
1772649709321584000,8.360584228515625,0.8493938446044922,-5.133777618408203,5.339412689208984
1772649709341592300,8.38059228515625,0.17126742005348206,-7.319559097290039,4.3587517738342285
1772649709361600500,8.4006005859375,-0.44111835956573486,-5.783219337463379,1.7316595315933228
1772649709381608700,8.420608642578125,-0.6406169533729553,-4.104480743408203,0.1269029676914215
1772649709401617000,8.440616943359375,0.4229707717895508,-2.4354476928710938,0.1930772364139557
1772649709421625000,8.460625,0.7538740038871765,0.05185508728027344,0.4667966961860657
1772649709441633300,8.48063330078125,0.65274977684021,2.742349147796631,-0.16397708654403687
1772649709461641500,8.500641357421875,0.6897538900375366,5.047471046447754,-1.1707448959350586
1772649709481649700,8.520649658203125,1.0236246585845947,6.325868606567383,-1.9073560237884521
1772649709501657900,8.540657958984376,0.344133198261261,6.904826641082764,-2.0925185680389404
1772649709521666000,8.560666015625,-0.9613199830055237,7.333421230316162,-2.7101504802703857
1772649709541674200,8.58067431640625,-1.105181336402893,6.90615177154541,-2.430759906768799
1772649709561682700,8.6006826171875,0.17368289828300476,5.1004109382629395,-2.0264196395874023
1772649709581691600,8.620691650390626,0.48370465636253357,3.798954486846924,-1.5611560344696045
1772649709601700400,8.640700439453125,0.9937102794647217,2.76069974899292,-0.9477870464324951
1772649709621709300,8.660709228515625,1.4199949502944946,0.663945198059082,-0.25560110807418823
1772649709641718300,8.68071826171875,1.5894253253936768,-2.869326591491699,0.5739443302154541
1772649709661727000,8.70072705078125,-1.9097797870635986,-5.657990455627441,1.9508392810821533
1772649709681736000,8.72073583984375,-2.577880382537842,-4.828746795654297,2.8361401557922363
1772649709701744600,8.74074462890625,0.9031683206558228,-2.1144065856933594,2.662808418273926
1772649709721753600,8.760753662109375,0.2125449776649475,-0.4686918258666992,1.6817457675933838
1772649709741762600,8.780762451171874,0.1401847004890442,1.087031364440918,0.6587139964103699
1772649709761771300,8.800771240234376,0.10554730892181396,1.7240276336669922,0.06732076406478882
1772649709781780200,8.8207802734375,0.09006190299987793,1.8004908561706543,0.03320169448852539
1772649709801789200,8.8407890625,0.7050540447235107,1.3047161102294922,0.7326704859733582
1772649709821798000,8.8607978515625,0.9498061537742615,0.4622211456298828,1.4020891189575195
1772649709841806800,8.880806884765626,0.7081607580184937,-0.6907005310058594,1.8788325786590576
1772649709861815600,8.900815673828125,0.37869730591773987,-1.0656242370605469,2.038616180419922
1772649709881824500,8.920824462890625,0.30329567193984985,-0.9732666015625,1.8932461738586426
1772649709901833500,8.94083349609375,0.3834925591945648,-0.3555335998535156,1.626460313796997
1772649709921842200,8.96084228515625,0.2440922111272812,0.42578792572021484,1.2012526988983154
1772649709941851100,8.98085107421875,-0.03786057233810425,0.8224658966064453,0.9369068145751953
1772649709961860000,9.000860107421875,-0.1553071141242981,0.6810979843139648,0.9353447556495667
1772649709981868800,9.020868896484375,-0.022133708000183105,0.49521446228027344,0.9732524752616882
1772649710001877800,9.040877685546874,-0.0980520248413086,0.13506317138671875,0.9731736779212952
1772649710021886500,9.060886474609376,-0.108897864818573,-0.2794046401977539,1.0739946365356445
1772649710041895400,9.0808955078125,-0.142513245344162,-0.22457122802734375,1.2270691394805908
1772649710061904000,9.10090380859375,-0.003995001316070557,0.0503997802734375,1.4044923782348633
1772649710081911600,9.12091162109375,0.15122626721858978,0.1167144775390625,1.4449175596237183
1772649710101919500,9.14091943359375,0.26448509097099304,0.29774951934814453,1.2927173376083374
1772649710121927200,9.16092724609375,0.34737688302993774,0.2964611053466797,1.1047446727752686
1772649710141934800,9.180934814453124,0.3033226728439331,0.1508655548095703,1.078063726425171
1772649710161942500,9.200942626953125,0.20633567869663239,-0.052039146423339844,0.9763942956924438
1772649710181950500,9.220950439453125,0.10144530236721039,-0.15569114685058594,0.8324813842773438
1772649710201958100,9.240958251953124,0.2523418664932251,-0.16606903076171875,0.7299973964691162
1772649710221965800,9.2609658203125,-0.06370633840560913,0.2837390899658203,0.4901529550552368
1772649710241973800,9.280973876953125,0.1293887495994568,0.19026947021484375,0.6316428184509277
1772649710261981400,9.3009814453125,0.06716755032539368,0.3533506393432617,0.7194844484329224
1772649710281989000,9.320989013671875,0.03797826170921326,0.30590057373046875,0.6702440977096558
1772649710301996800,9.340996826171875,-0.04850870370864868,0.18213367462158203,0.6954598426818848
1772649710322004700,9.361004638671876,-0.061467885971069336,0.17581462860107422,0.6938813924789429
1772649710342012400,9.381012451171875,-0.02016383409500122,-0.20170879364013672,0.6729888916015625
1772649710362020000,9.40102001953125,0.08262410759925842,-0.4571552276611328,0.6702577471733093
1772649710382028000,9.421028076171876,0.1505652666091919,-0.3782520294189453,0.7428940534591675
1772649710402035700,9.44103564453125,0.16407230496406555,-0.029399871826171875,0.7229219079017639
1772649710422043400,9.46104345703125,0.1533208191394806,-0.030511856079101562,0.7060754299163818
1772649710442051300,9.48105126953125,0.0847943127155304,-0.091064453125,0.8399574160575867
1772649710462059000,9.50105908203125,0.02026239037513733,0.03510761260986328,0.8787145614624023
1772649710482066700,9.521066650390624,0.06938722729682922,0.11361980438232422,0.8498443365097046
1772649710502074600,9.54107470703125,0.07047197222709656,0.003162384033203125,0.9000773429870605
1772649710522082300,9.561082275390625,0.008684545755386353,0.10570430755615234,0.874746561050415
1772649710542090000,9.581090087890624,0.010227620601654053,0.04506206512451172,0.880382776260376
1772649710562098200,9.60109814453125,0.05528920888900757,-0.0037517547607421875,0.7804179191589355
1772649710582107100,9.621107177734375,-0.09858846664428711,-0.14978408813476562,0.7384665012359619
1772649710602116000,9.6411162109375,-0.1363251507282257,-0.07184123992919922,0.7075976133346558
1772649710622125000,9.661125,-0.05294334888458252,-0.02027606964111328,0.6550705432891846
1772649710642134000,9.681134033203126,-0.15542712807655334,-0.036102294921875,0.6156483888626099
1772649710662143000,9.70114306640625,-0.055551111698150635,-0.18151092529296875,0.5613776445388794
