time,seconds_elapsed,z,y,x
1772649701155595800,0.194595703125,0.15579478442668915,0.29507800936698914,0.15885742008686066
1772649701175604500,0.2146044921875,0.18242637813091278,0.3760380148887634,0.12476898729801178
1772649701185608700,0.224608642578125,0.22556954622268677,0.3446127474308014,0.0672447606921196
1772649701195613000,0.234613037109375,0.2846916913986206,0.2503369152545929,0.0011984214652329683
1772649701205617200,0.2446171875,0.30652958154678345,0.14700636267662048,-0.03342264145612717
1772649701215621400,0.254621337890625,0.31611695885658264,0.10226529836654663,-0.04673843830823898
1772649701225625600,0.26462548828125,0.3454116880893707,0.07350318133831024,-0.06751107424497604
1772649701235629800,0.2746298828125,0.36724960803985596,0.04207791015505791,-0.09147950261831284
1772649701245634000,0.284634033203125,0.3848264515399933,0.0378168560564518,-0.10852371901273727
1772649701255638300,0.29463818359375,0.38216328620910645,0.055393703281879425,-0.11970898509025574
1772649701265642800,0.304642822265625,0.36724960803985596,0.08735160529613495,-0.1165132001042366
1772649701275647000,0.31464697265625,0.356596976518631,0.10173266381025314,-0.10479529947042465
1772649701285651200,0.324651123046875,0.33475905656814575,0.11504846066236496,-0.08775108307600021
1772649701295655400,0.334655517578125,0.30759483575820923,0.1363537311553955,-0.06697844713926315
1772649701305659600,0.34465966796875,0.2814958989620209,0.15446321666240692,-0.045673172920942307
1772649701315664000,0.354663818359375,0.24527692794799805,0.17310532927513123,-0.02756369300186634
1772649701325668000,0.364668212890625,0.20266638696193695,0.1976063847541809,-0.012650004588067532
1772649701335672300,0.37467236328125,0.15046846866607666,0.21092218160629272,0.044341593980789185
1772649701345676800,0.3846767578125,0.10466214269399643,0.20080217719078064,0.12263846397399902
1772649701355681000,0.394680908203125,0.05619265139102936,0.18748638033866882,0.16524900496006012
1772649701365685200,0.404685302734375,0.01411474123597145,0.14913690090179443,0.17643427848815918
1772649701375689500,0.414689453125,-0.024767376482486725,0.10066740214824677,0.1705753207206726
1772649701385693700,0.424693603515625,-0.061518967151641846,0.07723160833120346,0.17749953269958496
1772649701395698000,0.434697998046875,-0.11957582831382751,0.04154527932405472,0.20572902262210846
1772649701405702100,0.4447021484375,-0.15166689455509186,0.02503369376063347,0.21957744657993317
1772649701415706600,0.45470654296875,-0.1596563756465912,0.009587371721863747,0.2222405970096588
1772649701425710800,0.4647109375,-0.14261215925216675,-0.007456844672560692,0.23449113965034485
1772649701435715000,0.474715087890625,-0.13249215483665466,-0.00852210819721222,0.273905873298645
1772649701445719300,0.48471923828125,-0.07709844410419464,0.04154527932405472,0.3404848575592041
1772649701455723500,0.4947236328125,-0.0073236869648098946,0.10279793292284012,0.4448806941509247
1772649701465727700,0.504727783203125,0.04966791346669197,0.18588848412036896,0.5807017683982849
1772649701475732000,0.51473193359375,0.10293108969926834,0.2498043030500412,0.7064028978347778
1772649701485736200,0.524736083984375,0.19560901820659637,0.2817622125148773,0.786297619342804
1772649701495740400,0.534740478515625,0.2659164071083069,0.2886864244937897,0.8502134680747986
1772649701505745000,0.544744873046875,0.2659164071083069,0.2631200850009918,0.8976176977157593
1772649701515749000,0.5547490234375,0.20679427683353424,0.2924148440361023,0.9279776811599731
1772649701525753300,0.56475341796875,0.1045289859175682,0.40266960859298706,0.899215579032898
1772649701535757600,0.574757568359375,-0.06111949309706688,0.5219791531562805,0.8209186792373657
1772649701545761800,0.58476171875,-0.23102903366088867,0.49694544076919556,0.7149249911308289
1772649701555766000,0.59476611328125,-0.3993406593799591,0.3824295997619629,0.5998765230178833
1772649701565770500,0.6047705078125,-0.5355612635612488,0.30839377641677856,0.5029375553131104
1772649701575775000,0.61477490234375,-0.5659212470054626,0.3067958950996399,0.44168490171432495
1772649701585779500,0.624779541015625,-0.45619910955429077,0.39787593483924866,0.39428067207336426
1772649701595784000,0.634783935546875,-0.3518032729625702,0.5289033651351929,0.3538006544113159
1772649701605788400,0.644788330078125,-0.3512706458568573,0.5395559668540955,0.3649859130382538
1772649701615793000,0.65479296875,-0.3464769721031189,0.39734330773353577,0.37031224370002747
1772649701625797400,0.66479736328125,-0.28202852606773376,0.240216925740242,0.32823431491851807
1772649701635801900,0.6748017578125,-0.24580955505371094,0.1315600425004959,0.2371542900800705
1772649701645806300,0.684806396484375,-0.22983060777187347,0.11664635688066483,0.1471395194530487
1772649701655810800,0.694810791015625,-0.1675126850605011,0.06285054981708527,0.1237037256360054
1772649701665815300,0.704815185546875,-0.13129372894763947,0.1459411084651947,0.1902827024459839
1772649701675819800,0.71481982421875,-0.19307900965213776,0.15925689041614532,0.24567639827728271
1772649701685824300,0.72482421875,-0.25433167815208435,0.13741900026798248,0.20093533396720886
1772649701695828700,0.734828857421875,-0.31664958596229553,0.11025477200746536,0.019840532913804054
1772649701705833200,0.744833251953125,-0.33955276012420654,0.03834948688745499,-0.2294311374425888
1772649701715837700,0.754837646484375,-0.3363569676876068,-0.08309055864810944,-0.4318312108516693
1772649701725842200,0.76484228515625,-0.30173590779304504,-0.17363795638084412,-0.5213133096694946
1772649701735846700,0.7748466796875,-0.2468748241662979,-0.22796639800071716,-0.5005406737327576
1772649701745851000,0.784850830078125,-0.15952321887016296,-0.2599242925643921,-0.44035330414772034
1772649701755855400,0.79485546875,-0.0732368677854538,-0.2599242925643921,-0.3982754051685333
1772649701765859800,0.80485986328125,-0.001997369108721614,-0.23276008665561676,-0.39241644740104675
1772649701775864300,0.8148642578125,0.04593949019908905,-0.21358533203601837,-0.42543962597846985
1772649701785868800,0.824868896484375,0.08748476952314377,-0.19973690807819366,-0.47231122851371765
1772649701795873300,0.834873291015625,0.09440898150205612,-0.1368863582611084,-0.506932258605957
1772649701805877800,0.844877685546875,0.1002679318189621,-0.09693898260593414,-0.5255743861198425
1772649701815882200,0.85488232421875,0.10825740545988083,-0.06338317692279816,-0.5372923016548157
1772649701825886700,0.86488671875,0.0858868733048439,0.026631588116288185,-0.5772396922111511
1772649701835891200,0.87489111328125,0.07470160722732544,0.07243791967630386,-0.641155481338501
1772649701845895700,0.884895751953125,0.04593949019908905,0.0942758247256279,-0.6896249651908875
1772649701855900200,0.894900146484375,-0.07763107866048813,0.17310532927513123,-0.7247786521911621
1772649701865904600,0.904904541015625,-0.20279954373836517,0.1928126960992813,-0.72903972864151
1772649701875909000,0.9149091796875,-0.2528669238090515,0.11611372232437134,-0.6858965754508972
1772649701885913600,0.92491357421875,-0.2390184998512268,0.1134505644440651,-0.6129260063171387
1772649701895918000,0.93491796875,-0.24594271183013916,0.14966952800750732,-0.5447491407394409
1772649701905922600,0.944922607421875,-0.216115340590477,0.16298532485961914,-0.498410165309906
1772649701915927000,0.954927001953125,-0.14847110211849213,0.1747032105922699,-0.48669227957725525
1772649701925931500,0.964931640625,-0.04673843830823898,0.23435798287391663,-0.4834964871406555
1772649701935936000,0.97493603515625,0.10719214379787445,0.2780337929725647,-0.4797680675983429
1772649701945940500,0.9849404296875,0.2920153737068176,0.2934800982475281,-0.4557996392250061
1772649701955945000,0.994945068359375,0.4821648895740509,0.2631200850009918,-0.40147119760513306
1772649701965949400,1.004949462890625,0.6532728672027588,0.21465060114860535,-0.3194459080696106
1772649701975954000,1.014953857421875,0.7198518514633179,0.2775011360645294,-0.23315955698490143
1772649701985958400,1.02495849609375,0.7305044531822205,0.33289486169815063,-0.1687111109495163
1772649701995963000,1.034962890625,0.7406244874000549,0.29827380180358887,-0.12876373529434204
1772649702005967400,1.04496728515625,0.7267760634422302,0.21145480871200562,-0.11331740766763687
1772649702015971800,1.054971923828125,0.6458160281181335,0.09534108638763428,-0.09733845293521881
1772649702025976300,1.064976318359375,0.5089296698570251,0.012250530533492565,-0.07976160943508148
1772649702035980800,1.074980712890625,0.36724960803985596,-0.08149266242980957,-0.06591317802667618
1772649702045985300,1.0849853515625,0.21331901848316193,-0.19494321942329407,-0.05099949240684509
1772649702055989800,1.09498974609375,0.049801070243120193,-0.3195790648460388,-0.0073236869648098946
1772649702065994000,1.104993896484375,-0.1014663502573967,-0.4335622489452362,0.08748476952314377
1772649702075998200,1.114998291015625,-0.2426137626171112,-0.5129243731498718,0.1806953251361847
1772649702086002400,1.12500244140625,-0.3560643196105957,-0.5358275771141052,0.2185121774673462
1772649702096007000,1.1350068359375,-0.45726436376571655,-0.4916191101074219,0.20785954594612122
1772649702106011100,1.14501123046875,-0.5483443737030029,-0.4250401556491852,0.20945744216442108
1772649702116015400,1.155015380859375,-0.623445451259613,-0.3334274888038635,0.2893522083759308
1772649702126019600,1.16501953125,-0.6809697151184082,-0.1789642721414566,0.428901731967926
1772649702136023800,1.17502392578125,-0.7166560292243958,0.11664635688066483,0.6281059980392456
1772649702146028300,1.1850283203125,-0.6713823080062866,0.6380928754806519,1.3871062994003296
1772649702156032500,1.195032470703125,-0.3901527523994446,0.7648591995239258,3.1559762954711914
1772649702166036700,1.20503662109375,-0.35286855697631836,-1.0210551023483276,2.6105613708496094
1772649702176041000,1.215041015625,-0.4546011984348297,-0.7169223427772522,0.5253080725669861
1772649702186045200,1.225045166015625,-0.3938812017440796,0.34621065855026245,-0.4462122619152069
1772649702196049700,1.235049560546875,-0.2745716869831085,0.33822116255760193,-0.02756369300186634
1772649702206054000,1.245053955078125,-0.22024323046207428,-0.3637875020503998,0.7293060421943665
1772649702216058000,1.25505810546875,-0.474308580160141,-0.5629917979240417,0.6536723375320435
1772649702226062300,1.265062255859375,-0.5281043648719788,-0.40373486280441284,0.05978791415691376
1772649702236066800,1.27506689453125,-0.5382243990898132,-0.3249053657054901,-0.23156166076660156
1772649702246071000,1.285071044921875,-0.4870917499065399,-0.3488737940788269,-0.20386481285095215
1772649702256075300,1.2950751953125,-0.3033337891101837,-0.10599371790885925,-0.022237375378608704
1772649702266079500,1.30507958984375,-0.08655266463756561,0.2577937841415405,0.2126532346010208
1772649702276083700,1.315083740234375,0.04181159287691116,0.48842331767082214,0.3032006323337555
1772649702286088200,1.325088134765625,0.05512738600373268,0.5102612376213074,0.06617949903011322
1772649702296092400,1.335092529296875,0.036485277116298676,0.3760380148887634,-0.33116379380226135
1772649702306096600,1.3450966796875,0.06471475958824158,0.24820640683174133,-0.5916207432746887
1772649702316100900,1.355100830078125,0.1291632056236267,0.13901689648628235,-0.661928117275238
1772649702326105000,1.36510498046875,0.16804532706737518,0.16831164062023163,-0.649677574634552
1772649702336109600,1.375109619140625,0.21172112226486206,0.21518322825431824,-0.6352965235710144
1772649702346113800,1.38511376953125,0.21331901848316193,0.2918822169303894,-0.6603302359580994
1772649702356118000,1.395117919921875,0.17496953904628754,0.3334274888038635,-0.7034733891487122
1772649702366122200,1.405122314453125,0.08535423874855042,0.4010717272758484,-0.7498123645782471
1772649702376126500,1.41512646484375,-0.03555316850543022,0.41172435879707336,-0.8265113234519958
1772649702386131000,1.425130859375,-0.13675320148468018,0.4111917316913605,-0.8685892224311829
1772649702396135200,1.43513525390625,-0.2294311374425888,0.3829622268676758,-0.8243808150291443
1772649702406139400,1.445139404296875,-0.3487406373023987,0.4186485707759857,-0.72903972864151
1772649702416143600,1.4551435546875,-0.40306907892227173,0.4303664565086365,-0.5633912682533264
1772649702426147800,1.46514794921875,-0.4467448890209198,0.4564654231071472,-0.35406696796417236
1772649702436152300,1.47515234375,-0.4707133173942566,0.4426169991493225,-0.1255679428577423
1772649702446156500,1.485156494140625,-0.4605933129787445,0.3728422224521637,0.10719214379787445
1772649702456160800,1.495160888671875,-0.39667749404907227,0.24927166104316711,0.288286954164505
1772649702466165000,1.5051650390625,-0.2502037584781647,0.12623372673988342,0.35752907395362854
1772649702476169200,1.515169189453125,-0.04034685716032982,-0.005326317623257637,0.2840258777141571
1772649702486173700,1.525173583984375,0.14927005767822266,-0.1981390118598938,0.05392896756529808
1772649702496178000,1.535177978515625,0.29521116614341736,-0.3456780016422272,-0.28003114461898804
1772649702506182100,1.54518212890625,0.36285537481307983,-0.30839377641677856,-0.5538038611412048
1772649702516186400,1.555186279296875,0.397476464509964,-0.27590325474739075,-0.6970818042755127
1772649702526190800,1.56519091796875,0.3788343369960785,-0.39894118905067444,-0.720517635345459
1772649702536195000,1.575195068359375,0.3255711793899536,-0.7323686480522156,-0.6267744302749634
1772649702546199300,1.58519921875,0.273905873298645,-1.0775140523910522,-0.4328964650630951
1772649702556203500,1.59520361328125,0.17643427848815918,-1.1808446645736694,-0.16604794561862946
1772649702566207700,1.605207763671875,-0.02210421860218048,-1.1062761545181274,0.02516685053706169
1772649702576211700,1.615211669921875,-0.18402427434921265,-1.0434256792068481,0.09920266270637512
1772649702586216000,1.6252158203125,-0.32091063261032104,-1.0588719844818115,0.18122795224189758
1772649702596220200,1.63522021484375,-0.4961465001106262,-1.1435604095458984,0.27284061908721924
1772649702606224100,1.64522412109375,-0.6436854600906372,-1.1606045961380005,0.3553985357284546
1772649702616228400,1.655228271484375,-0.7352981567382812,-1.00667405128479,0.3878890872001648
1772649702626232300,1.665232421875,-0.7917571067810059,-0.7856318354606628,0.37031224370002747
1772649702636236500,1.675236572265625,-0.8242476582527161,-0.49747806787490845,0.3633880317211151
1772649702646240500,1.685240478515625,-0.7209171056747437,-0.11451582610607147,0.3868238031864166
1772649702656244700,1.69524462890625,-0.5819001793861389,0.23755376040935516,0.4017375111579895
1772649702666249000,1.7052490234375,-0.4221106767654419,0.5320991277694702,0.4107922613620758
1772649702676253000,1.7152529296875,-0.2426137626171112,0.7904255390167236,0.5077311992645264
1772649702686257200,1.725257080078125,0.08175897598266602,1.1147983074188232,0.9695229530334473
1772649702696261000,1.73526123046875,0.5717802047729492,1.3614068031311035,2.229729652404785
1772649702706265300,1.745265380859375,0.5424854755401611,0.03675159066915512,2.4715445041656494
1772649702716269300,1.755269287109375,0.38109803199768066,-0.468183308839798,0.8400934338569641
1772649702726273500,1.7652734375,0.32037800550460815,0.2503369152545929,-0.2779006361961365
1772649702736277800,1.77527783203125,0.5877591371536255,0.3621895909309387,-0.17670059204101562
1772649702746281700,1.78528173828125,0.7550055384635925,-0.5645896792411804,0.6962828636169434
1772649702756286000,1.795285888671875,0.019973691552877426,-0.9086697697639465,1.3620725870132446
1772649702766290000,1.8052900390625,-0.5376917719841003,-0.9848361015319824,0.9849692583084106
1772649702776294100,1.815294189453125,-0.7230476140975952,-0.3877559304237366,0.18761953711509705
1772649702786298000,1.825298095703125,-0.6495444178581238,0.34194958209991455,-0.03715106472373009
1772649702796302300,1.83530224609375,-0.5286370515823364,0.7084002494812012,0.156194269657135
1772649702806306600,1.845306640625,-0.40932750701904297,0.8447539806365967,0.2973416745662689
1772649702816310500,1.855310546875,-0.23036323487758636,0.9374319314956665,0.231827974319458
1772649702826314800,1.865314697265625,0.001864211168140173,0.9209203124046326,-0.06325002014636993
1772649702836319000,1.875319091796875,0.1866874396800995,0.7078676223754883,-0.3940143585205078
1772649702846323000,1.885322998046875,0.3086601197719574,0.5182507038116455,-0.5623259544372559
1772649702856327200,1.8953271484375,0.37310853600502014,0.48789069056510925,-0.6315681338310242
1772649702866331100,1.9053310546875,0.41465383768081665,0.4564654231071472,-0.6512755155563354
1772649702876335400,1.91533544921875,0.4487422704696655,0.44155174493789673,-0.6230459809303284
1772649702886339300,1.92533935546875,0.5004075169563293,0.4527370035648346,-0.616121768951416
1772649702896343600,1.935343505859375,0.5254412293434143,0.5022717714309692,-0.6566017866134644
1772649702906347800,1.94534765625,0.5009401440620422,0.5294359922409058,-0.7247786521911621
1772649702916351700,1.955351806640625,0.4402201473712921,0.5597959756851196,-0.808401882648468
1772649702926356000,1.96535595703125,0.36671698093414307,0.5864275693893433,-0.8994818925857544
1772649702936360000,1.97535986328125,0.32570433616638184,0.5880254507064819,-0.9639303088188171
1772649702946364200,1.9853642578125,0.2511358857154846,0.5363602042198181,-0.9996166825294495
1772649702956368100,1.9953681640625,0.18881796300411224,0.4751075208187103,-0.9825724363327026
1772649702966372400,2.005372314453125,0.1866874396800995,0.4335622489452362,-0.8893618583679199
1772649702976376600,2.01537646484375,0.1813611090183258,0.4069306552410126,-0.758867084980011
1772649702986380500,2.025380615234375,0.1488705724477768,0.38988643884658813,-0.6305028200149536
1772649702996384800,2.035384765625,0.10253161191940308,0.35047170519828796,-0.5010733008384705
1772649703006388700,2.045388671875,0.03488738089799881,0.2961432635784149,-0.3897532820701599
1772649703016393000,2.05539306640625,-0.03435475006699562,0.2210421860218048,-0.31731536984443665
1772649703026397000,2.06539697265625,-0.08868318796157837,0.14061477780342102,-0.3055974841117859
1772649703036401200,2.075401123046875,-0.11797793209552765,0.0798947662115097,-0.33595749735832214
1772649703046405400,2.0854052734375,-0.11478214710950851,0.08894950151443481,-0.37750276923179626
1772649703056409300,2.095409423828125,-0.06950844824314117,0.19014954566955566,-0.41531962156295776
1772649703066413300,2.105413330078125,0.00719052879139781,0.3312969505786896,-0.4893554449081421
1772649703076417300,2.115417236328125,0.11691267043352127,0.40213698148727417,-0.5783049464225769
1772649703086421000,2.1254208984375,0.21704743802547455,0.4095938205718994,-0.6342312693595886
1772649703096425000,2.135425048828125,0.3028011620044708,0.3403517007827759,-0.6608628630638123
1772649703106428700,2.1454287109375,0.38216328620910645,0.22956429421901703,-0.683233380317688
1772649703116432600,2.1554326171875,0.4460791051387787,0.1038631945848465,-0.6773744225502014
1772649703126436600,2.1654365234375,0.4785696268081665,-0.059122126549482346,-0.611328125
1772649703136440600,2.175440673828125,0.45247069001197815,-0.18535585701465607,-0.49042069911956787
1772649703146444300,2.1854443359375,0.3081274628639221,-0.08309055864810944,-0.3940143585205078
1772649703156448300,2.1954482421875,0.16857795417308807,-0.023435797542333603,-0.3391532599925995
1772649703166452200,2.2054521484375,0.0342215895652771,-0.17736637592315674,-0.22676797211170197
1772649703176456000,2.2154560546875,-0.15326479077339172,-0.423974871635437,-0.06591317802667618
1772649703186460000,2.2254599609375,-0.3583280146121979,-0.6167875528335571,0.11837740987539291
1772649703196463900,2.2354638671875,-0.502138614654541,-0.7211834192276001,0.29680904746055603
1772649703206467600,2.245467529296875,-0.5783049464225769,-0.7233139276504517,0.40493330359458923
1772649703216471600,2.255471435546875,-0.6123933792114258,-0.5795033574104309,0.4491417407989502
1772649703226475500,2.2654755859375,-0.6070670485496521,-0.3621895909309387,0.508263885974884
1772649703236479200,2.275479248046875,-0.5037364959716797,-0.021305270493030548,0.7607313394546509
1772649703246483200,2.285483154296875,-0.21291954815387726,0.7291728854179382,1.5452978610992432
1772649703256487200,2.295487060546875,0.13435636460781097,1.3800488710403442,3.0371994972229004
1772649703266491000,2.305490966796875,0.17323848605155945,-0.5347622632980347,3.112833261489868
1772649703276494800,2.315494873046875,0.14980268478393555,-1.9915101528167725,1.947434902191162
1772649703286498800,2.325498779296875,0.24514377117156982,-0.9725856184959412,0.8598008155822754
1772649703296502500,2.33550244140625,0.31385326385498047,-0.035153694450855255,0.3633880317211151
1772649703306506500,2.345506591796875,0.48429542779922485,0.32863378524780273,0.17323848605155945
1772649703316510500,2.355510498046875,0.4672512114048004,-0.19121479988098145,0.16045531630516052
1772649703326514200,2.36551416015625,-0.06751107424497604,-0.38882118463516235,0.036352116614580154
1772649703336518100,2.37551806640625,-0.5830986499786377,-0.15712636709213257,-0.15326479077339172
1772649703346522000,2.385522216796875,-0.8238481879234314,-0.24234744906425476,-0.17883111536502838
1772649703356525800,2.39552587890625,-0.8014776706695557,-0.4857601523399353,-0.22676797211170197
1772649703366529800,2.40552978515625,-0.4419512152671814,-0.31744852662086487,-0.301336407661438
1772649703376533800,2.41553369140625,-0.013715268112719059,0.1651158481836319,-0.29814061522483826
1772649703386537500,2.425537353515625,0.24567639827728271,0.3861580193042755,-0.14154689013957977
1772649703396541400,2.43554150390625,0.32876694202423096,0.4703138470649719,0.0858868733048439
1772649703406545400,2.44554541015625,0.2941458821296692,0.5619264841079712,0.2131858617067337
1772649703416549000,2.455549072265625,0.19720691442489624,0.5640570521354675,0.11358372122049332
1772649703426553000,2.465552978515625,0.04274369776248932,0.46871596574783325,-0.16604794561862946
1772649703436557000,2.47555712890625,-0.09414266049861908,0.36112433671951294,-0.48722490668296814
1772649703446560800,2.485560791015625,-0.14207951724529266,0.2876211404800415,-0.7263765931129456
1772649703456564700,2.495564697265625,-0.24168166518211365,0.3153179883956909,-0.8238481879234314
1772649703466568700,2.505568603515625,-0.3253048360347748,0.27164220809936523,-0.7993471026420593
1772649703476572400,2.515572509765625,-0.389220654964447,0.23329271376132965,-0.7194523811340332
1772649703486576400,2.525576416015625,-0.4312985837459564,0.1938779652118683,-0.6443513035774231
1772649703496580400,2.535580322265625,-0.4739091098308563,0.07190528512001038,-0.6012080907821655
1772649703506584000,2.545583984375,-0.4856269955635071,-0.03568632900714874,-0.5479449033737183
1772649703516588000,2.555588134765625,-0.433429092168808,-0.12942951917648315,-0.4222438335418701
1772649703526592000,2.565592041015625,-0.31252169609069824,-0.14061477780342102,-0.23156166076660156
1772649703536595700,2.575595703125,-0.17989638447761536,-0.08522108197212219,-0.06111949309706688
1772649703546599700,2.585599609375,-0.07123950123786926,0.002130527049303055,0.001731053227558732
1772649703556603600,2.595603759765625,-0.01957421749830246,0.11025477200746536,0.0294279046356678
1772649703566607600,2.605607666015625,0.016245268285274506,0.2647179961204529,-0.01105210930109024
1772649703576611600,2.615611572265625,0.0402136966586113,0.4442148804664612,-0.10106687992811203
1772649703586615600,2.625615478515625,0.06791055202484131,0.7190528512001038,-0.16125427186489105
1772649703596619500,2.63561962890625,0.12277162075042725,0.9454213976860046,-0.22783324122428894
1772649703606623500,2.64562353515625,0.190948486328125,0.9331708550453186,-0.38336169719696045
1772649703616627500,2.65562744140625,0.24474430084228516,0.7020086646080017,-0.5969470739364624
1772649703626631400,2.66563134765625,0.2852243185043335,0.4186485707759857,-0.7993471026420593
1772649703636635400,2.675635498046875,0.3033337891101837,0.19600848853588104,-0.9080039858818054
1772649703646639400,2.685639404296875,0.28682219982147217,0.026631588116288185,-0.8483492136001587
1772649703656643300,2.695643310546875,0.2617885172367096,-0.16884426772594452,-0.6502102017402649
1772649703666647300,2.705647216796875,0.29268115758895874,-0.3499390780925751,-0.39241644740104675
1772649703676651300,2.7156513671875,0.31238853931427,-0.3957453966140747,-0.19054901599884033
1772649703686655500,2.725655517578125,0.2745716869831085,-0.4761728048324585,-0.02809632569551468
1772649703696659200,2.7356591796875,0.18349164724349976,-0.5768402218818665,0.11571425199508667
1772649703706663400,2.745663330078125,0.03115895763039589,-0.6562023162841797,0.20999006927013397
1772649703716667400,2.75566748046875,-0.12596741318702698,-0.721716046333313,0.2850911617279053
1772649703726671400,2.76567138671875,-0.26977798342704773,-0.7195855379104614,0.3133206367492676
1772649703736675300,2.77567529296875,-0.3896201252937317,-0.6450170874595642,0.31545117497444153
1772649703746679300,2.78567919921875,-0.43862226605415344,-0.46978121995925903,0.28189536929130554
1772649703756683300,2.795683349609375,-0.4450138509273529,-0.14753900468349457,0.20785954594612122
1772649703766687200,2.805687255859375,-0.3961448669433594,0.17097479104995728,0.1519332081079483
1772649703776691200,2.815691162109375,-0.3103911578655243,0.46498751640319824,0.14660689234733582
1772649703786695200,2.825695068359375,-0.18096163868904114,0.7233139276504517,0.16897742450237274
1772649703796699100,2.83569921875,0.040613170713186264,1.1563435792922974,0.473110169172287
1772649703806703000,2.845703125,0.41292276978492737,2.1145482063293457,1.6534221172332764
1772649703816707000,2.85570703125,0.5359607338905334,1.3576784133911133,2.865159511566162
1772649703826711000,2.8657109375,0.09920266270637512,-1.8913754224777222,2.598310947418213
1772649703836715300,2.87571533203125,-0.1639174222946167,-2.787261962890625,1.5181336402893066
1772649703846719200,2.88571923828125,-0.3183806240558624,-1.1387667655944824,0.3889543414115906
1772649703856723200,2.89572314453125,-0.271509051322937,0.8756465911865234,-0.1170458272099495
1772649703866727200,2.90572705078125,-0.18415743112564087,0.52837073802948,0.040613170713186264
1772649703876731100,2.915731201171875,-0.8579366207122803,-0.31744852662086487,0.07044055312871933
1772649703886735000,2.925735107421875,-1.0161283016204834,-0.34621065855026245,-0.3002711534500122
1772649703896739000,2.935739013671875,-0.6299701929092407,-0.18961690366268158,-0.5559344291687012
1772649703906743000,2.945742919921875,-0.25126904249191284,0.24288007616996765,-0.41585224866867065
1772649703916747000,2.9557470703125,0.10932266712188721,0.7701855301856995,-0.08242476731538773
1772649703926751000,2.9657509765625,0.3319627344608307,1.1739203929901123,0.20679427683353424
1772649703936755000,2.9757548828125,0.3873564600944519,1.267130970954895,0.27124273777008057
1772649703946759000,2.985759033203125,0.3601922392845154,1.3038825988769531,0.15406373143196106
1772649703956763000,2.995762939453125,0.2973416745662689,1.2096067667007446,0.012383688241243362
1772649703966766800,3.005766845703125,0.20746007561683655,1.036501407623291,-0.02330263890326023
1772649703976770800,3.015770751953125,0.027963167056441307,0.7307707667350769,-0.05259738489985466
1772649703986775000,3.025775146484375,-0.158457949757576,0.37444013357162476,-0.150068998336792
1772649703996779000,3.035779052734375,-0.31984537839889526,0.09693898260593414,-0.324239581823349
1772649704006783000,3.045782958984375,-0.46631911396980286,-0.07297055423259735,-0.5410206913948059
1772649704016787000,3.055786865234375,-0.5760412216186523,-0.07403581589460373,-0.7354313135147095
1772649704026791000,3.065791015625,-0.594150722026825,0.06285054981708527,-0.8398271203041077
1772649704036795000,3.075794921875,-0.5542033314704895,0.22050954401493073,-0.8227829337120056
1772649704046798800,3.085798828125,-0.5004075169563293,0.3014695644378662,-0.6731134057044983
1772649704056802800,3.095802734375,-0.44767698645591736,0.21571587026119232,-0.4089280366897583
1772649704066807000,3.10580712890625,-0.40133804082870483,-0.005326317623257637,-0.15539531409740448
1772649704076811300,3.115811279296875,-0.33422642946243286,-0.16298532485961914,0.0006657897029072046
1772649704086815500,3.1258154296875,-0.19893796741962433,-0.1794968992471695,0.09867003560066223
1772649704096819700,3.13581982421875,-0.07270423322916031,-0.052197910845279694,0.14554162323474884
1772649704106824000,3.145823974609375,0.025300009176135063,0.08628634363412857,0.12050793319940567
1772649704116828200,3.155828125,0.11265161633491516,0.25193482637405396,-0.013182636350393295
1772649704126832400,3.165832275390625,0.21651481091976166,0.43729066848754883,-0.22623534500598907
1772649704136836600,3.175836669921875,0.31984537839889526,0.4894886016845703,-0.4611259400844574
1772649704146840800,3.1858408203125,0.43276330828666687,0.423974871635437,-0.7178544402122498
1772649704156845300,3.19584521484375,0.5440833568572998,0.3669832944869995,-0.9799093008041382
1772649704166849500,3.205849609375,0.6451502442359924,0.39734330773353577,-1.1833746433258057
1772649704176853800,3.215853759765625,0.7340997457504272,0.45540016889572144,-1.2819114923477173
1772649704186858000,3.22585791015625,0.8150597810745239,0.3765706419944763,-1.2387683391571045
1772649704196862200,3.2358623046875,0.9008134603500366,0.10333056002855301,-1.0635324716567993
1772649704206866400,3.245866455078125,0.9849692583084106,-0.23276008665561676,-0.7386270761489868
1772649704216870700,3.25587060546875,0.9583377242088318,-0.5427517890930176,-0.2853574752807617
1772649704226875000,3.265875,0.7884281873703003,-0.7866970896720886,0.10080055892467499
1772649704236879000,3.275879150390625,0.6147902011871338,-0.9885645508766174,0.3271690607070923
1772649704246883300,3.28588330078125,0.44221752882003784,-1.1073414087295532,0.4496743679046631
1772649704256887600,3.295887451171875,0.28136274218559265,-1.1696593761444092,0.5269059538841248
1772649704266891800,3.305891845703125,0.1327584683895111,-1.1861709356307983,0.4954806864261627
1772649704276896000,3.31589599609375,-0.022770008072257042,-1.195225715637207,0.3255711793899536
1772649704286900200,3.325900146484375,-0.13781847059726715,-1.0892319679260254,0.08855003118515015
1772649704296904400,3.335904541015625,-0.22783324122428894,-0.8596676588058472,-0.1351553052663803
1772649704306908700,3.34590869140625,-0.24594271183013916,-0.5438170433044434,-0.20013637840747833
1772649704316913000,3.355912841796875,-0.24594271183013916,-0.23329271376132965,-0.15805847942829132
1772649704326917000,3.365917236328125,-0.23209428787231445,0.08522108197212219,-0.08775108307600021
1772649704336921300,3.37592138671875,-0.23688797652721405,0.4143875241279602,0.10719214379787445
1772649704346925600,3.385925537109375,-0.1868205964565277,0.8681897521018982,0.4832301735877991
1772649704356929800,3.3959296875,0.005459475331008434,1.7012258768081665,1.30561363697052
1772649704366934000,3.40593408203125,0.0768321305513382,2.2402491569519043,2.8582351207733154
1772649704376938200,3.415938232421875,-0.498410165309906,-0.575242280960083,3.149052143096924
1772649704386942700,3.425942626953125,-0.7620629072189331,-2.8985819816589355,2.2137508392333984
1772649704396947000,3.435947021484375,-0.4238417148590088,-1.8487648963928223,0.9727187752723694
1772649704406951000,3.445950927734375,0.08002792298793793,0.373374879360199,0.3314301073551178
1772649704416955100,3.455955078125,0.09494160860776901,0.47457489371299744,0.43156489729881287
1772649704426959600,3.465959716796875,-0.5916207432746887,0.023435797542333603,0.18122795224189758
1772649704436963800,3.4759638671875,-0.9937577247619629,-0.3904190957546234,-0.3716438114643097
1772649704446968000,3.485968017578125,-0.9191892743110657,-0.3451453745365143,-0.5143890976905823
1772649704456972300,3.49597216796875,-0.6182523369789124,-0.021305270493030548,-0.3279680013656616
1772649704466976500,3.5059765625,-0.2304963916540146,0.34248220920562744,-0.08934897929430008
1772649704476980700,3.515980712890625,0.044874224811792374,0.6024065017700195,0.09121318906545639
1772649704486985000,3.52598486328125,0.23342587053775787,0.7707181572914124,0.1237037256360054
1772649704496989200,3.5359892578125,0.3277016878128052,0.8037413358688354,-0.06751107424497604
1772649704506993400,3.545993408203125,0.2595248222351074,0.5683180689811707,-0.3748396039009094
1772649704516997600,3.55599755859375,0.06937528401613235,0.1651158481836319,-0.6118607521057129
1772649704527001900,3.566001953125,-0.18096163868904114,0.002130527049303055,-0.741290271282196
1772649704537006000,3.576006103515625,-0.39774277806282043,-0.013848425820469856,-0.758867084980011
1772649704547010300,3.58601025390625,-0.531965970993042,0.01438105758279562,-0.6539386510848999
1772649704557014500,3.5960146484375,-0.6821681261062622,0.051132649183273315,-0.5255743861198425
1772649704567019000,3.60601904296875,-0.816923975944519,0.08522108197212219,-0.46378910541534424
1772649704577023500,3.6160234375,-0.8478165864944458,0.07510107755661011,-0.5165196657180786
1772649704587027700,3.62602783203125,-0.7865639328956604,0.13475583493709564,-0.6331660151481628
1772649704597032200,3.6360322265625,-0.6821681261062622,0.23222744464874268,-0.6896249651908875
1772649704607036700,3.64603662109375,-0.5761744379997253,0.31265485286712646,-0.6486123204231262
1772649704617041200,3.656041259765625,-0.45260384678840637,0.3387537896633148,-0.5633912682533264
1772649704627045400,3.66604541015625,-0.3061301112174988,0.3499390780925751,-0.3769701421260834
1772649704637049900,3.6760498046875,-0.15752583742141724,0.3579285442829132,-0.1591237336397171
1772649704647054300,3.686054443359375,-0.012117372825741768,0.3312969505786896,-0.0057257916778326035
1772649704657058800,3.696058837890625,0.09867003560066223,0.38828855752944946,0.07843002676963806
1772649704667063000,3.70606298828125,0.18335849046707153,0.5811012387275696,0.11944267153739929
1772649704677067500,3.716067626953125,0.25845956802368164,0.6498107314109802,0.0954742431640625
1772649704687072000,3.726072021484375,0.32024484872817993,0.4111917316913605,-0.05259738489985466
1772649704697076200,3.736076171875,0.36658382415771484,-0.038882117718458176,-0.3237069547176361
1772649704707080700,3.746080810546875,0.3884217143058777,-0.4245075285434723,-0.6566017866134644
1772649704717085200,3.756085205078125,0.39854171872138977,-0.4772380590438843,-0.9841703176498413
1772649704727089700,3.766089599609375,0.39374804496765137,-0.22050954401493073,-1.1785808801651
1772649704737094000,3.776093994140625,0.3793669641017914,0.021305270493030548,-1.2233220338821411
1772649704747098400,3.786098388671875,0.3681817054748535,0.030892642214894295,-1.1088061332702637
1772649704757102800,3.796102783203125,0.37510591745376587,-0.17097479104995728,-0.7636607885360718
1772649704767107300,3.806107421875,0.39428067207336426,-0.47883594036102295,-0.2970753610134125
1772649704777111800,3.81611181640625,0.3553985357284546,-0.7712507843971252,0.12636688351631165
1772649704787116000,3.826115966796875,0.2659164071083069,-1.0098698139190674,0.4635227918624878
1772649704797120500,3.83612060546875,0.13595426082611084,-1.1057435274124146,0.6701838970184326
1772649704807125000,3.846125,0.008122634142637253,-1.0807098150253296,0.7426218390464783
1772649704817129500,3.85612939453125,-0.08721844851970673,-0.9502150416374207,0.6755102276802063
1772649704827133700,3.8661337890625,-0.12024161964654922,-0.7334339618682861,0.4763059616088867
1772649704837138200,3.87613818359375,-0.11970898509025574,-0.4250401556491852,0.1801626980304718
1772649704847142700,3.886142578125,-0.07603318244218826,-0.07723160833120346,-0.07656581699848175
1772649704857147100,3.896147216796875,-0.02010684832930565,0.26738113164901733,-0.25180166959762573
1772649704867151400,3.9061513671875,0.045540016144514084,0.5555348992347717,-0.30293431878089905
1772649704877155800,3.91615576171875,0.1350221484899521,0.7691202759742737,-0.28482484817504883
1772649704887160300,3.926160400390625,0.190948486328125,1.019457221031189,-0.02703106217086315
1772649704897164800,3.936164794921875,0.2767021954059601,1.5552847385406494,0.8507460951805115
1772649704907169000,3.9461689453125,0.41092541813850403,2.1390490531921387,2.4475760459899902
1772649704917173500,3.956173583984375,0.14194636046886444,-0.04527369886636734,3.043591022491455
1772649704927178000,3.966177978515625,-0.4040012061595917,-3.248521089553833,2.6350624561309814
1772649704937182500,3.976182373046875,-0.3411506414413452,-2.747847318649292,1.9128137826919556
1772649704947186700,3.986186767578125,0.21278639137744904,0.2545979917049408,1.06273353099823
1772649704957191200,3.996191162109375,0.572845458984375,1.1590067148208618,0.40919435024261475
1772649704967195600,4.006195556640625,0.05712475627660751,0.23009692132472992,0.17217321693897247
1772649704977199900,4.016199951171875,-0.5127912163734436,-0.22743375599384308,-0.05579317733645439
1772649704987204400,4.026204345703125,-0.8211849927902222,-0.20612849295139313,-0.1585911065340042
1772649704997208800,4.036208740234375,-0.8286418914794922,-0.08415582031011581,-0.030226852744817734
1772649705007213300,4.04621337890625,-0.6033385992050171,0.03994738310575485,0.17164058983325958
1772649705017217800,4.0562177734375,-0.42490699887275696,0.17736637592315674,0.2510027289390564
1772649705027222000,4.066221923828125,-0.20226691663265228,0.21837902069091797,0.08535423874855042
1772649705037226500,4.0762265625,0.10719214379787445,0.20453059673309326,-0.2960101068019867
1772649705047231000,4.08623095703125,0.22809955477714539,0.09161266684532166,-0.59002286195755
1772649705057235500,4.0962353515625,0.21052271127700806,-0.07669897377490997,-0.6816354990005493
1772649705067240200,4.106240234375,0.06191844120621681,-0.06870950013399124,-0.7061365842819214
1772649705077245200,4.1162451171875,-0.0318247489631176,-0.12357056885957718,-0.7396923303604126
1772649705087250200,4.126250244140625,-0.07070686668157578,-0.22796639800071716,-0.7498123645782471
1772649705097255200,4.136255126953125,-0.18948374688625336,-0.2929474711418152,-0.8115976452827454
1772649705107260200,4.14626025390625,-0.35992592573165894,-0.348341166973114,-0.9245156049728394
1772649705117265200,4.15626513671875,-0.5032038688659668,-0.2721748352050781,-0.9793766736984253
1772649705127270000,4.166269775390625,-0.5793702006340027,-0.17630110681056976,-0.9554082155227661
1772649705137275000,4.17627490234375,-0.5846965312957764,-0.14434321224689484,-0.8483492136001587
1772649705147280000,4.18627978515625,-0.5143890976905823,-0.12357056885957718,-0.6651239395141602
1772649705157284900,4.196284912109375,-0.40733012557029724,-0.10013477504253387,-0.4243743419647217
1772649705167289900,4.206289794921875,-0.2635195553302765,-0.1368863582611084,-0.21931113302707672
1772649705177294800,4.216294921875,-0.11598056554794312,-0.10226529836654663,-0.08402266353368759
1772649705187299800,4.2262998046875,0.06937528401613235,0.042610540986061096,0.05819002166390419
1772649705197304600,4.2363046875,0.22383849322795868,0.20453059673309326,0.18655426800251007
1772649705207309600,4.2463095703125,0.30586379766464233,0.16831164062023163,0.1988048106431961
1772649705217314600,4.256314453125,0.34368064999580383,-0.1081242486834526,0.0624510757625103
1772649705227319600,4.266319580078125,0.3591269552707672,-0.28495800495147705,-0.14687320590019226
1772649705237324500,4.276324462890625,0.3548659086227417,-0.32277485728263855,-0.4286354184150696
1772649705247329500,4.28632958984375,0.3543332815170288,-0.23276008665561676,-0.7045386433601379
1772649705257334300,4.296334228515625,0.3820301294326782,-0.08202528953552246,-0.8558061122894287
1772649705267339300,4.30633935546875,0.4411522448062897,-0.015446321107447147,-0.8195871114730835
1772649705277344300,4.31634423828125,0.48908910155296326,-0.022903166711330414,-0.6187849640846252
1772649705287349200,4.326349365234375,0.4503401517868042,-0.3249053657054901,-0.32104378938674927
1772649705297354200,4.336354248046875,0.3507380187511444,-0.8101329207420349,0.009720529429614544
1772649705307359200,4.346359130859375,0.20852532982826233,-1.0301098823547363,0.29680904746055603
1772649705317364000,4.356364013671875,0.04607264697551727,-1.0077393054962158,0.4763059616088867
1772649705327369000,4.366368896484375,-0.08602003008127213,-0.88150554895401,0.5524722933769226
1772649705337374000,4.3763740234375,-0.19680742919445038,-0.6114612817764282,0.5418196320533752
1772649705347379000,4.38637890625,-0.28256115317344666,-0.3904190957546234,0.47470805048942566
1772649705357384000,4.396384033203125,-0.3326285481452942,-0.24234744906425476,0.4171838164329529
1772649705367388700,4.406388671875,-0.2816290557384491,-0.0010652635246515274,0.4107922613620758
1772649705377394000,4.416393798828125,-0.21238692104816437,0.2034653276205063,0.374573290348053
1772649705387398700,4.426398681640625,-0.11385004222393036,0.3446127474308014,0.23875218629837036
1772649705397403600,4.436403564453125,0.0011984214652329683,0.48842331767082214,0.10399635136127472
1772649705407408600,4.44640869140625,0.1380847841501236,0.6615286469459534,0.07363633811473846
1772649705417413600,4.45641357421875,0.2808300852775574,0.8894950151443481,0.18122795224189758
1772649705427418600,4.466418701171875,0.4688491225242615,1.3859078884124756,0.6627270579338074
1772649705437423400,4.47642333984375,0.5316996574401855,2.2381186485290527,2.324005603790283
1772649705447428400,4.486428466796875,-0.11757846176624298,-0.4894886016845703,2.804971933364868
1772649705457433300,4.496433349609375,-0.737561821937561,-2.6466472148895264,1.7748621702194214
1772649705467438300,4.506438232421875,-0.6182523369789124,-0.8692550659179688,0.5833649635314941
1772649705477443300,4.516443359375,-0.1356879472732544,0.9171919226646423,0.35220274329185486
1772649705487448300,4.5264482421875,-0.08562055230140686,-0.09321055561304092,0.6360954642295837
1772649705497453000,4.536453125,-0.704006016254425,-1.1392993927001953,0.4768385887145996
1772649705507458000,4.5464580078125,-0.8291745185852051,-0.8127960562705994,-0.06591317802667618
1772649705517463000,4.556463134765625,-0.5181175470352173,-0.4628570079803467,-0.29814061522483826
1772649705527468000,4.566468017578125,-0.31678274273872375,-0.30892643332481384,-0.24008376896381378
1772649705537473000,4.57647314453125,0.031558431684970856,0.03834948688745499,-0.05153212323784828
1772649705547478000,4.58647802734375,0.2829606235027313,0.3499390780925751,0.2126532346010208
1772649705557482800,4.596482666015625,0.3788343369960785,0.4703138470649719,0.33409327268600464
1772649705567486700,4.60648681640625,0.35167011618614197,0.36165696382522583,0.08002792298793793
1772649705577490700,4.61649072265625,0.2755037844181061,0.19920428097248077,-0.37750276923179626
1772649705587494400,4.626494384765625,0.25419852137565613,0.11504846066236496,-0.699212372303009
1772649705597498400,4.636498291015625,0.25366586446762085,0.10759161412715912,-0.7753787040710449
1772649705607502300,4.64650244140625,0.20999006927013397,0.08362318575382233,-0.6821681261062622
1772649705617506000,4.656506103515625,0.05392896756529808,0.05326317623257637,-0.5692501664161682
1772649705627510000,4.666510009765625,-0.12503530085086823,0.02876211516559124,-0.5266396403312683
1772649705637514000,4.676513916015625,-0.3151848316192627,-0.009587371721863747,-0.6123933792114258
1772649705647517700,4.686517578125,-0.4408859312534332,-0.038882117718458176,-0.7173218131065369
1772649705657521700,4.696521728515625,-0.5346291065216064,-0.05805686116218567,-0.7727155089378357
1772649705667525600,4.706525634765625,-0.5703154802322388,-0.1081242486834526,-0.7641934156417847
1772649705677529300,4.716529296875,-0.5532712340354919,-0.0846884474158287,-0.7183870673179626
1772649705687533300,4.726533203125,-0.47657227516174316,-0.001597895286977291,-0.6230459809303284
1772649705697537300,4.736537353515625,-0.3711111843585968,0.08096002787351608,-0.47710490226745605
1772649705707541000,4.746541015625,-0.24700798094272614,0.1794968992471695,-0.2954774796962738
1772649705717545000,4.756544921875,-0.1351553052663803,0.2503369152545929,-0.10958898812532425
1772649705727549000,4.766548828125,-0.004660528153181076,0.34141695499420166,0.05712475627660751
1772649705737552600,4.776552734375,0.12689951062202454,0.5518065094947815,0.1759016364812851
1772649705747556600,4.786556640625,0.25899219512939453,0.688160240650177,0.1759016364812851
1772649705757560600,4.796560546875,0.38575854897499084,0.6407560110092163,0.06351634114980698
1772649705767564300,4.806564208984375,0.4581964612007141,0.5166528224945068,-0.12503530085086823
1772649705777568300,4.816568359375,0.4736427962779999,0.3962780237197876,-0.36951327323913574
1772649705787572200,4.826572265625,0.4635227918624878,0.24927166104316711,-0.6454165577888489
1772649705797576000,4.836575927734375,0.4528701603412628,0.16831164062023163,-0.8611323833465576
1772649705807580000,4.846579833984375,0.4725775420665741,0.11451582610607147,-0.9127976894378662
1772649705817583900,4.856583984375,0.5471459627151489,0.1129179298877716,-0.7604650259017944
1772649705827587600,4.866587646484375,0.6190512776374817,0.21092218160629272,-0.4749743640422821
1772649705837591600,4.876591552734375,0.5727123022079468,0.19707375764846802,-0.19534270465373993
1772649705847595500,4.886595458984375,0.49920910596847534,0.11132004112005234,0.06990791857242584
1772649705857599200,4.89659912109375,0.43209752440452576,0.06072001904249191,0.28455850481987
1772649705867603200,4.906603271484375,0.37670382857322693,0.03249053657054901,0.40440067648887634
1772649705877607200,4.916607177734375,0.28562378883361816,-0.019707374274730682,0.41292276978492737
1772649705887611000,4.92661083984375,0.17377111315727234,-0.10226529836654663,0.29680904746055603
1772649705897614800,4.93661474609375,0.09334371984004974,-0.10599371790885925,0.11624687910079956
1772649705907618800,4.946618896484375,0.028362641111016273,-0.04580633342266083,-0.07763107866048813
1772649705917622500,4.95662255859375,-0.08615318685770035,-0.03195790573954582,-0.2155826985836029
1772649705927626500,4.96662646484375,-0.17616795003414154,0.09640634804964066,-0.17989638447761536
1772649705937630500,4.97663037109375,-0.20333217084407806,0.2125200778245926,-0.10586056113243103
1772649705947634400,4.986634521484375,-0.24967113137245178,0.34727591276168823,0.007590002380311489
1772649705957638100,4.99663818359375,-0.30826061964035034,0.4767054319381714,0.19827216863632202
1772649705967642000,5.00664208984375,-0.3748396039009094,0.7323686480522156,0.5753754377365112
1772649705977645800,5.016645751953125,-0.334892213344574,1.7539564371109009,1.8616812229156494
1772649705987649800,5.02664990234375,-0.3380880057811737,0.9603350758552551,3.1660964488983154
1772649705997653800,5.03665380859375,-0.13462267816066742,-2.014413356781006,2.1381170749664307
1772649706007657500,5.046657470703125,0.37510591745376587,-1.4615415334701538,0.04966791346669197
1772649706017661400,5.056661376953125,0.8006786704063416,-0.25672850012779236,-0.6693849563598633
1772649706027665400,5.06666552734375,0.677108108997345,-0.7835013270378113,0.16791217029094696
1772649706037669400,5.07666943359375,0.19773954153060913,-1.246890902519226,0.4150533080101013
1772649706047673000,5.086673095703125,-0.3721764385700226,-1.0082719326019287,-0.06751107424497604
1772649706057677000,5.096677001953125,-0.6422207355499268,-0.6354296803474426,-0.41212382912635803
1772649706067681300,5.106681396484375,-0.6997449994087219,-0.5022717714309692,-0.2874879837036133
1772649706077685500,5.116685546875,-0.5074648857116699,-0.43622541427612305,-0.03129211440682411
1772649706087689700,5.126689697265625,-0.24541008472442627,-0.1880190074443817,0.09227845072746277
1772649706097693700,5.136693603515625,-0.03342264145612717,0.002130527049303055,0.001731053227558732
1772649706107698000,5.146697998046875,0.13488899171352386,0.00852210819721222,-0.3482080101966858
1772649706117702100,5.1567021484375,0.23608903586864471,0.019174743443727493,-0.5585975646972656
1772649706127706400,5.166706298828125,0.2089248150587082,0.12623372673988342,-0.5149217844009399
1772649706137710600,5.176710693359375,0.03475422412157059,0.30413272976875305,-0.43502700328826904
1772649706147714800,5.18671484375,-0.07283739000558853,0.3440801203250885,-0.3817638158798218
1772649706157719000,5.196718994140625,-0.2720416784286499,0.325437992811203,-0.4323638379573822
1772649706167723300,5.20672314453125,-0.5239765048027039,0.21837902069091797,-0.5554017424583435
1772649706177727200,5.216727294921875,-0.7396923303604126,0.11504846066236496,-0.628372311592102
1772649706187731500,5.2267314453125,-0.8851008415222168,0.07936213165521622,-0.6267744302749634
1772649706197735700,5.236735595703125,-0.951147198677063,0.0846884474158287,-0.5985449552536011
1772649706207740000,5.246739990234375,-0.9186566472053528,0.13315793871879578,-0.5202480554580688
1772649706217744100,5.256744140625,-0.7998797297477722,0.13102741539478302,-0.3812311887741089
1772649706227748400,5.266748291015625,-0.6262418031692505,0.04048001393675804,-0.26458483934402466
1772649706237752600,5.276752685546875,-0.4286354184150696,-0.08575371652841568,-0.17723321914672852
1772649706247756800,5.2867568359375,-0.20333217084407806,-0.05326317623257637,-0.054727911949157715
1772649706257761000,5.296760986328125,-0.04034685716032982,0.059122126549482346,0.052331071346998215
1772649706267765000,5.306764892578125,0.09973529726266861,-0.042610540986061096,0.09334371984004974
1772649706277769200,5.316769287109375,0.19188059866428375,-0.28975167870521545,0.044341593980789185
1772649706287773400,5.3267734375,0.2467416673898697,-0.45060646533966064,-0.13462267816066742
1772649706297777700,5.336777587890625,0.28136274218559265,-0.3451453745365143,-0.4094606637954712
1772649706307782000,5.346781982421875,0.27656903862953186,0.001597895286977291,-0.6986796855926514
1772649706317786000,5.3567861328125,0.24514377117156982,0.24447797238826752,-0.9287766218185425
1772649706327790300,5.366790283203125,0.2137184888124466,0.17044216394424438,-0.9639303088188171
1772649706337794600,5.376794677734375,0.23076270520687103,-0.2258358597755432,-0.7418228983879089
1772649706347798500,5.386798583984375,0.33249539136886597,-0.43089908361434937,-0.39667749404907227
1772649706357802800,5.396802734375,0.38469329476356506,-0.4245075285434723,-0.04407527670264244
1772649706367807000,5.406806884765625,0.37563854455947876,-0.47297701239585876,0.2563290297985077
1772649706377811200,5.416811279296875,0.33409327268600464,-0.5001412034034729,0.4534027874469757
1772649706387815400,5.4268154296875,0.2840258777141571,-0.47350963950157166,0.5263733267784119
1772649706397819600,5.436819580078125,0.20626164972782135,-0.43196436762809753,0.473110169172287
1772649706407824000,5.446823974609375,0.0810931846499443,-0.3456780016422272,0.2888195812702179
1772649706417828000,5.456828125,-0.07709844410419464,-0.28016430139541626,0.04167843610048294
1772649706427832000,5.46683203125,-0.14900372922420502,-0.21305270493030548,-0.16178689897060394
1772649706437836300,5.476836181640625,-0.11598056554794312,0.04474106803536415,-0.26085641980171204
1772649706447840500,5.486840576171875,-0.09041424095630646,0.22370533645153046,-0.2725743055343628
1772649706457844700,5.4968447265625,-0.013582110404968262,0.42610540986061096,-0.17084163427352905
1772649706467849000,5.506848876953125,0.07590002566576004,0.6450170874595642,-0.08189213275909424
1772649706477853200,5.516853271484375,0.1291632056236267,0.9635308384895325,0.003328948514536023
1772649706487857400,5.526857421875,0.13768531382083893,1.3411667346954346,0.19773954153060913
1772649706497861600,5.536861572265625,0.18349164724349976,2.2098891735076904,1.1080071926116943
1772649706507865600,5.546865478515625,0.09081371873617172,1.9771291017532349,2.328799247741699
1772649706517869800,5.556869873046875,-0.4311653971672058,-1.2783162593841553,2.3623549938201904
1772649706527874000,5.5668740234375,-0.6543381214141846,-3.010434627532959,2.1040287017822266
1772649706537878300,5.576878173828125,-0.40559908747673035,-1.3124046325683594,1.6076158285140991
1772649706547882500,5.586882568359375,-0.06098633632063866,0.3877559304237366,0.9056071639060974
1772649706557886700,5.59688671875,-0.10412950813770294,0.2588590383529663,0.4342280328273773
1772649706567891500,5.606891357421875,-0.5724459886550903,-0.17363795638084412,0.17270584404468536
1772649706577896000,5.61689599609375,-0.8099997639656067,-0.20825901627540588,0.08801739662885666
1772649706587900700,5.626900634765625,-0.8387618660926819,-0.18002954125404358,0.03848264366388321
1772649706597905400,5.636905517578125,-0.6171870827674866,-0.011185267008841038,0.005992107093334198
1772649706607910000,5.646909912109375,-0.2773679792881012,0.1890842765569687,-0.04301001504063606
1772649706617914600,5.65691455078125,0.024634219706058502,0.37017908692359924,-0.07709844410419464
1772649706627919000,5.666919189453125,0.22543638944625854,0.4772380590438843,-0.1442100554704666
1772649706637923800,5.676923828125,0.37137749791145325,0.3866906464099884,-0.27523747086524963
1772649706647928600,5.686928466796875,0.4209122359752655,0.21944428980350494,-0.5032038688659668
1772649706657933000,5.69693310546875,0.4070638120174408,0.012250530533492565,-0.670982837677002
1772649706667937800,5.706937744140625,0.36285537481307983,-0.06924212723970413,-0.7130607962608337
1772649706677942500,5.716942626953125,0.24993745982646942,-0.08149266242980957,-0.6779070496559143
1772649706687947000,5.726947021484375,0.1002679318189621,0.01704421639442444,-0.6017407178878784
1772649706697951700,5.73695166015625,-0.06857633590698242,0.11611372232437134,-0.4845617413520813
1772649706707956500,5.74695654296875,-0.24594271183013916,0.18162743747234344,-0.4217112064361572
1772649706717961000,5.7569609375,-0.3673827648162842,0.19228006899356842,-0.4803006947040558
1772649706727965700,5.766965576171875,-0.4382227957248688,0.08202528953552246,-0.6683197021484375
1772649706737970400,5.776970458984375,-0.4600606858730316,-0.070840023458004,-0.7972165942192078
1772649706747975000,5.786974853515625,-0.41585224866867065,-0.14274531602859497,-0.7791070938110352
1772649706757979600,5.796979736328125,-0.324239581823349,-0.14807163178920746,-0.5974797010421753
1772649706767984400,5.806984375,-0.22676797211170197,-0.14327794313430786,-0.30346694588661194
1772649706777988900,5.81698876953125,-0.13409005105495453,-0.10066740214824677,-0.01957421749830246
1772649706787993600,5.82699365234375,-0.04354264587163925,0.007989476434886456,0.1609879434108734
1772649706797998000,5.836998046875,0.07576686888933182,0.20133480429649353,0.2419479787349701
1772649706808002800,5.8470029296875,0.18282584846019745,0.4298338294029236,0.24407850205898285
1772649706818007600,5.857007568359375,0.265383780002594,0.46498751640319824,0.18602164089679718
1772649706828012000,5.867011962890625,0.2834932506084442,0.15180005133152008,0.01717737503349781
1772649706838016800,5.877016845703125,0.24035008251667023,-0.38988643884658813,-0.3151848316192627
1772649706848021500,5.887021484375,0.18602164089679718,-0.700410783290863,-0.6949512958526611
1772649706858026000,5.89702587890625,0.16045531630516052,-0.6167875528335571,-1.027846097946167
1772649706868030700,5.90703076171875,0.17430374026298523,-0.4719117283821106,-1.287770390510559
1772649706878035500,5.917035400390625,0.21584902703762054,-0.41705065965652466,-1.3468925952911377
1772649706888040000,5.9270400390625,0.273905873298645,-0.3723095953464508,-1.0890988111495972
1772649706898044700,5.937044677734375,0.3687143325805664,-0.314785361289978,-0.6219807267189026
1772649706908049200,5.947049072265625,0.3442132771015167,-0.3020022213459015,-0.1213068813085556
1772649706918054000,5.957053955078125,0.26378586888313293,-0.415452778339386,0.3415501117706299
1772649706928058600,5.96705859375,0.16311848163604736,-0.4724443852901459,0.7159902453422546
1772649706938063000,5.97706298828125,0.08801739662885666,-0.5065327882766724,0.9508808255195618
1772649706948067800,5.98706787109375,-0.004660528153181076,-0.5406212210655212,0.9343692660331726
1772649706958072600,5.997072509765625,-0.1026647686958313,-0.4772380590438843,0.7410239577293396
1772649706968077000,6.0070771484375,-0.22197428345680237,-0.3312969505786896,0.4629901647567749
1772649706978081800,6.017081787109375,-0.32690274715423584,-0.1693768948316574,0.2174469232559204
1772649706988086500,6.02708642578125,-0.42064592242240906,-0.029294747859239578,0.0906805545091629
1772649706998091000,6.037091064453125,-0.4952143728733063,0.05432844161987305,0.02623211406171322
1772649707008095700,6.047095703125,-0.475506991147995,0.2215748131275177,0.039547909051179886
1772649707018100500,6.0571005859375,-0.43076592683792114,0.46871596574783325,0.2376869171857834
1772649707028105000,6.06710498046875,-0.3519364297389984,0.876711905002594,0.6797713041305542
1772649707038109700,6.077109619140625,-0.042477384209632874,1.7321184873580933,1.5927021503448486
1772649707048114200,6.0871142578125,0.23449113965034485,1.4940321445465088,2.4614245891571045
1772649707058119000,6.097118896484375,0.11358372122049332,-1.6149394512176514,1.7727316617965698
1772649707068123000,6.107122802734375,0.16684690117835999,-2.5033693313598633,0.5519396662712097
1772649707078126800,6.117126953125,0.43209752440452576,-0.8399602770805359,-0.271509051322937
1772649707088130800,6.127130859375,0.5498091578483582,0.5075980424880981,-0.1170458272099495
1772649707098134800,6.137134765625,0.17323848605155945,0.3573959171772003,0.4523375332355499
1772649707108138800,6.147138671875,-0.5111933350563049,-0.4207790791988373,0.6819018125534058
1772649707118142700,6.157142822265625,-1.0875009298324585,-0.2119874358177185,0.5103943943977356
1772649707128146700,6.167146728515625,-1.0448904037475586,-0.14008215069770813,0.13488899171352386
1772649707138150700,6.177150634765625,-0.6267744302749634,-0.02077263966202736,-0.1830921620130539
1772649707148154600,6.187154541015625,-0.2443448156118393,0.3350253701210022,-0.2576606273651123
1772649707158158600,6.19715869140625,0.01717737503349781,0.4719117283821106,-0.1644500494003296
1772649707168162800,6.207162841796875,0.1620532125234604,0.4340948760509491,-0.024900535121560097
1772649707178166800,6.217166748046875,0.2270342856645584,0.37497276067733765,0.0027963167522102594
1772649707188170800,6.227170654296875,0.20253323018550873,0.1885516494512558,-0.11491530388593674
1772649707198174700,6.2371748046875,0.06404896825551987,0.07669897377490997,-0.2858901023864746
1772649707208178700,6.2471787109375,-0.037683695554733276,0.13315793871879578,-0.43875542283058167
1772649707218182700,6.2571826171875,-0.06697844713926315,0.26152220368385315,-0.5186501741409302
1772649707228186600,6.2671865234375,-0.04833633080124855,0.44101908802986145,-0.5500754714012146
1772649707238190600,6.277190673828125,-0.022237375378608704,0.6008086204528809,-0.6097301840782166
1772649707248194600,6.287194580078125,-0.006258423440158367,0.6913560032844543,-0.7018755078315735
1772649707258198500,6.297198486328125,-0.029161589220166206,0.6066675782203674,-0.8360987305641174
1772649707268202500,6.307202392578125,-0.07976160943508148,0.4724443852901459,-0.9026776552200317
1772649707278206500,6.31720654296875,-0.14367741346359253,0.32277485728263855,-0.8707197904586792
1772649707288210400,6.32721044921875,-0.13941636681556702,0.15765899419784546,-0.7317028641700745
1772649707298214400,6.33721435546875,-0.06644581258296967,0.05752423033118248,-0.5340964794158936
1772649707308218400,6.34721826171875,0.012383688241243362,0.035153694450855255,-0.33595749735832214
1772649707318222600,6.35722265625,0.0858868733048439,0.07456845045089722,-0.16072162985801697
1772649707328226600,6.3672265625,0.13915005326271057,0.10759161412715912,-0.06378265470266342
1772649707338230500,6.37723046875,0.19188059866428375,0.21518322825431824,0.02569948323071003
1772649707348234500,6.387234375,0.2467416673898697,0.39894118905067444,0.1284974068403244
1772649707358238500,6.397238525390625,0.2802974581718445,0.43622541427612305,0.12956267595291138
1772649707368242400,6.407242431640625,0.3026680052280426,0.08894950151443481,-0.08668582141399384
1772649707378246400,6.417246337890625,0.2925480008125305,-0.37444013357162476,-0.4382227957248688
1772649707388250400,6.42725048828125,0.28242799639701843,-0.5225117802619934,-0.754073441028595
1772649707398254300,6.43725439453125,0.29521116614341736,-0.3499390780925751,-0.9468861222267151
1772649707408258300,6.44725830078125,0.32344064116477966,-0.15659373998641968,-0.9639303088188171
1772649707418262300,6.45726220703125,0.35273537039756775,-0.11717899143695831,-0.7977492213249207
1772649707428266200,6.467266357421875,0.3820301294326782,-0.1890842765569687,-0.4850943684577942
1772649707438270200,6.477270263671875,0.3783017098903656,-0.16405057907104492,-0.10905635356903076
1772649707448274400,6.4872744140625,0.2850911617279053,-0.1890842765569687,0.21425113081932068
1772649707458278400,6.4972783203125,0.1524658352136612,-0.34194958209991455,0.4864259660243988
1772649707468282400,6.507282470703125,0.028895273804664612,-0.44581279158592224,0.6616618037223816
1772649707478286300,6.517286376953125,-0.05579317733645439,-0.47830331325531006,0.7000113129615784
1772649707488290300,6.527290283203125,-0.14207951724529266,-0.46338963508605957,0.6046702265739441
1772649707498294300,6.537294189453125,-0.2810963988304138,-0.38509276509284973,0.4486091136932373
1772649707508298200,6.54729833984375,-0.39667749404907227,-0.29401272535324097,0.26272061467170715
1772649707518302200,6.55730224609375,-0.4318312108516693,-0.2210421860218048,0.0858868733048439
1772649707528306200,6.56730615234375,-0.4190480411052704,0.0005326317623257637,0.010785792954266071
1772649707538310100,6.57731005859375,-0.36898064613342285,0.16777899861335754,0.03315632790327072
1772649707548314000,6.587314208984375,-0.23102903366088867,0.4846948981285095,0.10239845514297485
1772649707558318300,6.597318359375,-0.03981422260403633,0.8921582102775574,0.1567268967628479
1772649707568322800,6.60732275390625,0.1940111219882965,1.5739268064498901,0.4262385666370392
1772649707578327600,6.61732763671875,0.5386238694190979,2.768087387084961,1.414803147315979
1772649707588332000,6.62733203125,0.6158554553985596,1.7848490476608276,2.0976369380950928
1772649707598336500,6.63733642578125,0.30586379766464233,-1.4349099397659302,1.5921695232391357
1772649707608341200,6.64734130859375,0.23928481340408325,-2.2530324459075928,0.8097334504127502
1772649707618345700,6.657345703125,0.592952311038971,-0.48682543635368347,0.24461114406585693
1772649707628350500,6.6673505859375,0.5018723011016846,0.8761792778968811,0.11198582500219345
1772649707638355000,6.67735498046875,-0.3098585307598114,-0.051132649183273315,0.1849563866853714
1772649707648359700,6.687359619140625,-1.1210566759109497,-0.6306359767913818,0.0864195004105568
1772649707658364200,6.6973642578125,-1.1476882696151733,-0.5001412034034729,-0.11065424978733063
1772649707668369000,6.707368896484375,-0.7993471026420593,-0.2918822169303894,-0.25499746203422546
1772649707678373400,6.717373291015625,-0.5591301918029785,-0.046871595084667206,-0.19853848218917847
1772649707688378000,6.727378173828125,-0.37377434968948364,0.11611372232437134,-0.057923704385757446
1772649707698382600,6.737382568359375,-0.22197428345680237,0.17363795638084412,-0.014247899875044823
1772649707708387300,6.74738720703125,-0.062184758484363556,0.3302316963672638,-0.1591237336397171
1772649707718391800,6.757391845703125,0.07576686888933182,0.5507412552833557,-0.3897532820701599
1772649707728396500,6.767396484375,0.14500899612903595,0.6162549257278442,-0.5921533703804016
1772649707738401000,6.777401123046875,0.20200060307979584,0.4538022577762604,-0.7034733891487122
1772649707748405500,6.787405517578125,0.18389111757278442,0.23435798287391663,-0.762595534324646
1772649707758410200,6.79741015625,0.13701951503753662,0.03621895983815193,-0.8494145274162292
1772649707768414700,6.807414794921875,0.060853179544210434,-0.043143171817064285,-0.9532777070999146
1772649707778419500,6.81741943359375,-0.04301001504063606,0.010652635246515274,-1.0049430131912231
1772649707788424000,6.827423828125,-0.16072162985801697,0.007456844672560692,-0.9777787327766418
1772649707798428700,6.8374287109375,-0.216115340590477,-0.06391581147909164,-0.8712524175643921
1772649707808433200,6.84743310546875,-0.19427743554115295,-0.13209268450737,-0.7029407620429993
1772649707818438000,6.85743798828125,-0.08508792519569397,-0.15712636709213257,-0.5005406737327576
1772649707828442400,6.8674423828125,0.08002792298793793,-0.1597895324230194,-0.3109237849712372
1772649707838447000,6.877447021484375,0.25792694091796875,-0.1784316450357437,-0.16125427186489105
1772649707848451600,6.88745166015625,0.43635857105255127,-0.025566324591636658,-0.022770008072257042
1772649707858456300,6.897456298828125,0.5998765230178833,0.2125200778245926,0.06671212613582611
1772649707868460800,6.907460693359375,0.7335671186447144,0.22317270934581757,0.06831002235412598
1772649707878465500,6.917465576171875,0.819320797920227,0.066046342253685,-0.020639481022953987
1772649707888470000,6.927469970703125,0.8555397391319275,-0.050600018352270126,-0.17084163427352905
1772649707898474800,6.937474853515625,0.8379629254341125,-0.08202528953552246,-0.38868802785873413
1772649707908479200,6.947479248046875,0.7394260168075562,-0.043675802648067474,-0.5713807344436646
1772649707918484000,6.95748388671875,0.588691234588623,0.09001477062702179,-0.6560691595077515
1772649707928488400,6.967488525390625,0.5524722933769226,0.2636527121067047,-0.6028059720993042
1772649707938493200,6.9774931640625,0.43742382526397705,0.2119874358177185,-0.4179827868938446
1772649707948497700,6.98749755859375,0.21158796548843384,-0.066046342253685,-0.13302478194236755
1772649707958502400,6.99750244140625,-0.03129211440682411,-0.3717769682407379,0.20093533396720886
1772649707968507000,7.0075068359375,-0.23369218409061432,-0.6476802229881287,0.5024049282073975
1772649707978511400,7.017511474609375,-0.32583749294281006,-0.8655266165733337,0.7101312875747681
1772649707988516000,7.02751611328125,-0.35992592573165894,-0.9219855666160583,0.7958850264549255
1772649707998520600,7.0375205078125,-0.4089280366897583,-0.8436887264251709,0.7543397545814514
1772649708008525300,7.047525390625,-0.47231122851371765,-0.6215812563896179,0.647280752658844
1772649708018529800,7.05752978515625,-0.5420860052108765,-0.3531348705291748,0.5098617672920227
1772649708028534500,7.067534423828125,-0.5660544037818909,-0.07936213165521622,0.3777690827846527
1772649708038539000,7.0775390625,-0.49681228399276733,0.2125200778245926,0.2557964026927948
1772649708048543700,7.087543701171875,-0.3860248625278473,0.42717066407203674,0.07363633811473846
1772649708058548200,7.09754833984375,-0.16977638006210327,0.6024065017700195,-0.1165132001042366
1772649708068552200,7.10755224609375,0.04966791346669197,0.8335686922073364,-0.2954774796962738
1772649708078556400,7.117556396484375,0.2323606014251709,1.158474087715149,-0.3753722310066223
1772649708088560400,7.127560302734375,0.4214448928833008,1.6932363510131836,-0.12077425420284271
1772649708098564600,7.137564697265625,0.48908910155296326,2.9374642372131348,1.1479545831680298
1772649708108568600,7.147568603515625,0.36711645126342773,1.2277162075042725,2.151965379714966
1772649708118572800,7.15757275390625,0.10612688213586807,-2.5108261108398438,1.808950662612915
1772649708128577000,7.167576904296875,0.34847432374954224,-2.643984079360962,1.1916303634643555
1772649708138581000,7.1775810546875,0.8512787222862244,0.09214529395103455,0.5753754377365112
1772649708148585200,7.187585205078125,0.5647228360176086,0.5629917979240417,0.4821648895740509
1772649708158589200,7.197589111328125,-0.08881634473800659,-0.2503369152545929,0.6920218467712402
1772649708168593400,7.207593505859375,-0.5165196657180786,-0.6444844603538513,0.363920658826828
1772649708178597400,7.217597412109375,-0.6065344214439392,-0.8442213535308838,-0.2342248111963272
1772649708188601600,7.2276015625,-0.5596628189086914,-0.9123982191085815,-0.42011329531669617
1772649708198605600,7.23760546875,-0.35406696796417236,-0.5576654672622681,-0.21025638282299042
1772649708208609800,7.24760986328125,-0.16658058762550354,-0.06338317692279816,0.16791217029094696
1772649708218613800,7.25761376953125,-0.02010684832930565,0.2535327076911926,0.4123901426792145
1772649708228618000,7.267617919921875,0.05020054429769516,0.3020022213459015,0.2185121774673462
1772649708238622000,7.2776220703125,0.14341109991073608,0.2450106143951416,-0.2533995509147644
1772649708248626200,7.287626220703125,0.2786995768547058,0.06072001904249191,-0.5857617855072021
1772649708258630100,7.297630126953125,0.38469329476356506,-0.047404225915670395,-0.6640586256980896
1772649708268634400,7.30763427734375,0.3404848575592041,-0.059122126549482346,-0.5708481073379517
1772649708278638600,7.317638671875,0.1620532125234604,-0.14327794313430786,-0.44887542724609375
1772649708288642600,7.327642578125,-0.06378265470266342,-0.21784639358520508,-0.42597225308418274
1772649708298646800,7.337646728515625,-0.3854922354221344,-0.21891164779663086,-0.5303680896759033
1772649708308650800,7.347650634765625,-0.6922881603240967,-0.29454535245895386,-0.7072018384933472
1772649708318655000,7.357655029296875,-0.871785044670105,-0.3211769461631775,-0.7977492213249207
1772649708328659000,7.367658935546875,-0.9085366129875183,-0.283360093832016,-0.7881618738174438
1772649708338663200,7.3776630859375,-0.8728502988815308,-0.21411797404289246,-0.6976144313812256
1772649708348667100,7.387667236328125,-0.7556713223457336,-0.141680046916008,-0.5159870386123657
1772649708358671400,7.39767138671875,-0.5692501664161682,-0.0282294824719429,-0.290683776140213
1772649708368675300,7.40767529296875,-0.36525222659111023,0.070840023458004,-0.07816371321678162
1772649708378679600,7.417679443359375,-0.1735047996044159,0.12144003808498383,0.08269108086824417
1772649708388683500,7.42768359375,0.006524738855659962,0.23009692132472992,0.15992268919944763
1772649708398687700,7.437687744140625,0.17270584404468536,0.4143875241279602,0.17430374026298523
1772649708408691700,7.447691650390625,0.3415501117706299,0.38189697265625,0.11358372122049332
1772649708418696000,7.457696044921875,0.504535436630249,0.18535585701465607,-0.08242476731538773
1772649708428700000,7.467699951171875,0.5982786417007446,0.04474106803536415,-0.3338269591331482
1772649708438704000,7.4777041015625,0.6307691931724548,0.04101264476776123,-0.5623259544372559
1772649708448708400,7.487708251953125,0.6328997015953064,0.10546109080314636,-0.7306376099586487
1772649708458712300,7.49771240234375,0.622247040271759,0.12037477642297745,-0.7977492213249207
1772649708468716500,7.507716552734375,0.5876259803771973,0.08735160529613495,-0.7215828895568848
1772649708478720500,7.517720458984375,0.5103943943977356,0.026098955422639847,-0.49042069911956787
1772649708488724700,7.527724853515625,0.4294343590736389,0.022370534017682076,-0.20333217084407806
1772649708498728700,7.537728759765625,0.37510591745376587,-0.003195790573954582,0.07097318023443222
1772649708508733000,7.54773291015625,0.33356064558029175,-0.009054739959537983,0.3127880096435547
1772649708518737000,7.55773681640625,0.3298322260379791,-0.0282294824719429,0.504535436630249
1772649708528741000,7.5677412109375,0.3452785313129425,-0.0804273933172226,0.6211817860603333
1772649708538745000,7.5777451171875,0.33462589979171753,-0.207726389169693,0.6344975829124451
1772649708548749300,7.587749267578125,0.2685795724391937,-0.3478085398674011,0.5583312511444092
1772649708558753300,7.597753173828125,0.15086795389652252,-0.4298338294029236,0.3889543414115906
1772649708568757800,7.6077578125,0.048602648079395294,-0.41705065965652466,0.13382373750209808
1772649708578762200,7.61776220703125,-0.016911057755351067,-0.26258745789527893,-0.10373003780841827
1772649708588766700,7.6277666015625,-0.05206475406885147,-0.07297055423259735,-0.26565009355545044
1772649708598771200,7.637771240234375,-0.06111949309706688,0.1608547866344452,-0.30719536542892456
1772649708608775700,7.647775634765625,-0.0978710874915123,0.5044022798538208,-0.18415743112564087
1772649708618780200,7.6577802734375,-0.1830921620130539,0.9448887705802917,0.133291095495224
1772649708628784600,7.66778466796875,-0.2757700979709625,1.5339794158935547,0.6803039312362671
1772649708638788900,7.677788818359375,-0.36898064613342285,2.7600977420806885,2.052363395690918
1772649708648793300,7.68779345703125,-0.6230459809303284,1.6468974351882935,3.162900447845459
1772649708658797800,7.6977978515625,-0.7865639328956604,-2.1449081897735596,2.6680855751037598
1772649708668802300,7.70780224609375,-0.4653870165348053,-2.798447370529175,1.2784494161605835
1772649708678806800,7.717806884765625,-0.03981422260403633,-0.9582045674324036,-0.022237375378608704
1772649708688811300,7.727811279296875,-0.1399489939212799,-0.17204006016254425,0.047537386417388916
1772649708698815700,7.737815673828125,-0.5591301918029785,-0.2306295484304428,0.4267711937427521
1772649708708820000,7.747820068359375,-0.8004123568534851,-0.6146570444107056,0.17856480181217194
1772649708718824400,7.757824462890625,-0.8962860703468323,-0.5560675859451294,-0.3231743276119232
1772649708728829000,7.767828857421875,-0.6081323027610779,-0.2886864244937897,-0.3114564120769501
1772649708738833400,7.77783349609375,-0.20386481285095215,0.0942758247256279,-0.1404816210269928
1772649708748838000,7.787837890625,0.14181320369243622,0.34674328565597534,-0.09946898370981216
1772649708758842400,7.79784228515625,0.397476464509964,0.6024065017700195,-0.11757846176624298
1772649708768846600,7.8078466796875,0.5668533444404602,0.6524739265441895,-0.09733845293521881
1772649708778851000,7.81785107421875,0.5849628448486328,0.45912858843803406,-0.19907112419605255
1772649708788855600,7.82785546875,0.2920153737068176,0.20399796962738037,-0.4270375072956085
1772649708798860000,7.837860107421875,-0.11012161523103714,0.01012000348418951,-0.6523407697677612
1772649708808864500,7.847864501953125,-0.42597225308418274,-0.006391581147909164,-0.7721828818321228
1772649708818869000,7.857868896484375,-0.6757765412330627,0.04420843720436096,-0.7631281614303589
1772649708828873500,7.86787353515625,-0.8605997562408447,0.05752423033118248,-0.6933534145355225
1772649708838877700,7.877877685546875,-0.9357008337974548,-0.012783162295818329,-0.6470144391059875
1772649708848882200,7.887882080078125,-0.938896656036377,-0.1459411084651947,-0.6603302359580994
1772649708858886700,7.89788671875,-0.8456860780715942,-0.2545979917049408,-0.6395576000213623
1772649708868891100,7.90789111328125,-0.7119954824447632,-0.2721748352050781,-0.5543364882469177
1772649708878895600,7.9178955078125,-0.5804354548454285,-0.21092218160629272,-0.4099932909011841
1772649708888900000,7.927900146484375,-0.45473435521125793,-0.12410320341587067,-0.21824586391448975
1772649708898904600,7.937904541015625,-0.3530017137527466,-0.12889689207077026,-0.0834900289773941
1772649708908908800,7.94790869140625,-0.22783324122428894,-0.19707375764846802,-0.0552605465054512
1772649708918913300,7.957913330078125,-0.08029423654079437,-0.13102741539478302,-0.09574055671691895
1772649708928917800,7.967917724609375,0.02516685053706169,0.06764423102140427,-0.17137427628040314
1772649708938922200,7.977922119140625,0.09014792740345001,0.042610540986061096,-0.27843326330184937
1772649708948926700,7.9879267578125,0.12636688351631165,-0.22849902510643005,-0.4126564562320709
1772649708958931200,7.99793115234375,0.13222584128379822,-0.4442148804664612,-0.5639238953590393
1772649708968935700,8.007935791015624,0.1609879434108734,-0.3669832944869995,-0.7008102536201477
1772649708978940000,8.01793994140625,0.22969745099544525,-0.03142527490854263,-0.8270439505577087
1772649708988944400,8.0279443359375,0.31385326385498047,0.22743375599384308,-0.9293092489242554
1772649708998948900,8.037948974609375,0.32876694202423096,0.17257268726825714,-0.9719198346138
1772649709008953300,8.047953369140625,0.28668904304504395,-0.10173266381025314,-0.8510124087333679
1772649709018957800,8.057957763671874,0.22117534279823303,-0.30839377641677856,-0.5394228100776672
1772649709028962300,8.06796240234375,0.08695213496685028,-0.4101264476776123,-0.12769846618175507
1772649709038966800,8.077966796875,-0.0073236869648098946,-0.44155174493789673,0.3069290518760681
1772649709048971300,8.08797119140625,-0.02809632569551468,-0.4665854275226593,0.6787060499191284
1772649709058975500,8.0979755859375,-0.025965798646211624,-0.48362964391708374,0.9327713847160339
1772649709068979500,8.1079794921875,-0.03235737979412079,-0.5241096615791321,1.0510156154632568
1772649709078983700,8.117983642578125,-0.0600542314350605,-0.5890907049179077,1.0408955812454224
1772649709088988000,8.12798779296875,-0.09574055671691895,-0.5400885939598083,0.877910315990448
1772649709098991900,8.137991943359374,-0.1399489939212799,-0.3531348705291748,0.571647047996521
1772649709108996000,8.14799609375,-0.13622057437896729,-0.12303793430328369,0.21105533838272095
1772649709129004300,8.16800439453125,-0.05313001945614815,0.2210421860218048,-0.30186906456947327
1772649709139008300,8.17800830078125,-0.04833633080124855,0.3499390780925751,-0.30719536542892456
1772649709159016400,8.198016357421874,0.12530162930488586,0.994423508644104,0.0810931846499443
1772649709169020700,8.208020751953125,0.3495396077632904,2.1837902069091797,0.9988177418708801
1772649709189028900,8.22802880859375,0.3916175067424774,-1.1813772916793823,2.1636834144592285
1772649709199032800,8.23803271484375,0.3351585268974304,-2.7904577255249023,1.536243200302124
1772649709209037000,8.248037109375,0.6115944385528564,-1.1840404272079468,0.6025396585464478
1772649709219041000,8.258041015625,0.5988112688064575,0.5459475517272949,0.15992268919944763
1772649709229045200,8.268045166015625,-0.016911057755351067,0.36112433671951294,0.45713120698928833
1772649709239049200,8.27804931640625,-0.8110650181770325,-0.03728422522544861,0.701609194278717
1772649709249053400,8.288053466796875,-1.2920315265655518,-0.11451582610607147,0.5077311992645264
1772649709259057400,8.298057373046875,-1.3282504081726074,-0.02876211516559124,0.13062794506549835
1772649709269061600,8.3080615234375,-1.035302996635437,-0.17736637592315674,-0.033955276012420654
1772649709279065600,8.318065673828125,-0.6933534145355225,-0.15872426331043243,0.040080539882183075
1772649709289069800,8.32806982421875,-0.3988080322742462,0.05006738752126694,0.15353110432624817
1772649709299073800,8.33807373046875,-0.11864372342824936,0.27963167428970337,0.2419479787349701
1772649709309078000,8.348078125,0.06617949903011322,0.5038696527481079,0.29521116614341736
1772649709319082000,8.35808203125,0.17377111315727234,0.5320991277694702,0.2414153516292572
1772649709329086200,8.368086181640624,0.23449113965034485,0.449008584022522,0.05446159839630127
1772649709339090200,8.378090087890625,0.1950763761997223,0.3163832724094391,-0.216115340590477
1772649709349094400,8.388094482421875,0.07736476510763168,0.21358533203601837,-0.47284385561943054
1772649709359098400,8.398098388671874,-0.03981422260403633,0.15712636709213257,-0.641155481338501
1772649709369102600,8.4081025390625,-0.09201213717460632,0.12836425006389618,-0.6874944567680359
1772649709379106600,8.4181064453125,-0.14740583300590515,0.15872426331043243,-0.6550039052963257
1772649709389110800,8.42811083984375,-0.24114902317523956,0.2210421860218048,-0.5799028277397156
1772649709399114800,8.43811474609375,-0.3370227515697479,0.2455432415008545,-0.5058670043945312
1772649709409119000,8.448118896484376,-0.4174501299858093,0.1885516494512558,-0.4850943684577942
1772649709419123000,8.458123046875,-0.4829638600349426,-0.0026631588116288185,-0.5538038611412048
1772649709429127200,8.468127197265625,-0.5010733008384705,-0.13848425447940826,-0.6028059720993042
1772649709439131100,8.478131103515626,-0.46698489785194397,-0.1656484752893448,-0.5873596668243408
1772649709449135400,8.48813525390625,-0.4179827868938446,-0.1038631945848465,-0.5266396403312683
1772649709459139600,8.4981396484375,-0.36844801902770996,-0.027164220809936523,-0.42490699887275696
1772649709469143600,8.5081435546875,-0.33063116669654846,0.038882117718458176,-0.26884588599205017
1772649709479147800,8.518147705078125,-0.324239581823349,0.05805686116218567,-0.07976160943508148
1772649709489151700,8.52815185546875,-0.3295659124851227,0.05699159950017929,0.06884265691041946
1772649709499155700,8.53815576171875,-0.3237069547176361,0.021305270493030548,0.15885742008686066
1772649709509160000,8.548159912109375,-0.2773679792881012,0.01012000348418951,0.16791217029094696
1772649709519164200,8.5581640625,-0.20493006706237793,-0.051665280014276505,0.048070017248392105
1772649709529168100,8.568168212890624,-0.17137427628040314,-0.18748638033866882,-0.16711321473121643
1772649709539172400,8.57817236328125,-0.11118687689304352,-0.18588848412036896,-0.36418697237968445
1772649709549176300,8.58817626953125,-0.010519477538764477,-0.14753900468349457,-0.46272385120391846
1772649709559180500,8.5981806640625,0.10665950924158096,-0.24660851061344147,-0.5063996315002441
1772649709569185000,8.60818505859375,0.18176059424877167,-0.38349485397338867,-0.519715428352356
1772649709579189200,8.618189208984376,0.2659164071083069,-0.480433851480484,-0.4717785716056824
1772649709589193700,8.62819384765625,0.29095008969306946,-0.5550022721290588,-0.3519364297389984
1772649709599198200,8.6381982421875,0.28722167015075684,-0.6194507479667664,-0.17563532292842865
1772649709609202700,8.64820263671875,0.25260061025619507,-0.6189181208610535,0.035819485783576965
1772649709619207200,8.658207275390625,0.2137184888124466,-0.629570722579956,0.25739431381225586
1772649709629211400,8.66821142578125,0.20306585729122162,-0.6897581219673157,0.48536068201065063
1772649709639215900,8.6782158203125,0.20466375350952148,-0.7696529030799866,0.689358651638031
1772649709649220400,8.688220458984375,0.17749953269958496,-0.9017455577850342,0.7468829154968262
1772649709659224800,8.698224853515624,0.13382373750209808,-1.128114104270935,0.4906870126724243
1772649709669229300,8.708229248046875,0.05978791415691376,-1.1765835285186768,-0.021704744547605515
1772649709679233800,8.71823388671875,-0.0025300008710473776,-1.0631330013275146,-0.48243123292922974
1772649709689238000,8.728238037109374,-0.013715268112719059,-0.8948213458061218,-0.48669227957725525
1772649709699242500,8.738242431640625,-0.10373003780841827,-0.7898929119110107,-0.11864372342824936
1772649709709247000,8.7482470703125,-0.259258508682251,-0.7105307579040527,0.15779216587543488
1772649709719251500,8.75825146484375,-0.3769701421260834,-0.6093307137489319,0.25792694091796875
1772649709729256000,8.768255859375,-0.4190480411052704,-0.49641281366348267,0.24780692160129547
1772649709749264600,8.7882646484375,-0.27044376730918884,-0.2838927209377289,0.08269108086824417
1772649709759269000,8.79826904296875,-0.15592794120311737,-0.21891164779663086,0.009720529429614544
1772649709769273600,8.808273681640625,-0.04886896535754204,-0.21518322825431824,-0.02010684832930565
1772649709779278000,8.818278076171875,0.031558431684970856,-0.23489060997962952,0.009720529429614544
1772649709789282600,8.828282470703124,0.07416897267103195,-0.2732400894165039,0.06617949903011322
1772649709799286800,8.838286865234375,0.0810931846499443,-0.33768853545188904,0.13435636460781097
1772649709809291300,8.848291259765626,0.07097318023443222,-0.4181159436702728,0.18176059424877167
1772649709819295700,8.858295654296874,0.04913527891039848,-0.48735806345939636,0.19827216863632202
1772649709829300200,8.86830029296875,0.010785792954266071,-0.541686475276947,0.1849563866853714
1772649709839304700,8.8783046875,-0.04514054208993912,-0.5555348992347717,0.14980268478393555
1772649709849309000,8.888308837890625,-0.11065424978733063,-0.5406212210655212,0.09707213938236237
1772649709859313400,8.8983134765625,-0.17510269582271576,-0.49694544076919556,0.0390152782201767
1772649709869318000,8.90831787109375,-0.22783324122428894,-0.4207790791988373,0.007057370617985725
1772649709879322400,8.918322265625,-0.2635195553302765,-0.329166442155838,0.024634219706058502
1772649709889326600,8.92832666015625,-0.2901511490345001,-0.2498043030500412,0.08748476952314377
1772649709899331000,8.9383310546875,-0.2992058992385864,-0.1832253336906433,0.15299847722053528
1772649709909335600,8.94833544921875,-0.30772799253463745,-0.1651158481836319,0.19347849488258362
1772649709919340000,8.958340087890624,-0.30826061964035034,-0.17736637592315674,0.20306585729122162
1772649709929344500,8.968344482421875,-0.28429219126701355,-0.1794968992471695,0.18229322135448456
1772649709939349000,8.978348876953126,-0.24008376896381378,-0.18269269168376923,0.13648688793182373
1772649709949353200,8.988353271484375,-0.18522270023822784,-0.19014954566955566,0.08535423874855042
1772649709959357700,8.998357666015625,-0.13302478194236755,-0.2034653276205063,0.035819485783576965
1772649709969362200,9.008362060546874,-0.09094687551259995,-0.21465060114860535,0.003328948514536023
1772649709979366700,9.01836669921875,-0.07017423212528229,-0.23489060997962952,-0.00519315991550684
1772649709989371100,9.02837109375,-0.054727911949157715,-0.24181482195854187,-0.0057257916778326035
1772649709999375400,9.038375244140624,-0.038216330111026764,-0.23169481754302979,-0.0030626326333731413
1772649710009379800,9.0483798828125,-0.01957421749830246,-0.20879164338111877,0.003328948514536023
1772649710019384300,9.05838427734375,-0.0003994738217443228,-0.17736637592315674,0.006524738855659962
1772649710039393300,9.078393310546875,0.005992107093334198,-0.1411474198102951,-0.020639481022953987
1772649710059402000,9.098402099609375,-0.004660528153181076,-0.10066740214824677,-0.021172111853957176
1772649710069405700,9.10840576171875,-0.016911057755351067,-0.08841687440872192,-0.0025300008710473776
1772649710079409700,9.11840966796875,-0.03342264145612717,-0.08362318575382233,0.014514215290546417
1772649710089413600,9.12841357421875,-0.042477384209632874,-0.06817686557769775,0.028895273804664612
1772649710099417300,9.138417236328126,-0.0552605465054512,-0.043675802648067474,0.036352116614580154
1772649710109421300,9.14842138671875,-0.058988966047763824,-0.017576847225427628,0.031558431684970856
1772649710119425300,9.15842529296875,-0.062184758484363556,0.026098955422639847,0.011851056478917599
1772649710129429000,9.168428955078125,-0.06751107424497604,0.04048001393675804,0.004926843568682671
1772649710139433000,9.178432861328124,-0.06751107424497604,0.05006738752126694,0.007590002380311489
1772649710149437000,9.18843701171875,-0.06751107424497604,0.04846949130296707,0.01344895176589489
1772649710159440600,9.198440673828125,-0.06697844713926315,0.047936856746673584,0.026764746755361557
1772649710169444600,9.208444580078124,-0.0600542314350605,0.043675802648067474,0.03848264366388321
1772649710179448300,9.2184482421875,-0.05099949240684509,0.027164220809936523,0.04540685936808586
1772649710189452300,9.228452392578125,-0.037683695554733276,0.007989476434886456,0.048070017248392105
1772649710199456300,9.238456298828124,-0.03555316850543022,-0.03408843278884888,0.044874224811792374
1772649710209460200,9.248460205078125,-0.02809632569551468,-0.09108003228902817,0.04966791346669197
1772649710219464000,9.2584638671875,-0.003595264395698905,-0.06444844603538513,0.02516685053706169
1772649710229468000,9.268468017578124,0.00013315794058144093,-0.07616633921861649,0.01344895176589489
1772649710239471600,9.2784716796875,0.007057370617985725,-0.0894821360707283,0.004926843568682671
1772649710249475600,9.2884755859375,0.016112111508846283,-0.09108003228902817,-0.016378426924347878
1772649710259479600,9.2984794921875,0.035819485783576965,-0.08362318575382233,-0.037683695554733276
1772649710269483300,9.308483154296875,0.043276332318782806,-0.07190528512001038,-0.05632580816745758
1772649710279487200,9.3184873046875,0.05499422922730446,-0.059654757380485535,-0.07017423212528229
1772649710289491200,9.3284912109375,0.06831002235412598,-0.04953475296497345,-0.08189213275909424
1772649710299495000,9.338494873046875,0.08215844631195068,-0.043675802648067474,-0.09467529505491257
1772649710309499000,9.348498779296875,0.0858868733048439,-0.04633896425366402,-0.09946898370981216
1772649710319502800,9.3585029296875,0.08428897708654404,-0.047936856746673584,-0.10000161081552505
1772649710329506600,9.368506591796875,0.07576686888933182,-0.04420843720436096,-0.09520792961120605
1772649710339510500,9.378510498046875,0.06671212613582611,-0.03249053657054901,-0.0744352862238884
1772649710349514500,9.388514404296876,0.06298370659351349,-0.019174743443727493,-0.05366265028715134
1772649710359518200,9.398518310546875,0.044874224811792374,-0.021837901324033737,-0.04354264587163925
1772649710369522200,9.408522216796875,0.031558431684970856,-0.02077263966202736,-0.02383527159690857
1772649710379526100,9.418526123046876,0.012383688241243362,-0.034621063619852066,-0.01105210930109024
1772649710389529900,9.42852978515625,-0.010519477538764477,-0.05273054540157318,-0.007856318727135658
1772649710399533800,9.438533935546875,-0.030759483575820923,-0.06711160391569138,0.00013315794058144093
1772649710409537500,9.44853759765625,-0.04460791125893593,-0.06657896935939789,0.012383688241243362
1772649710419541500,9.45854150390625,-0.04780369997024536,-0.055393703281879425,0.02143842913210392
1772649710429545500,9.46854541015625,-0.04460791125893593,-0.04633896425366402,0.028362641111016273
1772649710439549400,9.478549560546876,-0.042477384209632874,-0.03568632900714874,0.031558431684970856
1772649710449553200,9.48855322265625,-0.03981422260403633,-0.02876211516559124,0.028895273804664612
1772649710459557000,9.49855712890625,-0.03715106472373009,-0.018642112612724304,0.02623211406171322
1772649710469560800,9.508560791015626,-0.029561063274741173,-0.009054739959537983,0.027297377586364746
1772649710479564800,9.518564697265624,-0.024234745651483536,0.0010652635246515274,0.03315632790327072
1772649710489568800,9.52856884765625,-0.016777900978922844,0.005858949385583401,0.04167843610048294
1772649710499572500,9.538572509765626,-0.016777900978922844,0.003728422336280346,0.04274369776248932
1772649710509576400,9.548576416015624,-0.019441058859229088,-0.00426105409860611,0.032091062515974045
1772649710519580400,9.558580322265625,-0.0189084280282259,-0.0005326317623257637,0.012383688241243362
1772649710529584000,9.568584228515626,-0.021038955077528954,0.018642112612724304,-0.006791055202484131
1772649710539588000,9.578588134765624,-0.02316948212683201,0.039414748549461365,-0.01531316339969635
1772649710549592000,9.588592041015625,-0.025832640007138252,0.04900212213397026,-0.018508953973650932
1772649710559596000,9.598595947265625,-0.0306263267993927,0.055393703281879425,-0.016911057755351067
1772649710569600500,9.6086005859375,-0.03129211440682411,0.0612526535987854,0.024101587012410164
1772649710579605000,9.61860498046875,-0.029694220051169395,0.07297055423259735,0.07097318023443222
1772649710589609500,9.628609375,-0.03555316850543022,0.09640634804964066,0.06564686447381973
1772649710599614000,9.638614013671875,-0.03289001062512398,0.10652635246515274,0.05712475627660751
1772649710609618200,9.6486181640625,-0.04460791125893593,0.1129179298877716,0.02516685053706169
1772649710619622700,9.65862255859375,-0.05259738489985466,0.12463583052158356,-0.001997369108721614
1772649710629627100,9.668627197265625,-0.0648479163646698,0.13369056582450867,-0.014247899875044823
1772649710639631600,9.678631591796876,-0.06591317802667618,0.16618111729621887,-0.03874896094202995
1772649710649636000,9.688635986328125,-0.06804370880126953,0.18162743747234344,-0.0600542314350605
1772649710659640600,9.698640625,-0.06751107424497604,0.174170583486557,-0.04780369997024536
1772649710669645000,9.70864501953125,-0.07123950123786926,0.1603221595287323,-0.0025300008710473776
