time,seconds_elapsed,z,y,x
1772644019850424000,0.066424072265625,0.08320493743121624,-0.00014879735354334116,0.009760282581904903
1772644019860465200,0.076465087890625,0.09517419216632843,-0.005164945015124977,0.003893408975657075
1772644019870506000,0.086506103515625,0.08454758421182632,-0.0034437472457066174,-0.003311663564946502
1772644019880547000,0.096547119140625,0.08753858272135258,0.013839213325455783,-0.00319529804312624
1772644019890588200,0.106588134765625,0.09816226806640624,0.005612725315243005,0.002654651827784255
1772644019900629000,0.11662890625,0.09457213461995125,0.0024245602658018468,0.005508333359006792
1772644019910668800,0.126668701171875,0.09232757056355476,0.006012428689934313,0.004956882621860131
1772644019920710000,0.1367099609375,0.09262567672729492,0.01456687001287937,0.0036064087278209625
1772644019930750700,0.146750732421875,0.08873276094198226,0.010757285129465163,-0.0023819997657090423
1772644019940791800,0.156791748046875,0.08888064498007298,0.015890775560401377,-0.0025043749032076447
1772644019950833000,0.1668330078125,0.09007423867881298,0.0013577347518876194,0.0016571834893431513
1772644019960873000,0.176873046875,0.08992284750938415,0.019364406487718224,-0.006871657601464539
1772644019970913800,0.186913818359375,0.07989829710125923,0.010543350117839871,0.013236552990879863
1772644019980955000,0.196954833984375,0.09650748659670352,0.011341003301553427,-0.00016449724617414175
1772644019990996000,0.206995849609375,0.09037234484255313,0.007447977918386459,-0.006304963629413396
1772644020001036800,0.217036865234375,0.0954588543266058,0.005091112593933939,0.00657192573621869
1772644020011076900,0.227076904296875,0.090221538195014,0.0010561945220455527,-0.002578280389634892
1772644020021118000,0.237117919921875,0.0930664062321186,0.009828516379371285,0.010592879214836284
1772644020031159000,0.247158935546875,0.10623685345053673,0.012442790530994534,-0.0033056356829591093
1772644020041199900,0.257199951171875,0.10264496643841266,0.007823862026073039,-0.005091350055951625
1772644020051241000,0.267240966796875,0.08693243352174758,0.005860891390033066,0.00903153904909268
1772644020061281800,0.27728173828125,0.0939636473327875,-0.006829626824334263,-0.008397113603074102
1772644020071321900,0.28732177734375,0.08753039941489696,0.005101999314129352,0.010745549025898799
1772644020081363000,0.297363037109375,0.08663257379233837,0.013803776685893535,-0.0006709854635875671
1772644020091404000,0.307404052734375,0.08992401655316352,0.006196662683039904,0.008439235711749643
1772644020101444900,0.31744482421875,0.08333937746584415,0.0015605638476088642,-0.0018539390373043716
1772644020111486000,0.32748583984375,0.08154431074261664,0.010544811422564089,0.003952509618597105
1772644020121526000,0.337526123046875,0.0914192235469818,0.01047879698164761,-0.003484599845902994
1772644020131567000,0.347567138671875,0.09336451239585876,0.006013926527276635,0.008278802719339728
1772644020141608000,0.35760791015625,0.08857260194420814,-0.004551635422371327,-0.0037535803798586127
1772644020151649000,0.36764892578125,0.08677695069909096,0.002599989897944033,-0.00009000723785720765
1772644020161690000,0.377690185546875,0.100991938534379,0.014289550908841191,0.0021793533330783247
1772644020171731000,0.38773095703125,0.09680267015099525,-0.0035251419188454744,-0.0062467945682350545
1772644020181771000,0.39777099609375,0.08976970277428627,0.0019820041300728916,-0.0024273732773959634
1772644020191812000,0.40781201171875,0.09156301593184471,0.010234503364376724,0.01025955560724251
1772644020201853000,0.41785302734375,0.09680033206343651,0.0034905455294996497,0.0036909726055804636
1772644020211894000,0.42789404296875,0.09290916984379291,0.009366232629865407,0.006795879818359389
1772644020221935000,0.43793505859375,0.09560089314579963,0.002542377959191799,-0.006233140502218157
1772644020231975000,0.447974853515625,0.09036357701420783,0.014255575574003159,-0.0046553423920180645
1772644020242015700,0.458015625,0.09679740945398807,0.010943638014420866,0.00648230209085159
1772644020252056800,0.468056884765625,0.08722469446659088,0.008141951531916856,-0.001046367247775197
1772644020262098000,0.478097900390625,0.08168810312747955,0.01622866574525833,0.005513109998824074
1772644020272138800,0.488138671875,0.09021803106367587,0.0006826485019177198,0.0012319529477506875
1772644020282179800,0.498179931640625,0.088421795296669,0.004461655583977699,-0.002838931486662477
1772644020292220000,0.508219970703125,0.09530804767906666,0.00197429574765265,-0.007461138794058933
1772644020302261000,0.518260986328125,0.08468436233401298,0.0016384148567914962,-0.0032249899284914132
1772644020312301800,0.5283017578125,0.09904957229495048,0.004477912599034607,0.006362639500247314
1772644020322343000,0.538343017578125,0.09441197562217712,-0.0021622926004230976,-0.004682476994115859
1772644020332383700,0.5483837890625,0.09515957911908626,0.007744622777402401,-0.0012537720539141446
1772644020342423800,0.558423828125,0.09889935016930103,0.006579159194603562,0.0026120821945369243
1772644020352465000,0.56846484375,0.09770108029544353,0.018888642202131448,-0.008879873885028063
1772644020362506000,0.578506103515625,0.09620470425784587,0.00797360922768712,-0.006525045254034921
1772644020372546800,0.588546875,0.091415131893754,0.009501659045182168,-0.007872925332188606
1772644020382588000,0.598587890625,0.10383505300581454,0.004283559070713818,0.0024146964589133856
1772644020392629000,0.60862890625,0.09545710076093673,0.002761025678552687,-0.004973833756661042
1772644020402669000,0.6186689453125,0.09665303254723548,0.006674034403823316,-0.0006168075909372419
1772644020412710000,0.6287099609375,0.11101882703006268,0.015950433325767517,-0.00454672178523615
1772644020422751000,0.6387509765625,0.10024491955935955,0.003392345852032304,-0.0018744703686796127
1772644020432792000,0.6487919921875,0.08617956932783126,0.006520268614217639,0.009799162420723586
1772644020442833000,0.6588330078125,0.09889818112552165,0.009668832305632532,0.006086169779580086
1772644020452873000,0.668873046875,0.09994330626428127,0.0004420812116935849,0.010163045563362538
1772644020462914000,0.6789140625,0.09829846166670322,0.0005633329711854458,-0.004363702501682564
1772644020472955000,0.688954833984375,0.10398585965335369,0.00008146773837506771,0.005675680149393156
1772644020482996000,0.698995849609375,0.09276420841515064,0.00392422423902899,0.0019373612707480788
1772644020493037000,0.709037109375,0.09261281724572182,0.013986987765692174,-0.0053509234407451
1772644020503077000,0.7190771484375,0.08573007199466227,0.004216667846962809,0.004309752957895398
1772644020513118000,0.729117919921875,0.08812427365481854,0.00600194382853806,0.004181313405791297
1772644020523159000,0.739158935546875,0.09441080657839775,0.006701689595729112,0.002518850953131914
1772644020533200100,0.7492001953125,0.08618307645916938,-0.0005575973501428962,-0.004664009755663574
1772644020543241000,0.759240966796875,0.09097147977948188,0.001695478806272149,-0.0006401610670611262
1772644020553282000,0.769281982421875,0.0972580127030611,0.002098068257793784,0.008921283607650548
1772644020563321900,0.77932177734375,0.10129647443890571,0.004074336766824126,-0.005122092254087328
1772644020573363000,0.789363037109375,0.10324293233156204,0.004520874957926571,-0.014752400913927703
1772644020583404000,0.799404052734375,0.09052724314332007,0.01191423661224544,0.004049056195095181
1772644020593445000,0.809445068359375,0.09232289438843727,0.005929791907779872,-0.006143124131206422
1772644020603486000,0.81948583984375,0.09741174196004868,0.014437069620750843,0.0022119495615828782
1772644020613525800,0.82952587890625,0.08738251537680626,0.00986994436830282,-0.01118488115807995
1772644020623566800,0.83956689453125,0.09426350706219673,0.01230301673412323,-0.0058729471540078515
1772644020633608000,0.84960791015625,0.10114683683514594,0.007101648698747158,-0.00729544510464184
1772644020643648800,0.859648681640625,0.09231588012576103,0.013479330504499376,0.007771675181109458
1772644020653689900,0.86968994140625,0.10219313101768493,0.004162855300493538,0.009894658684451132
1772644020663731000,0.87973095703125,0.09785422503054142,-0.005592413179576396,0.0015491291381418703
1772644020673771000,0.88977099609375,0.08274316513836383,0.009603438919223845,0.0003145458418875932
1772644020683811800,0.899811767578125,0.09172317492961883,0.011470401834882795,-0.006047783131105825
1772644020693853000,0.90985302734375,0.0959118587911129,0.007715433215536176,0.003624675036873668
1772644020703894000,0.91989404296875,0.08753390654623508,0.0025904914172366258,0.004025072531308979
1772644020713934800,0.929934814453125,0.08065116129517555,0.0054112479263916605,0.0034527068702969697
1772644020723975000,0.939974853515625,0.08918050470948219,0.012743928902037441,-0.00612940613310784
1772644020734016000,0.95001611328125,0.09501637125611305,0.006752579532749951,0.00165285437409766
1772644020744056800,0.960056884765625,0.08484276776611804,-0.0016912410225719213,-0.001768827170273289
1772644020754098000,0.970097900390625,0.09053016575276851,0.008727423269674182,0.002154958677338436
1772644020764139000,0.980138916015625,0.09561842880249023,0.0046988984059542415,-0.00595897233649157
1772644020774179800,0.990179931640625,0.09412439085245132,0.007760770194604992,0.000005562091106548905
1772644020784220000,1.000219970703125,0.09891337869465351,0.0020408581778407096,-0.009667023941036313
1772644020794261000,1.010260986328125,0.0929272900223732,0.002638897136226296,-0.005745694911992177
1772644020804302000,1.020302001953125,0.10295651660561561,0.0007727379381656646,-0.0028186193509958683
1772644020814343000,1.030343017578125,0.10131050296425818,0.004790120353363454,0.002584719263575971
1772644020824384000,1.040384033203125,0.09113514590859413,0.011975173019245266,-0.001737098591448739
1772644020834424000,1.050424072265625,0.09188391844928263,0.005527823510766029,0.006332591421855613
1772644020844465000,1.06046484375,0.10655074170529842,0.0026553733469918367,-0.008874695386411622
1772644020854506000,1.070506103515625,0.09338204805254936,-0.00587678307890892,0.0005852799415122718
1772644020864547000,1.080547119140625,0.09263444455564021,0.015812522692419586,-0.0063217138348147265
1772644020874588000,1.090587890625,0.09383037634193897,0.009140570647828281,0.0017079912279732525
1772644020884629000,1.10062890625,0.09158639680743216,0.004182400251179933,0.004115527293737977
1772644020894669000,1.1106689453125,0.08724573725461959,0.003455401150882244,0.003250133502902463
1772644020904710100,1.120710205078125,0.0829056622236967,-0.0025048589603975414,-0.0017181838284246623
1772644020914751000,1.1307509765625,0.1040028107881546,0.006336984469182789,0.0024253000513184816
1772644020924792000,1.1407919921875,0.09651976155638695,0.00008515753280371427,0.013362964982679113
1772644020934833200,1.150833251953125,0.08185293830037116,0.010010375752300023,0.009655260438006371
1772644020944873000,1.160873046875,0.09262976838052273,0.012489150423370302,-0.004735394491441548
1772644020954913800,1.170913818359375,0.08664601779580115,0.010483765417709946,-0.007292367231566459
1772644020964955000,1.180954833984375,0.09472703292071818,0.006740706431865692,-0.007330616882722824
1772644020974996000,1.190995849609375,0.0915852277636528,0.00989559026621282,-0.009342011504061519
1772644020985036800,1.201036865234375,0.08575053026080132,0.013162117781490087,0.0067724624101538206
1772644020995078000,1.211077880859375,0.10236147332191467,0.008511552029289304,0.007783548281993716
1772644021005118000,1.221117919921875,0.09428396532833576,0.011580730341561138,0.001281244582729414
1772644021015158800,1.23115869140625,0.08934592440426349,-0.0009737038703635334,0.0009535926640965044
1772644021025199400,1.241199462890625,0.0996720881074667,0.007211465748772025,0.0009809007961302995
1772644021035240400,1.251240478515625,0.08425941492021083,-0.0005864581184461713,-0.0009490260868333279
1772644021045281500,1.261281494140625,0.11059154152870178,0.014186565458402037,0.0036253052245359867
1772644021055321300,1.2713212890625,0.10131284105181694,0.010142916090786457,0.002794854882918298
1772644021065362200,1.281362060546875,0.10325871442258358,0.004577463983371854,-0.010506032048445194
1772644021075403300,1.2914033203125,0.09697568863034248,0.0020090748000890016,0.005136367374612018
1772644021085444000,1.301444091796875,0.1038590184032917,0.005485555271618068,0.007896771998656913
1772644021095485200,1.311485107421875,0.0888964270710945,0.005912000522762537,0.0017373999855481088
1772644021105526300,1.3215263671875,0.08425999944210052,-0.0007480784209445119,-0.01202302161580883
1772644021115566300,1.33156640625,0.09937281289994716,0.009891681276075542,0.0026691461440175772
1772644021125607200,1.341607177734375,0.09638064534664154,0.0065802551731467245,0.007762468961346894
1772644021135648300,1.351648193359375,0.0950362450003624,-0.0005298325603827834,0.006840668808156624
1772644021145689300,1.361689453125,0.10177110621333121,0.010076901649869978,-0.005184316435875371
1772644021155730200,1.371730224609375,0.10207038142085074,-0.0006769494134932756,-0.011937781884614378
1772644021165770200,1.381770263671875,0.09772972186803817,0.0025222484866157173,-0.008556551081640645
1772644021175811300,1.391811279296875,0.09877660057246684,0.01316767073944211,0.0023842830543406306
1772644021185852400,1.401852294921875,0.09339140040278435,0.015507511863857506,-0.004502088059065863
1772644021195893200,1.411893310546875,0.09414017294347286,0.012327420523017643,0.0031324162742123007
1772644021205934300,1.421934326171875,0.0944394481509924,0.015333068612404167,-0.010495729850139468
1772644021215974400,1.431974365234375,0.09563537993729114,0.0011612257990986107,-0.007198332272563129
1772644021226015200,1.44201513671875,0.09279343450963497,0.010241663757525384,0.010594532315805554
1772644021236056300,1.452056396484375,0.08994915099442005,0.006699278442934155,-0.0024333737599197772
1772644021246097400,1.462097412109375,0.08336392738521099,0.010629165237769484,0.00939477373776026
1772644021256138200,1.47213818359375,0.08755611837804317,0.003081489804573357,0.010574274979066102
1772644021266179300,1.482179443359375,0.0969838719367981,0.007584025388211011,-0.010296362219983712
1772644021276219400,1.492219482421875,0.09728665427565573,0.006914090237393975,0.0035220366463065145
1772644021286260500,1.502260498046875,0.09444470884799956,0.013468553382158278,-0.006251927401078865
1772644021296301300,1.51230126953125,0.10327098938226699,0.003982859091088175,0.011058523965207859
1772644021306342400,1.52234228515625,0.08905717059075832,-0.002653144857287407,-0.0022368374076671897
1772644021316383500,1.532383544921875,0.09878419935703277,0.01197276186645031,0.008736720820982008
1772644021326423300,1.54242333984375,0.09878419935703277,0.006447897497750818,0.007668698863824829
1772644021336464400,1.55246435546875,0.10237608636915684,0.012116919577494263,-0.00357057936261408
1772644021346505500,1.56250537109375,0.10851122812330723,0.009928433089889586,-0.010600934657128526
1772644021356546300,1.57254638671875,0.10297814391553402,0.0010390972567722201,0.004268251903727651
1772644021366587400,1.58258740234375,0.08681903627514839,0.009510974862799048,-0.0032103403486311434
1772644021376628500,1.59262841796875,0.08981237287223338,0.0018480024868622422,0.004410098926676437
1772644021386668300,1.602668212890625,0.0847229407787323,0.0029368937021121383,0.014811976480903103
1772644021396709000,1.612709228515625,0.09414952529370785,0.003543042901717126,0.0018088029876351355
1772644021406750500,1.62275048828125,0.10148585953116417,-0.008251439788378775,0.0013276136082597076
1772644021416791600,1.63279150390625,0.08697276553213595,0.007264182316698133,0.00010994491418823599
1772644021426832400,1.642832275390625,0.09654840312898158,0.012796426274254917,-0.009225435919687152
1772644021436872200,1.6528720703125,0.1043295585244894,-0.004258059303276241,-0.010113516466366126
1772644021446913300,1.662913330078125,0.10627367832958698,0.01596647114511579,-0.0009767178113572299
1772644021456954400,1.672954345703125,0.09609773675203323,0.005524827836081385,-0.008049030817765743
1772644021466995200,1.6829951171875,0.0926566563874483,0.00628784809783101,0.005975731675047427
1772644021477036300,1.693036376953125,0.10687105970084666,0.002143807095661759,0.0013002689436078072
1772644021487076400,1.703076416015625,0.07784311813712119,-0.0012106178987771271,0.0008459310385398566
1772644021497117200,1.7131171875,0.08742226286530494,0.007434460849687457,-0.009089297118317335
1772644021507158300,1.723158203125,0.08891805438101291,0.005043985516577959,0.0022952165313996375
1772644021517199400,1.733199462890625,0.0959510217577219,0.014170162312872707,0.004704844089550897
1772644021527240200,1.743240234375,0.09654840312898158,0.0025347791746258732,0.007548250821931287
1772644021537281300,1.75328125,0.0781435623884201,0.001913505471125245,-0.009963787531061098
1772644021547321300,1.7633212890625,0.09056231445670128,0.008113492622412741,-0.00043110315995290873
1772644021557362400,1.773362548828125,0.1049263553738594,0.003206139097549021,-0.0016237470106221735
1772644021567403300,1.7834033203125,0.09295593159496783,-0.007910663526691496,0.0011431238868273793
1772644021577444400,1.7934443359375,0.10717267299592495,0.007000124553032219,-0.005281675863126292
1772644021587485400,1.8034853515625,0.1071703349083662,0.014813245989382266,0.003941367170074954
1772644021597525200,1.813525146484375,0.09190613028109074,0.0069081719532608984,0.0011291227609384804
1772644021607566300,1.82356640625,0.08936404458284378,0.0022337504014372823,0.0017134437212254852
1772644021617607400,1.833607421875,0.0919072993248701,0.0007179390110075473,0.004491155673097819
1772644021627648300,1.843648193359375,0.10223170946240424,-0.0006374941859394311,0.0032006774711422622
1772644021637689300,1.853689453125,0.08711772696077823,-0.0015371829720214009,0.004877341979090124
1772644021647730400,1.86373046875,0.08876257155835628,-0.0003198065388947725,0.0076181742529850445
1772644021657770500,1.8737705078125,0.08292553596794605,0.0038839652938768266,-0.0017563421480357646
1772644021667811300,1.883811279296875,0.10357494076490402,0.009450184586271643,-0.007921184920705855
1772644021677852400,1.893852294921875,0.10223229398429393,0.0021462913136929274,-0.005547121866280213
1772644021687893500,1.9038935546875,0.09909165787100792,0.006133680449426174,0.0027009295217692852
1772644021697934300,1.913934326171875,0.10492577085196972,0.003320814985781908,0.00005398607640527189
1772644021707974400,1.923974365234375,0.09983633875846862,0.007412504746206104,0.004863806644082069
1772644021718015500,1.934015380859375,0.09384849652051926,0.005083038885332644,-0.00037134492988698183
1772644021728056300,1.944056396484375,0.09280220233798027,0.006252338393032551,0.0009737860687542706
1772644021738097400,1.954097412109375,0.09489595974683761,0.007467011412419378,0.004740545590594411
1772644021748138500,1.964138427734375,0.10043313560783862,0.007745645690709352,0.0025265776018612083
1772644021758179300,1.974179443359375,0.09848375510573387,0.009050481211580336,0.003167469321284443
1772644021768219100,1.98421923828125,0.10416998404860496,-0.0015634499244391918,0.0009038535045459866
1772644021778260200,1.99426025390625,0.07962824798822403,-0.002589943427965045,0.0007858714143745601
1772644021788301300,2.00430126953125,0.09354688322544097,0.001563997913710773,0.006242675515543669
1772644021798342100,2.014342041015625,0.10402093096673488,0.014156718309409915,0.001285071374475956
1772644021808383200,2.02438330078125,0.09459317740797996,0.012682736766710877,0.006044632192794233
1772644021818423300,2.03442333984375,0.0918991160184145,-0.001348565064743161,-0.0005530307728797197
1772644021828464400,2.04446435546875,0.09144844964146613,0.0027336992802098393,-0.003980758465547115
1772644021838505200,2.054505126953125,0.08411386896967887,0.00999488592222333,-0.0047255306845530864
1772644021848546300,2.06454638671875,0.09443711006343364,0.013626045498810708,0.006524789525708183
1772644021858587400,2.07458740234375,0.08501169459223747,0.007106397939100861,-0.013908378704683854
1772644021868627200,2.084627197265625,0.09338964683711529,-0.0012706044577062128,0.007925139576615765
1772644021878668300,2.094668212890625,0.09773030638992786,0.008567593065463007,0.0012114307495299727
1772644021888709400,2.10470947265625,0.08426116848587989,0.015320647522248328,0.0027557558483909815
1772644021898750200,2.114750244140625,0.10416238526403904,0.0026347689503803846,-0.00010724150044843554
1772644021908791300,2.124791259765625,0.09952595763504504,0.010207359629124403,-0.004778548646578565
1772644021918832400,2.134832275390625,0.09907646030187606,0.004102430350147187,0.005819490800565108
1772644021928872400,2.14487255859375,0.09937573550939559,0.005790493034943938,-0.0062385747291613365
1772644021938913300,2.154913330078125,0.09324176279902457,0.013242051149904727,-0.0044666422863490875
1772644021948954400,2.164954345703125,0.09907704482376575,-0.002475523268058896,0.010678767400002107
1772644021958995500,2.174995361328125,0.10566168391108512,0.00602861263975501,0.001730212192935869
1772644021969036300,2.185036376953125,0.08980126695632934,0.011242767091467976,0.00575432574301958
1772644021979076400,2.195076416015625,0.08321604334712028,0.012308277431130409,0.0032576318227685985
1772644021989117400,2.205117431640625,0.0903957257181406,0.015524828324839472,0.0025367336696945127
1772644021999158300,2.215158203125,0.10715221472978591,0.003331847836449742,-0.0025145766368135807
1772644022009199400,2.225199462890625,0.09787468329668045,0.003336925870366394,-0.006730723893968388
1772644022019240400,2.235240478515625,0.09158990393877028,0.006663695672899484,-0.0017103658481501041
1772644022029281000,2.245281005859375,0.08649813375771045,-0.00250558961275965,0.0020785415734164417
1772644022039322000,2.255322021484375,0.07557341963946819,0.00694510643016547,0.0009340203139465302
1772644022049363200,2.26536328125,0.08649462662637233,0.0021863310631364584,0.0005629950444679707
1772644022059404000,2.275404052734375,0.10535071826577186,0.005313778901286423,0.0049640795476268975
1772644022069445000,2.285445068359375,0.08859364473223685,-0.006563998158089816,-0.002256893815007061
1772644022079486200,2.295486328125,0.07228197687864303,0.019045294068567455,0.00958622292294167
1772644022089526300,2.3055263671875,0.09113573043048381,0.00710807843953371,-0.0035771095681004224
1772644022099567000,2.315567138671875,0.09203297153115272,0.0021549130115658044,0.005759723437344655
1772644022109608200,2.325608154296875,0.09981529597043991,0.01130037903022021,-0.0006369827292859554
1772644022119649300,2.335649169921875,0.08934066370725631,0.011471169019863009,0.007966896359110251
1772644022129690000,2.345690185546875,0.0906874021410942,0.005096775149740279,-0.011150266502425074
1772644022139730000,2.35572998046875,0.09023790480792522,0.004512107129581272,0.00019386947113089262
1772644022149771000,2.36577099609375,0.0832025993436575,0.009828370248898863,-0.004450695798546076
1772644022159812000,2.37581201171875,0.0824567494124174,0.0040743732994422315,0.0007701806548982859
1772644022169853000,2.38585302734375,0.1001157402217388,0.012262173267081379,0.0031489016181323677
1772644022179894000,2.39589404296875,0.08679857800900935,0.00927855434641242,0.0023439601771067828
1772644022189934000,2.40593408203125,0.09831950445473193,0.007827953679300843,0.0011033763983286917
1772644022199975000,2.415974853515625,0.09443068032264709,-0.005670592982321978,0.0007547456237487494
1772644022210016000,2.42601611328125,0.09861936418414115,-0.0008718874637037515,0.0024755689338315278
1772644022220057000,2.43605712890625,0.09697218149900436,-0.0014469474053010343,-0.012442836196767166
1772644022230098000,2.446097900390625,0.08769289650022984,0.002596409701369703,0.0032038192762993273
1772644022240139000,2.456138916015625,0.09517594573199749,0.00913172975424677,0.0025033885225187987
1772644022250179000,2.466178955078125,0.07946516638100147,0.013146189559996127,-0.0011212317154277115
1772644022260220200,2.47622021484375,0.0903869578897953,-0.0019243191260844468,-0.002737863998673856
1772644022270261000,2.486260986328125,0.09143500563800334,0.007472929696552455,0.008085353373317047
1772644022280302000,2.496302001953125,0.09607435587644576,0.008617533154413104,0.0038209099950268863
1772644022290343200,2.50634326171875,0.09218085556924342,0.006307794907316565,0.004714443034958094
1772644022300383000,2.516383056640625,0.08694295491576194,0.007226845980994403,0.002915229859575629
1772644022310424000,2.526424072265625,0.08724281464517115,0.0004927154203876853,-0.002639646054897457
1772644022320465200,2.536465087890625,0.10131167200803756,-0.0021317513316869733,0.0016461871712934225
1772644022330506000,2.546506103515625,0.10176058481931685,-0.0003461830891668796,0.0015200765735935418
1772644022340547000,2.556547119140625,0.09008534459471702,-0.0026454730074852704,0.0032145689991768447
1772644022350587100,2.566587158203125,0.0837993961930275,-0.0010914119658991695,0.008117611675104126
1772644022360628200,2.576628173828125,0.09771569334268569,0.00041490094382315874,-0.004347628149716183
1772644022370669000,2.5866689453125,0.09876315656900406,-0.006302168884128332,-0.010375893729599192
1772644022380710100,2.596710205078125,0.08559504743814468,-0.011682364085130393,0.007899996002204715
1772644022390751200,2.606751220703125,0.09053367288410663,0.007912015233561396,-0.0015780995042994617
1772644022400792000,2.6167919921875,0.10116028083860873,0.007462992824427783,0.0037978853124659507
1772644022410832100,2.62683203125,0.09502455456256866,-0.012103585171885787,0.008836884126672521
1772644022420873200,2.636873291015625,0.09128186090290547,0.0027754560627043247,-0.008389880144689232
1772644022430914000,2.6469140625,0.09711714292764663,0.00952657429073006,-0.007193564765900373
1772644022440955100,2.656955078125,0.10160568651854991,-0.0005066708805039525,0.001373178916191682
1772644022450996200,2.666996337890625,0.07766483896076679,0.013689941047877073,-0.00566159682511352
1772644022461036000,2.6770361328125,0.0894844560921192,0.011820092055387794,-0.010384551960090175
1772644022471076900,2.687076904296875,0.08754325889647006,0.001222052608244121,-0.006360502342088147
1772644022481118000,2.697117919921875,0.08874152877032757,0.003003273469209671,-0.00400388361280784
1772644022491159000,2.707158935546875,0.09278232859373092,0.005508424690552055,-0.0037970815948676316
1772644022501200000,2.717199951171875,0.09383096086382865,0.013098295297659933,-0.0012452599538955837
1772644022511240000,2.727239990234375,0.0875461815059185,0.014879918017424642,-0.0058675037939101456
1772644022521281000,2.737281005859375,0.09727379479408263,0.0023967224108055233,-0.00564043530607596
1772644022531322000,2.747322021484375,0.10924480309486388,0.014206183474324643,-0.0020210940314456818
1772644022541363000,2.757363037109375,0.09817045137286186,0.0063001595901325345,0.009985789300315082
1772644022551404000,2.767404052734375,0.08979191460609436,-0.006754990685544908,-0.004676257315883413
1772644022561444000,2.777444091796875,0.09383037634193897,0.003448752214387059,0.006574976209830492
1772644022571485000,2.78748486328125,0.09652736034095287,0.007819806905463337,0.00019464578926563263
1772644022581526000,2.797526123046875,0.09937047481238842,0.0035933117842301726,0.0021921488825697453
1772644022591567000,2.807567138671875,0.09622808513343334,0.013755188303813337,0.006281911547388881
1772644022601608000,2.81760791015625,0.09428454985022544,0.00323401348516345,0.006578172813914716
1772644022611649000,2.82764892578125,0.09787702138423919,0.0024463337061926722,-0.009281550021097063
1772644022621689000,2.837689208984375,0.09159165750443934,0.007412979670241474,0.0074534121453296385
1772644022631730200,2.847730224609375,0.09997136331498623,0.010375300074554979,0.0027029570820741354
1772644022641771000,2.85777099609375,0.09967267262935638,0.008136800432763993,0.005952022005897015
1772644022651812000,2.86781201171875,0.0956330418497324,-0.002168539678119123,-0.0015980006480123847
1772644022661853200,2.877853271484375,0.09533552020788193,0.009194858118332922,-0.01218639548397623
1772644022671893000,2.88789306640625,0.09443827910721302,0.008730236281268297,-0.006973656671214848
1772644022681934000,2.89793408203125,0.0866577082335949,0.012012217094004154,-0.008185160485981032
1772644022691975200,2.90797509765625,0.09443711006343364,0.0036853374492377042,-0.004279047292377799
1772644022702016000,2.91801611328125,0.08770575598180294,0.008231858305074275,-0.0017251524253282695
1772644022712057000,2.92805712890625,0.0910012903958559,0.009345920494198799,-0.001758680235594511
1772644022722097200,2.93809716796875,0.0965390507787466,0.004212356998026371,0.0018141550161875784
1772644022732138200,2.94813818359375,0.09699088619947432,-0.006343377677351236,-0.0049444797980133445
1772644022742179000,2.958178955078125,0.09893617504835128,0.006401245344430208,0.007600465066358446
1772644022752220200,2.96822021484375,0.08920973080396652,0.0005430208355188369,-0.0009142287680879235
1772644022762261200,2.97826123046875,0.09369944343864917,0.004595438031479716,-0.003942298751836643
1772644022772302000,2.988302001953125,0.09220423644483089,0.010067549299634992,0.0022451851109042765
1772644022782342000,2.998341796875,0.09878653744459151,0.015940423388406632,-0.0035656748586334287
1772644022792383000,3.008383056640625,0.0957943698912859,0.006354885452054441,-0.0008711476781871169
1772644022802424000,3.018424072265625,0.0809802471190691,0.009339600351266563,-0.002646030129911378
1772644022812465200,3.028465087890625,0.1001332758784294,0.007998122614435851,-0.010556209599412976
1772644022822506200,3.03850634765625,0.08995674977898598,0.005487856826558709,-0.0027615371352061628
1772644022832546000,3.048546142578125,0.09130115012526512,0.010064370961859822,0.0022766122956294566
1772644022842587000,3.0585869140625,0.09070318423211574,-0.004610014546103775,-0.0017699779477436093
1772644022852628000,3.0686279296875,0.10985679751336574,-0.0004154489330947399,-0.0016255645083729177
1772644022862669000,3.0786689453125,0.09459317740797996,0.004221636283025145,0.0023052447350695726
1772644022872710000,3.0887099609375,0.08995616525709628,0.012093173375725746,0.0027591716481838373
1772644022882750000,3.09875,0.09354746774733066,0.01056216441616416,0.00031617154339328406
1772644022892791000,3.108791015625,0.10432137521803378,0.004113097874633967,0.001979063254315406
1772644022902832000,3.11883203125,0.09938274977207183,0.0014127894073724745,-0.010387127509666607
1772644022912873000,3.128873046875,0.09100421300530433,0.008418101592175662,-0.006064058412471786
1772644022922914000,3.1389140625,0.08412205227613448,0.018103008249774573,-0.0009686532359104603
1772644022932954000,3.1489541015625,0.08756371716260909,0.009415588196925818,-0.0015568101210985332
1772644022942995000,3.158994873046875,0.08292670501172542,0.009527560671418904,0.003943422129843384
1772644022953036000,3.1690361328125,0.09235328952670097,0.00730743693653494,-0.0008542696086224168
1772644022963077000,3.1790771484375,0.09728899236321449,-0.00012417436894029377,-0.0045372233045287425
1772644022973118000,3.189117919921875,0.09055354662835598,0.0014184884957969188,-0.0006149809600319713
1772644022983159000,3.199158935546875,0.09549041850864887,0.007856156860478221,0.01353879647362046
1772644022993199000,3.20919921875,0.08800912284255027,0.010970379890874028,-0.004091753692505881
1772644023003240200,3.219240234375,0.10581716673374175,-0.00807210116609931,-0.0021668683108408003
1772644023013281000,3.229281005859375,0.09818857155144214,-0.005928403668291867,0.0011447039225604384
1772644023023321900,3.23932177734375,0.09774199682772158,-0.0007581614235416055,0.0024774229642003775
1772644023033363000,3.249363037109375,0.09145780199170112,0.003550678218901157,-0.003639991337014362
1772644023043403000,3.259403076171875,0.09250584973990916,0.0021881211614236235,0.0008633114316035062
1772644023053443800,3.26944384765625,0.101187753367424,0.0037388760010711847,0.004009400038141757
1772644023063485000,3.27948486328125,0.10627543189525604,0.013770057079382239,0.0018747443633154034
1772644023073526000,3.289526123046875,0.107174426561594,0.010011800524406134,-0.002028601484466344
1772644023083566800,3.29956689453125,0.09610007483959197,0.003471804296411574,-0.0013009356638882309
1772644023093606700,3.309606689453125,0.08293255023062229,0.0043540670236572624,0.010184334946563466
1772644023103647700,3.319647705078125,0.09295943872630595,0.002375643090158701,0.011373106339713559
1772644023113688800,3.329688720703125,0.09400631743073463,0.0010291421183384955,-0.0037048367341514675
1772644023123729700,3.339729736328125,0.10373393071889876,-0.000788172969315201,-0.0013174392741173505
1772644023133770800,3.349770751953125,0.09834756150543689,0.0020458448802120983,-0.002852293291734531
1772644023143810800,3.359810791015625,0.08218903838694096,0.003765490013360977,-0.008385541896289215
1772644023153851600,3.3698515625,0.09775251822173595,0.0020674356575123964,-0.001302004242967814
1772644023163892700,3.379892822265625,0.09775134917795658,-0.00616153657073155,-0.001246173269348219
1772644023173933800,3.389933837890625,0.0883259337067604,0.006189794550836086,0.0037568591823335736
1772644023183974700,3.399974609375,0.09580606032907962,0.003096943102031946,-0.005981823489116504
1772644023194015700,3.410015625,0.1044821187376976,0.008411726650316267,-0.0008383779197465628
1772644023204055800,3.420055908203125,0.09355798914134501,0.009460486784577369,0.008785482732998206
1772644023214097000,3.430096923828125,0.09385843339264392,-0.004773205751180649,0.0032025315015111115
1772644023224137700,3.4401376953125,0.08622750012278556,0.0025418665025383233,0.005122475846577435
1772644023234178800,3.4501787109375,0.08876900129914284,0.0012606127866543828,0.0014042955736629664
1772644023244220000,3.460219970703125,0.08487900812327862,0.0091700707369484,-0.004113810260687023
1772644023254259700,3.470259765625,0.09894552739858627,0.00004962956169620156,-0.004618672776594758
1772644023264300800,3.48030078125,0.08323299448192119,-0.006083265436440706,0.010689982913760467
1772644023274342000,3.490341796875,0.09475567449331283,0.004806560031510889,-0.0015625457421410828
1772644023284382700,3.5003828125,0.09400924004018306,0.008520849580597132,-0.0007218297348357736
1772644023294423800,3.510423828125,0.09280980112254619,0.011435440119355916,-0.008201554498355836
1772644023304464000,3.5204638671875,0.09894786548614501,0.021387473280541597,0.007921029657078906
1772644023314505000,3.5305048828125,0.09789923321604728,0.011991959757264702,0.005091779314214363
1772644023324545800,3.5405458984375,0.0892190831542015,0.004829301586281508,0.000032157837087288494
1772644023334587000,3.5505869140625,0.10059212556183338,0.006910089915711432,-0.004308273386862129
1772644023344628000,3.5606279296875,0.11002104816436767,0.0011647329304367304,-0.005650573107600212
1772644023354667800,3.570667724609375,0.08772621424794197,0.0025900347595103086,0.003700270156888291
1772644023364708900,3.580708984375,0.09505904135406017,0.005560392339807004,-0.00886084952414967
1772644023374750000,3.59075,0.09296236133575439,-0.0001108947622589767,-0.004132514961156994
1772644023384790800,3.600790771484375,0.1044862103909254,0.00417860085889697,-0.00920690474915318
1772644023394832000,3.610831787109375,0.0946130511522293,-0.0032521153974346814,0.005591856057150289
1772644023404873000,3.620873046875,0.08458908526599407,0.008098404651135207,-0.002428606253257021
1772644023414913000,3.6309130859375,0.10658756658434868,-0.0001650361022911966,0.005749841364147142
1772644023424953900,3.640953857421875,0.09790800104439258,-0.0013084339837543665,0.0007431921832729131
1772644023434995000,3.650994873046875,0.09745616562366485,0.009891188085731119,0.006060003291862085
1772644023445036000,3.6610361328125,0.09640753335356712,0.006339925344940275,0.0031893158269114793
1772644023455076900,3.671076904296875,0.09715279876291752,0.001775740968249738,-0.004832096331566572
1772644023465116700,3.68111669921875,0.099994159668684,0.005572027978673577,-0.00153721037148498
1772644023475157800,3.69115771484375,0.09415770860016345,0.00038527299053966996,0.006780024662101641
1772644023485198800,3.70119873046875,0.09370645770132541,0.0017666078137233852,-0.00018931202702224254
1772644023495239700,3.71123974609375,0.08846797252595424,0.013774185265228151,-0.008117355946777389
1772644023505280800,3.72128076171875,0.09325637584626674,0.013323993812315166,-0.0027050759739242493
1772644023515320800,3.73132080078125,0.08846738800406455,0.011073730667494237,0.0054238060138653964
1772644023525361700,3.741361572265625,0.09071078301668166,0.00271514071021229,-0.0006680080552119762
1772644023535402800,3.75140283203125,0.0926566563874483,-0.003440020918659866,-0.003064639134472236
1772644023545443800,3.76144384765625,0.09355565105378627,0.005083952200785279,0.0091336111840792
1772644023555484700,3.771484619140625,0.1070224508702755,0.0021208280788734555,-0.007070705571211874
1772644023565524700,3.781524658203125,0.08801905971467494,0.0077845529289916155,0.0008950034778099507
1772644023575565800,3.79156591796875,0.0944523076325655,0.007668050409853458,0.0011904610267374665
1772644023585607000,3.80160693359375,0.08996317951977252,-0.0020587591607123612,-0.010194646278023719
1772644023595647700,3.811647705078125,0.10043372012972832,0.00447327295653522,-0.00037209384855814274
1772644023605688800,3.821688720703125,0.08022972101271152,0.004521094153635203,0.015885231735603883
1772644023615729000,3.83172900390625,0.0820259567797184,0.005995879413932562,-0.00010148761309683323
1772644023625769700,3.841769775390625,0.08681611366569995,0.00011526041012257337,-0.006134073175070807
1772644023635810800,3.851810791015625,0.09280103329420089,-0.0015108429543673992,0.0006005414427258074
1772644023645852000,3.861851806640625,0.0995364790290594,0.006511135459691285,0.00467138021136634
1772644023655892700,3.871892822265625,0.10178162760734558,0.0040877077050507065,-0.00444988294779323
1772644023665933800,3.881933837890625,0.11061141527295112,0.006456153869442641,0.001530406171362847
1772644023675974000,3.891973876953125,0.11120645855665207,0.0037415611485019326,-0.010058041685773058
1772644023686015000,3.902014892578125,0.09609189153313637,0.00901749225743115,0.004310584074957296
1772644023696055800,3.912055908203125,0.09878244579136371,0.009677819329686463,0.00842344448757358
1772644023706097000,3.922096923828125,0.09174538676142692,-0.0003806333480402827,-0.0038246089226100593
1772644023716138000,3.932137939453125,0.10685936926305294,0.010988755797781049,-0.008039879396930337
1772644023726178000,3.942177978515625,0.09698153384923934,0.00776986681651324,-0.0020817199111916123
1772644023736219000,3.952218994140625,0.0942903950691223,0.008732026379555464,-0.0002763144570402801
1772644023746260000,3.962260009765625,0.09803484229445457,0.004269019088707864,-0.00023822920266538858
1772644023756300800,3.97230078125,0.0817249280065298,0.0017176541054621337,-0.014166362920589743
1772644023766342000,3.982341796875,0.09295067089796066,0.0008866466414183378,-0.0029961770081426945
1772644023776381700,3.992381591796875,0.0959463455826044,0.012041297058016062,-0.008455373995797709
1772644023786422800,4.0024228515625,0.08936404458284378,0.005130713951960205,-0.010462138107791542
1772644023796463600,4.012463623046875,0.08173311131298541,0.014903554621338843,0.007512868981296196
1772644023806504700,4.022504638671875,0.09190846836864948,0.0029158143814653156,0.009322923211101442
1772644023816545800,4.0325458984375,0.09340542892813682,-0.002648030290752649,0.0036578466541133817
1772644023826585900,4.0425859375,0.09355272844433785,0.0007002937564626336,-0.008411005131108686
1772644023836626700,4.052626708984375,0.09145721746981143,-0.0011151947002857924,-0.0017189601465594023
1772644023846667800,4.062667724609375,0.09474632214307785,0.008955788665451108,0.004810076296003535
1772644023856708900,4.072708984375,0.08202829486727714,-0.0000703618224710226,-0.003821604114770889
1772644023866749700,4.082749755859375,0.09370002796053886,0.0049829029791057106,0.003112085872236639
1772644023876789800,4.092789794921875,0.08696925840079783,0.004318392922077328,0.009054317136481404
1772644023886830800,4.102830810546875,0.09999123705923557,-0.006117021575570106,-0.006079356446303427
1772644023896871700,4.11287158203125,0.10044190343618392,0.0037089557868428525,-0.0015983659741934388
1772644023906912800,4.122912841796875,0.08697568814158439,0.008172657197434454,0.0018437647031620144
1772644023916953900,4.132953857421875,0.0958025531977415,0.009872318988479673,0.014686505204020067
1772644023926994700,4.14299462890625,0.0978986486941576,0.003418265744578093,-0.0011923059239517897
1772644023937034800,4.15303466796875,0.10717734917104244,0.007899174018297345,-0.004698523946618661
1772644023947075800,4.163075927734375,0.1056803886115551,0.007039945106767117,0.0010827902680262923
1772644023957117000,4.173116943359375,0.09311141441762447,0.002669310540799051,-0.004882420013006776
1772644023967157800,4.18315771484375,0.10163841974437236,-0.0067061465751379725,-0.001671129816304892
1772644023977198800,4.19319873046875,0.09430734620392323,0.0010337452282197773,-0.005104291735915467
1772644023987239000,4.203239013671875,0.08757423855662345,-0.00064849050398916,0.006008364436170086
1772644023997280000,4.213280029296875,0.08802315136790274,0.001607636126037687,0.004000933603895828
1772644024007320800,4.22332080078125,0.10807517479360103,0.00338381548570469,0.007760012142779305
1772644024017362000,4.23336181640625,0.096404026222229,0.0027866898427717384,0.004873414722643792
1772644024027402500,4.243402587890625,0.07814823856353759,0.00700087347170338,0.0003439180668443441
1772644024037442600,4.253442626953125,0.09490472757518291,0.00992609500233084,-0.003682898896979168
1772644024047483400,4.2634833984375,0.09430734620392323,0.0073361515743657945,0.0029288291266653687
1772644024057524500,4.2735244140625,0.08966682692170143,0.005729191301763057,0.0018949834337458013
1772644024067565600,4.283565673828125,0.09400631743073463,0.001972852709237486,0.0028437081264797597
1772644024077606400,4.2936064453125,0.09161270029246807,0.004348696728795767,-0.00418754221717827
1772644024087646200,4.303646240234375,0.09430734620392323,0.0017873400744982063,-0.00691743297195062
1772644024097687600,4.3136875,0.09416180025339126,0.0012262903919443488,0.0009634199383668601
1772644024107728400,4.323728271484375,0.10134732784330844,0.001918291244097054,0.0019072583934292195
1772644024117769500,4.33376953125,0.09252104730904102,0.00559135373365134,-0.00558126159789972
1772644024127810600,4.343810546875,0.10673720418810843,0.0054260253704153,-0.005759796502580866
1772644024137850400,4.353850341796875,0.10000585010647774,0.0011905614914372563,-0.007583815325656905
1772644024147891200,4.36389111328125,0.08668927241563797,0.0032849399548023936,-0.0033608730015344916
1772644024157932300,4.373932373046875,0.08788812681138515,0.017321265021245924,0.004068400216381996
1772644024167973400,4.383973388671875,0.09492401679754256,0.007361048553604632,-0.000907771627837792
1772644024178014200,4.39401416015625,0.09507306987941265,0.0036288397553376852,-0.004761935438495129
1772644024188054300,4.40405419921875,0.08788812681138515,0.0016327340346761047,0.00027901787078008053
1772644024198095400,4.414095458984375,0.09970949750840663,0.01539999636877328,-0.0013609952880535275
1772644024208136400,4.424136474609375,0.09282616773545742,-0.011535484694037586,-0.008561866577574982
1772644024218177300,4.43417724609375,0.09252923061549663,0.002192998265940696,0.00842351755280979
1772644024228218400,4.44421826171875,0.1058458083063364,0.009562102261837572,-0.0021842213044408706
1772644024238258400,4.454258544921875,0.08639116625189781,0.0066120020182803265,-0.00980063285860233
1772644024248299300,4.46429931640625,0.09761340201199054,0.002276694494020194,0.0019083909045904874
1772644024258340400,4.47434033203125,0.08803776441514491,-0.008831888291146606,-0.0021528215191792695
1772644024268381400,4.48438134765625,0.08759060516953468,0.006383636622503399,-0.0035314255291596054
1772644024278422300,4.49442236328125,0.08908698120713233,-0.0013763481208123266,-0.0020527038792613893
1772644024288462300,4.50446240234375,0.09118073861598967,0.00015509923016652463,-0.0026631821941118686
1772644024298503400,4.51450341796875,0.0937286695331335,-0.0011573350752703845,0.002073089080164209
1772644024308544500,4.52454443359375,0.10450433056950569,-0.0031319230838678775,-0.004553489452740177
1772644024318585300,4.53458544921875,0.089096918079257,0.01185834170654416,-0.006599343466106802
1772644024328626400,4.54462646484375,0.09209142372012138,0.00225769753260538,0.0043830739224329585
1772644024338667500,4.55466748046875,0.10107143351137637,0.0029947979018092154,0.0007110343461856246
1772644024348707300,4.564707275390625,0.08566285197734833,-0.004321479928307235,-0.0012467943238560109
1772644024358748400,4.57474853515625,0.1043687214910984,0.00372223539352417,-0.0068038256627973165
1772644024368789500,4.58478955078125,0.10242343264222145,0.0038850795387290415,-0.007096744194766506
1772644024378830300,4.594830322265625,0.10182195961773395,0.0021587489364668726,0.007919924545381218
1772644024388871400,4.604871337890625,0.08880290356874465,0.0037914099059067666,-0.009063715152489021
1772644024398911500,4.614911376953125,0.0976285995811224,0.005788995197601616,-0.002554616386257112
1772644024408952600,4.62495263671875,0.10645721820294857,0.004152918428368866,0.0071485200477764
1772644024418993400,4.634993408203125,0.09613456163108348,-0.0006981017993763089,0.011004464823566377
1772644024429034500,4.645034423828125,0.08251929325461387,0.007790562544669956,0.005574521329859272
1772644024439075600,4.65507568359375,0.09793196644186973,0.009898330212570727,0.009471410037390887
1772644024449115400,4.665115478515625,0.10092471851706504,0.01152315493542701,-0.009642647551605477
1772644024459156200,4.67515625,0.09613748424053191,0.007297481798101216,-0.0003846884686499834
1772644024469197300,4.685197265625,0.09254910435974598,0.0007766651946119964,-0.0063515609838068485
1772644024479238100,4.695238037109375,0.09419862513244151,0.00113165264474228,0.002108352189790457
1772644024489279200,4.705279296875,0.08806406790018081,-0.0018555647388100623,-0.003181936238054186
1772644024499319300,4.7153193359375,0.10003741428852081,0.0015460603982210158,-0.0004021875927224755
1772644024509360400,4.7253603515625,0.09779460379779338,0.006289985255990177,0.0005959018002264201
1772644024519401200,4.735401123046875,0.0939069487094879,0.0008128690191544592,0.003456981186615303
1772644024529442300,4.7454423828125,0.0918114377349615,-0.0014228724099695682,0.0027345029978081583
1772644024539483400,4.7554833984375,0.08926993655860424,0.0014765022933483122,-0.0020110932272393257
1772644024549523500,4.7655234375,0.09660101009905338,0.0037496713897213338,-0.0009479575077537447
1772644024559564300,4.775564208984375,0.10198562574684619,0.008614921072218567,-0.0012514613658189773
1772644024569605400,4.78560546875,0.09884089798033237,0.009442695399560034,-0.007722895002784207
1772644024579646500,4.795646484375,0.09644669632017612,0.0031711043167859314,-0.004008614586852491
1772644024589687300,4.805687255859375,0.09270634074807166,0.010616634549759328,0.0009726992233656346
1772644024599727400,4.815727294921875,0.09749474406838417,-0.008522420483175665,0.007697322170110419
1772644024609768400,4.8257685546875,0.08267828320860862,-0.0054794908570125695,0.003542476646136492
1772644024619809300,4.835809326171875,0.09404840300679207,0.006717837012931704,-0.001974505810206756
1772644024629850400,4.845850341796875,0.11080781462788582,-0.0007829853375442325,0.00418987117158249
1772644024639891500,4.855891357421875,0.08297931198179721,0.006869885769486427,-0.007333996149897575
1772644024649931500,4.865931640625,0.09734569098651409,0.018527791266795247,-0.006633784591825679
1772644024659972400,4.875972412109375,0.10392740746438503,0.011879293163027613,-0.010087057717703282
1772644024670013400,4.886013427734375,0.08208031731545924,-0.0014457418289035558,-0.010239627064066007
1772644024680054500,4.896054443359375,0.09435060082376003,0.008581566791888326,0.002192194548342377
1772644024690095400,4.906095458984375,0.11365502075254917,0.00015104410955682395,0.008487312637176364
1772644024700136400,4.916136474609375,0.11979016250669955,-0.0021020137805491685,-0.0022430662190541626
1772644024710176500,4.926176513671875,0.08627192378640175,-0.001084543833695352,0.0014977734102401882
1772644024720217300,4.93621728515625,0.10018763641417026,-0.0016929215230047701,-0.001261626566806808
1772644024730258400,4.946258544921875,0.10617314056456088,0.010250522917415947,0.005988636822393163
1772644024740299500,4.956299560546875,0.10542378350198268,0.004265420625824481,-0.006500723663531244
1772644024750340400,4.96634033203125,0.09764262810647487,-0.007114654310792684,0.0047463816763367505
1772644024760380200,4.976380126953125,0.09405191013813018,0.0033287060312926766,0.00777249716501683
1772644024770421200,4.986421142578125,0.0801350284665823,0.0010733831188641488,-0.00833924593599513
1772644024780462300,4.99646240234375,0.09494681315124034,0.003563355037383735,-0.002529984268499538
1772644024790503200,5.006503173828125,0.08581891932189464,-0.003603632248844951,0.0005619812643155455
1772644024800544300,5.016544189453125,0.09016016339659691,0.004579765538312495,-0.0018555738719645888
1772644024810584300,5.026584228515625,0.09749357502460479,0.0006642543287016451,-0.0032110710009932517
1772644024820625400,5.03662548828125,0.0919558146417141,0.005029372469335794,-0.009350012147426605
1772644024830666200,5.046666259765625,0.08970949701964855,-0.008406100627128035,0.003422457862505689
1772644024840707300,5.056707275390625,0.09824117852151393,0.0037826603438705204,-0.006589050400955602
1772644024850748400,5.06674853515625,0.1022813938230276,-0.007573430928960442,-0.005693453268101439
1772644024860788200,5.076788330078125,0.08432429684996605,0.013506784767005592,-0.004868510218663141
1772644024870829300,5.086829345703125,0.09419862513244151,0.013075298014562576,0.00031288360776379705
1772644024880870400,5.096870361328125,0.08791501481831074,0.0008762348452582955,-0.0010960150757804512
1772644024890911200,5.1069111328125,0.08866203379333018,0.014517368315346538,-0.0014973350188229233
1772644024900952300,5.116952392578125,0.09210311415791511,-0.0019194420215673743,0.015669908484490586
1772644024910992400,5.126992431640625,0.09180150086283684,0.008915913312789053,-0.005697773250192404
1772644024921033500,5.137033447265625,0.08446692019104957,0.006119542326219379,-0.004736061211721971
1772644024931074300,5.14707421875,0.09972761768698692,-0.002944346356205642,0.005441533466801047
1772644024941115400,5.157115478515625,0.10870645843446254,0.004517714886460453,-0.0026306772971525787
1772644024951156500,5.167156494140625,0.10152443797588348,-0.0002932107929140329,-0.007993373374082147
1772644024961196500,5.177196533203125,0.09179565564393996,-0.00022301336722448467,-0.007994798146188259
1772644024971237400,5.1872373046875,0.08745558061301707,0.005342109946627169,0.011906254235189408
1772644024981278500,5.197278564453125,0.09254267461895942,0.0070015127925202245,0.007575769016519188
1772644024991319300,5.2073193359375,0.09523615148663521,0.0002509425537660718,-0.0013577438850421457
1772644025001360400,5.2173603515625,0.10436404531598091,0.006225176391471177,-0.005370377059886231
1772644025011400400,5.227400390625,0.10780395663678645,0.011386796938348561,0.01075403372645378
1772644025021441500,5.237441650390625,0.10481120456159114,-0.004632774367183447,-0.0004612699693534523
1772644025031483000,5.24748291015625,0.09089373836815356,0.013459475026559083,-0.0015473481730092315
1772644025041524000,5.25752392578125,0.09269114317893981,-0.0027888087346218523,-0.014931876533525063
1772644025051565000,5.26756494140625,0.10121697946190833,-0.0005669862329959869,0.002696143748797476
1772644025061606000,5.27760595703125,0.08639934955835342,0.010476550225634127,0.00417251817798242
1772644025071646000,5.28764599609375,0.09088847767114638,0.007313556150067597,-0.0013472133578732609
1772644025081687000,5.29768701171875,0.07726911764144898,0.006333221609517932,-0.013888651090906931
1772644025091728000,5.307727783203125,0.08609422913193703,-0.0007204049627296626,-0.009289614596543833
1772644025101769000,5.31776904296875,0.09133037621974945,0.00575385081898421,-0.0017991035775281488
1772644025113064000,5.32906396484375,0.08310147705674172,0.004672412257827818,-0.0016509729442652314
1772644025123104800,5.339104736328125,0.08609598269760609,0.0033991957179270683,-0.004002860699500888
1772644025133145900,5.349145751953125,0.09058335724472999,0.013734693505056201,-0.0076577938773203635
1772644025143186700,5.359186767578125,0.09387538452744483,0.008040372587274759,-0.0046106356006115675
1772644025153227800,5.369227783203125,0.09327391150295734,-0.0013143888005055487,-0.005042862138571217
1772644025163268900,5.379268798828125,0.09581775076687335,-0.0031305713769979775,0.011344820960145443
1772644025173309000,5.389308837890625,0.10105389785468578,-0.003435837933886796,0.002601158941723406
1772644025183349800,5.399349853515625,0.08459609952867031,0.007709149605222046,-0.002948090949561447
1772644025193390800,5.409390869140625,0.09028174394965172,0.006510989329218864,0.0007284695381764322
1772644025203432000,5.419431884765625,0.09477145658433436,0.007388922941219061,-0.0006397044093348085
1772644025213472800,5.42947265625,0.10434884774684905,0.008139741308521478,-0.002467458692612126
1772644025223512800,5.439512939453125,0.10764204407334327,0.01316032768320292,0.0028427948110271244
1772644025233554000,5.449553955078125,0.09207856423854828,-0.008674414440803229,0.005116758491843939
1772644025243595000,5.459594970703125,0.0784662184715271,0.0022696984976530075,-0.0015115918730385601
1772644025253635800,5.4696357421875,0.08908931929469108,0.0023089710621163246,0.0029882585631683467
1772644025263677000,5.479677001953125,0.10046236170232295,0.006175254568830132,-0.006299063611589372
1772644025273717000,5.489717041015625,0.08969137684106826,0.0021701836459338663,-0.005315587265882641
1772644025283757800,5.4997578125,0.08475158235132693,-0.009496836739592254,0.003595293678762391
1772644025293799000,5.509798828125,0.09388006070256233,-0.005443195700924843,0.00400688842064701
1772644025303840000,5.519840087890625,0.0953752676963806,0.0011447313220240174,-0.008076302417181432
1772644025313880800,5.529880859375,0.09522446104884147,0.008497432172391564,0.01665676409737207
1772644025323921000,5.5399208984375,0.0838514186412096,0.010454776785243302,0.0029338249621912835
1772644025333962000,5.5499619140625,0.08968670066595077,0.011384604981262236,-0.003831851514149457
1772644025344003000,5.560003173828125,0.08250409568548202,0.006021032121498137,-0.021266385917831213
1772644025354044000,5.5700439453125,0.09417465973496436,-0.0016978716927580535,-0.002460407897317782
1772644025364085000,5.5800849609375,0.09567045125067233,-0.008703951062541454,-0.006073191566998139
1772644025374124800,5.590124755859375,0.09522095391750335,-0.0022573322064243255,-0.008144627546193078
1772644025384166000,5.600165771484375,0.0810059660822153,0.0018922434873878955,-0.00015568375205621122
1772644025394206700,5.610206787109375,0.07457388720810412,0.009306264337245374,-0.003908095088135451
1772644025404247800,5.620247802734375,0.08490005091130733,-0.0025670009437948464,-0.009443279921449721
1772644025414288600,5.63028857421875,0.10509878933131694,0.0006600530776195228,0.007006526894355192
1772644025424328700,5.64032861328125,0.09911094709336757,0.005226721672341227,0.00971756681818515
1772644025434369800,5.650369873046875,0.10120236641466616,0.007299765086732805,0.005925042667426168
1772644025444411000,5.660410888671875,0.09865969619452952,0.006693908148072659,-0.003424905547918752
1772644025454451700,5.67045166015625,0.09237491683661937,0.012526285829674452,-0.00836090977853164
1772644025464492800,5.680492919921875,0.08115385012030601,-0.006082644381932914,-0.009695300187449902
1772644025474534000,5.690533935546875,0.10299977122545241,-0.008773216906469315,0.00040019656503573057
1772644025484574000,5.700573974609375,0.09865852715075016,0.011041107039526104,0.002197080786013976
1772644025494614800,5.71061474609375,0.09401683882474898,-0.005958433480374514,0.0025418208367656916
1772644025504656000,5.72065576171875,0.10074994647204875,0.0020144450949504972,-0.009145977475307881
1772644025514697000,5.730697021484375,0.09117313983142375,-0.003523954608757049,-0.0007965298057068139
1772644025524737800,5.74073779296875,0.09730886610746384,-0.0014103599882684648,0.010966644430672749
1772644025534777900,5.75077783203125,0.10119885928332804,0.005290471090935171,0.012573622969584539
1772644025544819000,5.76081884765625,0.083990534850955,0.009456267267186194,0.0017126308704726396
1772644025554859800,5.77085986328125,0.09655775547921656,0.0033852402578108012,0.0009831566852983088
1772644025564900900,5.78090087890625,0.10374269854724406,0.0004720014259219169,-0.006056697089923545
1772644025574942000,5.79094189453125,0.09820493816435337,-0.003691968119423836,-0.003651426046481356
1772644025584982000,5.80098193359375,0.10329027860462665,-0.007217822424322366,-0.0004880209789611399
1772644025595022800,5.81102294921875,0.10732757129669189,-0.004747468521725386,0.011546398813696578
1772644025605064000,5.82106396484375,0.09580372224152088,0.007419098883774131,-0.008648229686776176
1772644025615105000,5.83110498046875,0.10074176316559313,0.02555286759799346,-0.005563095753546804
1772644025625145900,5.841145751953125,0.10029401939809322,0.008609368114266543,0.004322557640541344
1772644025635186000,5.85118603515625,0.09640168813467025,0.0053461285346187645,-0.007457494665402919
1772644025645227000,5.86122705078125,0.08951660479605197,0.005850333463400602,-0.006863419496081769
1772644025655267800,5.871267822265625,0.10283552057445049,0.0011861227783374487,0.0025241755822207777
1772644025665309000,5.881308837890625,0.08847147965729237,-0.00570416645836085,-0.007233266588626429
1772644025675350000,5.89135009765625,0.07949088534414768,0.005417202743142843,-0.005222894880594685
1772644025685389800,5.901389892578125,0.09415361694693565,0.006670308076776564,0.001192598184896633
1772644025695430700,5.9114306640625,0.09624971244335175,0.0012483560932800173,0.010631622056337072
1772644025705471700,5.9214716796875,0.09924187999665736,0.007686682045087218,0.004827082229731604
1772644025715512800,5.931512939453125,0.09684650929272175,0.006188369778729975,0.0058082935531158
1772644025725553700,5.9415537109375,0.08756897785961627,0.007960932409204542,0.00598884688494727
1772644025735593700,5.95159375,0.09639701195955276,0.012756496122665703,0.0025936606218572703
1772644025745634800,5.961634765625,0.08951192862093447,0.0013958748051896691,0.0046322172447573395
1772644025755676000,5.971676025390625,0.08981061930656432,0.004240359249804169,0.0009155713418032974
1772644025765716700,5.981716796875,0.09041092328727245,0.000896747910324484,-0.010435633693356067
1772644025775757800,5.9917578125,0.09804361012279987,-0.0011024448165670036,0.005585225386964157
1772644025785798000,6.0017978515625,0.08532499832510948,0.011300269432365893,0.006353396747866645
1772644025795838700,6.011838623046875,0.08382979133129119,0.0053006636913865805,0.004354505415074527
1772644025805879800,6.0218798828125,0.09639818100333213,0.00523342540776357,0.00157039112187922
1772644025815921000,6.0319208984375,0.10118658432364463,-0.003719038789439946,-0.0007752221561968326
1772644025825961700,6.041961669921875,0.09295651611685753,0.003493869997747242,-0.006056633157841861
1772644025836001800,6.052001708984375,0.09864391410350799,0.013217482964228838,0.004622170774778351
1772644025846043000,6.06204296875,0.1011883378893137,0.008434175944142043,0.0066508361913263795
1772644025856084000,6.072083984375,0.10792203005850315,-0.0017140921751968561,0.0061703409316949545
1772644025866124800,6.082124755859375,0.09341010510325432,-0.005090126213245094,-0.0053688700893893835
1772644025876166000,6.092165771484375,0.0940080709964037,0.012001293841190636,-0.010370696964673697
1772644025886206000,6.1022060546875,0.09131634769439696,0.014040033127181231,-0.0015079477443825453
1772644025896246800,6.112246826171875,0.09879530527293681,0.007819277182500809,0.006314462110120803
1772644025906287900,6.122287841796875,0.09490414305329323,0.004860262980125844,-0.006595991598395631
1772644025916329000,6.132328857421875,0.08039046453237533,-0.004900211398024112,0.0007381963477469981
1772644025926369800,6.142369873046875,0.0913151786506176,0.011534151253476739,-0.002567558066220954
1772644025936409900,6.152409912109375,0.10178805734813212,0.0014082593627274035,-0.0016766371084842829
1772644025946451000,6.162450927734375,0.09939210212230681,-0.0011098426717333495,0.0070678377606905995
1772644025956492000,6.172491943359375,0.08742050929963588,-0.005590440418198704,0.010998948398232459
1772644025966532900,6.182532958984375,0.08158347370922565,0.003714709674194455,0.001017743941489607
1772644025976574000,6.192573974609375,0.09400047221183776,0.0017287234887480734,-0.006503865468688309
1772644025986613800,6.20261376953125,0.08053074978590011,-0.003446578523609787,-0.0018468791088555006
1772644025996654800,6.21265478515625,0.08277297575473785,0.008025905670505016,0.0031858817608095705
1772644026006695700,6.22269580078125,0.10791267770826816,0.011007661427650601,0.0075091335210949175
1772644026016736800,6.23273681640625,0.08621405611932277,0.004584624376520514,0.0032075182038825
1772644026026777300,6.24277734375,0.11389642829298972,-0.0066206602487713095,0.0017152155532035975
1772644026036817400,6.2528173828125,0.09758592948317527,0.0065790495967492455,-0.0010414901432581245
1772644026046858200,6.262858154296875,0.09130056560337543,0.004042736052162945,-0.008201755427755414
1772644026056899300,6.2728994140625,0.09010171120762825,-0.0010066562918946147,0.0023384254854638127
1772644026066940400,6.2829404296875,0.09817863467931746,0.010425532424449921,0.00032927762013860046
1772644026076981200,6.292981201171875,0.1059592055529356,0.006995886769331991,0.001558435822604224
1772644026087021300,6.303021240234375,0.10476210472285746,0.004740764786303043,0.0020209205015096813
1772644026097062400,6.3130625,0.09189210175573825,-0.0001590630192309618,-0.003059214040683582
1772644026107103200,6.323103271484375,0.0942863034158945,0.004900156599096954,-0.001211649945238605
1772644026117144300,6.333144287109375,0.08605681973099708,0.008018361684866249,0.0035950562167447056
1772644026127185400,6.343185302734375,0.0983253496736288,0.002689019888266921,0.009008687896467745
1772644026137225500,6.3532255859375,0.09757365452349186,-0.004263137337192893,0.015045419910596682
1772644026147266300,6.363266357421875,0.09203530961871147,-0.001366575645469129,-0.0063283627713099115
1772644026157307400,6.373307373046875,0.09607552492022514,0.0059863444006070495,-0.0027995036585722116
1772644026167348500,6.383348388671875,0.09502338551878929,0.0038850978050380945,0.009333453738270327
1772644026177389300,6.393389404296875,0.10354980632364749,0.015643522801063955,0.002925458992645144
1772644026187429400,6.403429443359375,0.08828501717448234,0.003097564156539738,0.0020890447011217474
1772644026197470500,6.413470458984375,0.10205284576416015,0.004867898297309875,-0.00001987374424934387
1772644026207511600,6.423511474609375,0.11222644925415515,-0.001067775361984968,0.005842679879907518
1772644026217552400,6.433552490234375,0.10055413163900374,0.007768405511789023,0.001362977182585746
1772644026227593500,6.443593505859375,0.09831073662638663,0.017757592345587908,0.009741212555253878
1772644026237633300,6.45363330078125,0.10414601865112781,0.002810929234884679,-0.004336494834348559
1772644026247674000,6.463674072265625,0.09786299285888671,0.0014389102293178439,0.0027944986898917703
1772644026257715200,6.473715087890625,0.0785579884082079,0.0026775486461818217,0.007775812500109895
1772644026267756300,6.48375634765625,0.0935194106966257,0.0009410437097772956,0.00016752032032236455
1772644026277797000,6.493797119140625,0.0899251855969429,-0.0004895736152306199,-0.0036746607915963975
1772644026287837200,6.503837158203125,0.08558803317546844,0.010191431407630442,0.009083780692983419
1772644026297878300,6.513878173828125,0.08902911354005336,0.0075123849241063,-0.0034425325361546128
1772644026307919400,6.52391943359375,0.09890577991008757,-0.003148965550214052,-0.004627961194748059
1772644026317960200,6.533960205078125,0.08663374283611774,0.005999934534542262,0.011944047228619456
1772644026328001300,6.544001220703125,0.08304302486777305,0.011205175027437507,0.005374961903458461
1772644026338041300,6.554041259765625,0.08858020072877407,-0.0013687310699373482,0.0014386362346820532
1772644026348082400,6.56408251953125,0.10698504146933555,0.0034052418662235137,-0.0028268483232241123
1772644026358123300,6.574123291015625,0.0912754311621189,-0.005025390413962304,-0.004685965859144926
1772644026368164400,6.584164306640625,0.09037994362711906,0.006750497173517942,0.01203899550307542
1772644026378205200,6.594205078125,0.09696282914876937,-0.002205912546440959,0.008477366631897167
1772644026388245200,6.604245361328125,0.09890987156331539,-0.0007710939703509211,0.0005692695216275751
1772644026398286300,6.614286376953125,0.08170096260905266,0.01316942430511117,0.004151146596390754
1772644026408327400,6.624327392578125,0.0951665933817625,0.012798252905160188,-0.0014512582542374728
1772644026418368300,6.6343681640625,0.10249883596599102,0.008426577159576117,0.011179903588863088
1772644026428408300,6.644408203125,0.09112520903646945,-0.006367781466245651,0.010047611623303964
1772644026438449400,6.654449462890625,0.09621171852052211,0.0020282544245943425,-0.0009962718951981515
1772644026448490500,6.664490478515625,0.10040215594768524,0.002880414274521172,0.004889023283729329
1772644026458531300,6.67453125,0.09546528406739234,0.0036024449387565254,0.004563791651045903
1772644026468572400,6.684572509765625,0.08768237510621547,0.0004985971719026565,-0.00047095111315138637
1772644026478612500,6.694612548828125,0.08334346911907195,0.004056618447043001,-0.0010339552907738833
1772644026488653300,6.7046533203125,0.0891799201875925,0.008678031169995664,-0.004314009007904678
1772644026498694400,6.7146943359375,0.07287000589966773,0.003122844728268683,0.0015175832224078476
1772644026508735500,6.724735595703125,0.09681026893556118,0.007778342383913696,-0.0007839351856149733
1772644026518776300,6.7347763671875,0.09606208091676234,0.006570464431494474,0.007163836347917094
1772644026528816000,6.744816162109375,0.08409224165976047,-0.0011024448165670036,-0.007042876849370077
1772644026538857200,6.754857177734375,0.0854372265279293,-0.0058835781458765266,-0.006947453650878742
1772644026548898300,6.764898193359375,0.09456628940105438,0.008296046115085482,0.0047612230524420734
1772644026558939100,6.774939208984375,0.10354337658286095,0.001275682491622865,0.0017835680816788225
1772644026568980200,6.784980224609375,0.09456687392294406,0.011559870216622949,0.007736914394982159
1772644026579020300,6.795020263671875,0.09172200588583945,0.007578034038841724,0.006843646216532215
1772644026589061400,6.805061279296875,0.09755962599813937,-0.0008592837104573845,0.0022001860585529357
1772644026599102200,6.815102294921875,0.08813245696127414,0.013543737510219216,0.013372773990640416
1772644026609143300,6.825143310546875,0.10923311265707016,0.013517653220891952,-0.0004964782800525426
1772644026619184000,6.83518408203125,0.09412029919922352,0.0033115357007831333,0.004617330202879384
1772644026629224200,6.84522412109375,0.09606617256999016,0.002851516973599791,-0.009919765726244076
1772644026639265300,6.855265380859375,0.08993219985961913,0.0059788917465135455,-0.0023435217856895177
1772644026649306400,6.865306396484375,0.09980769718587398,0.0042324864706024526,0.01451315793110989
1772644026659347200,6.87534716796875,0.10938391930460929,-0.0009789645673707126,0.007456079026451334
1772644026669388300,6.88538818359375,0.09561609071493148,0.015512553365156053,0.005241343852737918
1772644026679428400,6.895428466796875,0.09471709604859352,0.0028381460353732106,-0.0015348996833898126
1772644026689469400,6.905469482421875,0.08289572535157202,0.01283653908893466,0.005411942046135663
1772644026699510300,6.91551025390625,0.0870844092130661,-0.002251139927655458,0.0047106253763660785
1772644026709551400,6.92555126953125,0.0993541081994772,0.0015093451170250772,0.006344272726494819
1772644026719592400,6.935592529296875,0.10144728108644485,0.0033467166120186445,0.012227266350481658
1772644026729632300,6.94563232421875,0.10279694212973117,0.009727467157691717,0.007063883104780688
1772644026739673300,6.95567333984375,0.09277122267782688,0.004204502485133707,0.013003374422667547
1772644026749714400,6.96571435546875,0.08678571852743625,0.003156527802161872,0.0017776589307002722
1772644026759755300,6.97575537109375,0.09665770872235298,0.0016084215773269532,0.007694856218388304
1772644026769796400,6.98579638671875,0.08408756548464298,-0.0006551759731024503,-0.002421564591117203
1772644026779836400,6.99583642578125,0.08857610907554626,-0.0015405439728870987,0.0034507341089192777
1772644026789877500,7.00587744140625,0.09710603701174259,0.001709251603297889,0.0023277579609770325
1772644026799918300,7.01591845703125,0.09680968441367149,0.004651880926452577,0.005809553928440437
1772644026809959400,7.02595947265625,0.1044429557710886,0.012088935592025517,0.004447544860234484
1772644026820000500,7.03600048828125,0.09561375262737273,0.00700377781484276,0.000580704231094569
1772644026830040300,7.046040283203125,0.08962766395509242,0.005090929930843413,-0.0018418741401750593
1772644026840081200,7.0560810546875,0.08828151004314422,0.003581292552873492,0.005919973766664042
1772644026850122200,7.066122314453125,0.09725859722495078,0.002568023857101798,-0.00008315737196244299
1772644026860163300,7.076163330078125,0.08633446762859821,0.008304119823686777,0.00796644883453846
1772644026870204200,7.0862041015625,0.09351239643394947,-0.003689136841520667,0.0071066628005821255
1772644026880244200,7.096244140625,0.08318564820885657,0.0025563699519261717,0.0009748363815248012
1772644026890285300,7.106285400390625,0.10368249279260634,-0.0025643340626731515,0.00020938670067116618
1772644026900326100,7.116326171875,0.09754618199467659,-0.005525485423207283,0.0030844306803308424
1772644026910367200,7.1263671875,0.08303016538619995,0.00005264350268989801,-0.003053816346358508
1772644026920408300,7.136408203125,0.08123509866297245,0.01635247478801757,-0.0026320655366405842
1772644026930448400,7.146448486328125,0.09126374072432518,0.011339688127301633,0.008713869668357074
1772644026940489200,7.1564892578125,0.09021452393233775,0.013762312164343893,0.0018675474375486373
1772644026950530300,7.1665302734375,0.09066051413416862,0.02119859964493662,0.002439109380962327
1772644026960571400,7.1765712890625,0.10083411762416362,0.0070081982616335145,0.0011694730376359075
1772644026970612200,7.1866123046875,0.10921382343471049,0.013004479534365235,0.0048910782434977585
1772644026980652300,7.19665234375,0.09365268168747425,0.010154460398107766,0.00795009135478176
1772644026990693400,7.206693359375,0.0909574512541294,-0.003255640795081854,-0.0019175605917349456
1772644027000734200,7.216734130859375,0.09813654910326003,-0.00170621939599514,0.001367762955557555
1772644027010775300,7.226775390625,0.0924473975509405,0.014671499431133269,0.0072502359897363925
1772644027020815400,7.2368154296875,0.0879600230038166,0.010717720304057002,0.000986061028437689
1772644027030857000,7.24685693359375,0.09215279851853847,-0.001931004595197737,-0.003977251334208995
1772644027040898000,7.25689794921875,0.10846388185024261,-0.003010470394976437,-0.0008065306099131703
1772644027050939100,7.266939208984375,0.09394903428554534,0.004902640817128122,0.00177102826051414
1772644027060980000,7.27697998046875,0.08153086673915386,0.015619922729767859,-0.0054034025466535235
1772644027071020000,7.28702001953125,0.10337795688807963,0.00635265696235001,-0.006457852636184543
1772644027081061000,7.29706103515625,0.08706511999070644,0.003440057451277971,0.0021858652722556143
1772644027091102200,7.307102294921875,0.0939466961979866,0.009473675059713423,-0.00020250943531282246
1772644027101143000,7.31714306640625,0.0949918213367462,0.0052057154169306155,0.004158416587393731
1772644027111184100,7.32718408203125,0.09454290852546691,0.004306574620120227,0.0057972333029843864
1772644027121224200,7.33722412109375,0.0949924058586359,0.002214168918132782,0.0015872235256712882
1772644027131265300,7.347265380859375,0.08885551053881645,0.014683774390816688,-0.000053036228334531186
1772644027141306000,7.35730615234375,0.09723521634936332,-0.0035598479060456154,0.004711127699865028
1772644027151347200,7.36734716796875,0.09513970537483692,0.005571516522020101,-0.004255876479344442
1772644027161388000,7.377387939453125,0.09783259772062301,-0.01040251687504351,-0.013268993955757468
1772644027171427800,7.387427734375,0.09483926112353801,0.00009403495900332928,-0.00233482702258043
1772644027181469000,7.397468994140625,0.08361585631966591,0.009225435919687152,0.0008407434067688882
1772644027191510000,7.407510009765625,0.09648469024300575,0.0030916093397885557,-0.003944691638322547
1772644027201550800,7.41755078125,0.09049743252694606,-0.005839154482260346,-0.008289881235780195
1772644027211592000,7.427592041015625,0.09842881004810333,-0.001978131672553718,-0.0003366572089958936
1772644027221632000,7.437632080078125,0.09588497078418731,-0.0006212006382644176,0.006981502050952985
1772644027231673000,7.447673095703125,0.0878033711373806,0.004330795745924115,0.008845588022936135
1772644027241714000,7.4577138671875,0.09857610956430435,0.011494659493304788,0.006405821054847911
1772644027251755000,7.467755126953125,0.09797989723682403,-0.004270699589140713,0.00413785785655491
1772644027261796000,7.477796142578125,0.09977496396005153,0.002906425498612225,0.0008822627272456883
1772644027271836200,7.487836181640625,0.09588263269662857,0.005331826014630496,0.0041010786432772875
1772644027281877000,7.497876953125,0.09049509443938732,-0.00006327449455857277,0.0017429620766546577
1772644027291918000,7.50791796875,0.0903477949231863,0.00601085778735578,-0.008127566813537851
1772644027301959000,7.517958984375,0.09498480707406998,0.0042658407509326935,0.0014226258147973566
1772644027312000000,7.528,0.09722644852101803,0.002873436544463038,0.007097520512901246
1772644027322040000,7.5380400390625,0.09273615136444568,0.007398585818707943,0.006505372439185157
1772644027332081200,7.5480810546875,0.096922497138381,0.004490918211080133,-0.001372347799129784
1772644027342122000,7.5581220703125,0.10111001195609569,0.006633665860816836,0.0060133968043141065
1772644027352163000,7.5681630859375,0.09976210447847843,0.0005334492895752191,-0.0051836953813675785
1772644027362203100,7.578203125,0.08120528804659843,0.00045994566194713113,0.009277111307997256
1772644027372244200,7.588244140625,0.09257657688856125,0.003376125369593501,-0.0003641754035837948
1772644027382285000,7.59828515625,0.09332418038547038,0.012082103992439806,-0.00653195905201137
1772644027392326100,7.608326171875,0.1014016883790493,0.014424977324157953,0.009014761444227769
1772644027402367200,7.6183671875,0.09930676192641258,0.010516790904477238,0.005447223422070965
1772644027412407000,7.628406982421875,0.09945581500828266,0.005754983330145478,0.011754269410716368
1772644027422448000,7.6384482421875,0.08688742533624172,0.009743760705366731,0.005636069658212364
1772644027432489200,7.6484892578125,0.11277531530857085,-0.0012097776485607027,-0.008097619199845939
1772644027442530000,7.658530029296875,0.09556231470108031,0.001930200877599418,-0.0028775007982272654
1772644027452571100,7.668571044921875,0.09421382270157337,0.01112100387532264,0.0025089688799344
1772644027462611000,7.67861083984375,0.10797931320369243,0.013371778476797044,0.007973819290241227
1772644027472652000,7.688652099609375,0.09376023371517658,-0.0015201953046023846,0.002804910486051813
1772644027482692900,7.69869287109375,0.10034195019304752,0.017692491220124066,0.007028300334746018
1772644027492734000,7.70873388671875,0.0888186856597662,0.014028452287241816,-0.0030890429233666507
1772644027502775000,7.718775146484375,0.09674889413714409,0.006557056960649788,0.0018620310122147202
1772644027512815000,7.728815185546875,0.09345628233253955,0.009422091002948581,-0.0036684045807458456
1772644027522856000,7.73885595703125,0.10019231258928775,0.0060781508699059485,0.0019582944609224796
1772644027532897000,7.74889697265625,0.09406184701025486,0.0023657062180340287,-0.00003327208193950355
1772644027542938000,7.758938232421875,0.08433657180964946,0.005777779683843255,0.0002608794258907437
1772644027552979000,7.76897900390625,0.0901736074000597,0.0075166227078065275,0.005979613265721127
1772644027563019000,7.77901904296875,0.10468845496475696,0.0013642010252922772,0.006898171149054542
1772644027573060000,7.78906005859375,0.09121814801692962,0.002029167740046978,0.009069633436622098
1772644027583101000,7.799100830078125,0.09301204569637775,0.012381086939014494,-0.0001615837698802352
1772644027593142000,7.80914208984375,0.10962240423560142,0.018206578222103417,0.0049365978856571015
1772644027603183000,7.81918310546875,0.09376140275895595,0.012499343023821712,0.016755365633638573
1772644027613223200,7.82922314453125,0.0898679024517536,-0.005364486175216734,0.0046329935628920795
1772644027623264000,7.839263916015625,0.0847790548801422,-0.004140899197012186,0.0013721012039575725
1772644027633305000,7.84930517578125,0.08911796086728573,-0.00039948417898267506,-0.0015885204336140305
1772644027643346200,7.85934619140625,0.08926467586159706,0.008041632962599396,-0.0013692790592089294
1772644027653386200,7.86938623046875,0.09450316103696822,0.0026511355632916093,0.003215610178792849
1772644027663427000,7.879427001953125,0.09016367052793502,0.018397570749558508,0.004183541895495728
1772644027673468200,7.88946826171875,0.09719780694842338,0.010746361876651645,-0.003935549350641668
1772644027683509000,7.899509033203125,0.0910620806723833,-0.0007488456059247255,-0.0012968714101240038
1772644027693550000,7.909550048828125,0.10288345136940479,0.006899805983714759,0.010967539479816333
1772644027703590100,7.919590087890625,0.10093757799863814,0.010194682810641825,0.008127247153129428
1772644027713631200,7.92963134765625,0.09210895937681197,0.005853256072849035,0.0018441026298794895
1772644027723672000,7.939672119140625,0.08836626571714877,0.0027473990119993687,0.008642302269488573
1772644027733713200,7.949713134765625,0.08462474110126494,0.011124437941424549,-0.00206354493368417
1772644027743754200,7.959754150390625,0.09584463877379894,0.0137225281432271,-0.0057180579863954336
1772644027753794000,7.9697939453125,0.08312485793232917,0.01238963557165116,-0.00289289016360417
1772644027763835100,7.979835205078125,0.0962906289756298,0.00826963303219527,0.003266436183732003
1772644027773876200,7.989876220703125,0.08042728941142559,0.010438136177696287,-0.0025941629453562196
1772644027783917300,7.999917236328125,0.09614099137187003,0.0030627851041033862,0.0006638798693660646
1772644027793958100,8.009958251953124,0.10332534991800785,-0.00041997897773981093,-0.005054114184947684
1772644027803998000,8.019998046875,0.1093137766778469,0.009632482350617647,0.0011320453703869133
1772644027814039000,8.0300390625,0.09285539382994175,0.0007467267140746116,0.0018907365168910472
1772644027824080000,8.040079833984375,0.09524901096820831,0.00584174829814583,-0.0004779745089821517
1772644027834121000,8.050120849609375,0.08701952728331089,-0.004204100626334548,0.010585316962888464
1772644027844162000,8.060162109375,0.07774024228453635,-0.0004366378515958786,-0.002656277529289946
1772644027854202000,8.0702021484375,0.08881284044086933,0.00988930665589869,0.003506364153139293
1772644027864243000,8.080242919921876,0.08821253646016121,0.003348798971250653,0.0042929114209488035
1772644027874284000,8.090283935546875,0.08626607856750487,0.0116270537013188,-0.0006810958656482398
1772644027884325000,8.1003251953125,0.09165069421529769,0.009448175292275846,0.008642850258760154
1772644027894365200,8.110365234375,0.08686287541687487,0.016182196255028248,0.008602847041934729
1772644027904406000,8.120406005859374,0.09075345311462879,0.017785722461529076,0.004930296009033918
1772644027914447000,8.130447021484375,0.08835983597636222,0.008353584988601505,0.0029902404577005653
1772644027924488200,8.14048828125,0.1001812066733837,0.00115271369908005,0.0024183314544148743
1772644027934529000,8.150529052734376,0.08357084813416003,0.007298011521063744,0.0022640359418466685
1772644027944569000,8.160569091796875,0.10990823543965816,0.005907397412881255,0.00542882924885489
1772644027954610200,8.170610107421876,0.1010790322959423,0.011008191150613128,-0.0018658486708067357
1772644027964651000,8.180651123046875,0.09419453347921371,0.00650616702362895,0.00469487068480812
1772644027974692000,8.190692138671874,0.08431669806540013,-0.007847681293077766,0.001199247121391818
1772644027984733200,8.200733154296875,0.08356617195904255,-0.0019615823965519665,-0.0008429627633187919
1772644027994773200,8.210773193359374,0.09359189141094684,0.011482019207440316,-0.007847142436960712
1772644028004814000,8.22081396484375,0.08730828109681606,-0.00009235445857048034,-0.015882601387100292
1772644028014855200,8.230855224609375,0.07473813785910606,0.009355163246579468,0.00029793263380415737
1772644028024896300,8.240896240234376,0.09209551537334919,0.013091427165456115,-0.000706257706368342
1772644028034936800,8.250936767578125,0.09314005599021911,0.013615560637414455,0.01084418709478341
1772644028044977000,8.260976806640626,0.0853589005947113,0.014521715696901083,0.008001876340946183
1772644028055018000,8.27101806640625,0.08939853137433529,0.0012049553429707884,0.011300707823783158
1772644028065059000,8.28105908203125,0.08865151239931583,0.008337218375690281,0.0031339963099453597
1772644028075100000,8.291099853515625,0.09717851772606373,0.017071071386151014,-0.007323867481527849
1772644028085139700,8.3011396484375,0.10002163219749927,0.013912059365957975,0.00004682568325661123
1772644028095180800,8.311180908203125,0.0928396117389202,0.006435184146650135,-0.003437125708675012
1772644028105221600,8.3212216796875,0.09209200824201107,0.01673822270259261,0.001528387744212523
1772644028115262700,8.3312626953125,0.09239011440575122,0.007941497056372463,0.004530519569106399
1772644028125303800,8.3413037109375,0.09927285965681075,0.01214720511790365,0.004084858160838484
1772644028135343900,8.35134375,0.0989747534930706,0.004620901266299188,0.0020043438260443506
1772644028145384700,8.361384765625,0.09463409394025803,0.004042553389072418,0.01026280701025389
1772644028155425800,8.37142578125,0.08056815918684006,0.008482399000041186,-0.002503507253527641
1772644028165467000,8.381466796875,0.0944827027708292,0.010747896246612071,0.0011791724477428942
1772644028175507700,8.3915078125,0.093733345708251,0.0028213410310447213,0.0045478451632428914
1772644028185547800,8.4015478515625,0.09388298331201075,0.009576441314443945,0.004216603914881125
1772644028195588900,8.4115888671875,0.08759703491032123,0.00945307066310197,0.009907372035551816
1772644028205630000,8.4216298828125,0.09074059363305569,0.006428316014446318,0.01649350896021351
1772644028215670800,8.4316708984375,0.10360825851261615,0.001990552762709558,0.007940638539846986
1772644028225710800,8.4417109375,0.09717208798527717,0.01579761738423258,0.01141133772456087
1772644028235752000,8.451751953125,0.08714753757715225,0.007076879583671689,-0.0005783844098448753
1772644028245792800,8.461792724609374,0.09148761260807514,0.01187825198341161,0.007433364871144294
1772644028255833900,8.471833740234375,0.10271160193383692,0.011819397935643792,0.000778957616398111
1772644028265875000,8.481875,0.09208674754500389,0.009384754667244852,0.00882854555658996
1772644028275915000,8.4919150390625,0.09956921225488186,0.002457878013513982,0.006041599985491484
1772644028285955800,8.501955810546875,0.0822130037844181,0.011672646408714354,-0.00455290493085049
1772644028295997000,8.511996826171876,0.09522913722395897,0.0015296207200735806,0.0034471904449630527
1772644028306038000,8.5220380859375,0.08819675436913967,0.001966514299996197,0.002979755596304312
1772644028316078800,8.532078857421874,0.09583119477033615,-0.0021521730652078984,0.004461408988805487
1772644028326119000,8.542118896484375,0.08715455183982848,0.00016691753212362526,0.013909913074644282
1772644028336160000,8.552159912109374,0.1033142440021038,0.010665076801367104,0.008106122166709974
1772644028346200800,8.562200927734375,0.0982248119086027,0.0006771320765838027,-0.007566708927229046
1772644028356242000,8.572241943359375,0.09583061024844645,0.0030737814221531152,0.013506866965396328
1772644028366283000,8.582282958984376,0.09358779975771904,0.005716587548516691,-0.0015936806659214197
1772644028376322800,8.59232275390625,0.09448562538027763,0.00004003974944353103,0.011096216493938117
1772644028386364000,8.602364013671876,0.09059154055118561,0.0026807269839569923,0.009933209729706868
1772644028396405000,8.612405029296875,0.09044482555687428,0.01095339222345501,0.005476513448636979
1772644028406446000,8.622446044921874,0.09059738577008247,0.008921813330613076,0.01814784290534444
1772644028416486000,8.63248583984375,0.08491174134910107,0.01116009377669543,0.0004618270917795598
1772644028426526700,8.642526611328124,0.08850187479555606,0.007484181742928922,0.0007346252843271941
1772644028436567800,8.65256787109375,0.09777589909732341,0.00037993922829627987,-0.004154489330947399
1772644028446609000,8.66260888671875,0.07981763308048248,0.002074395121261477,0.001393207924067974
1772644028456649700,8.672649658203126,0.08565349962711334,0.006739866181649267,0.0016621610585600137
1772644028466689800,8.682689697265625,0.10420973153710365,0.005074124926514923,-0.00017397746057249604
1772644028476731000,8.69273095703125,0.10495733503401279,0.0033025852093473075,0.008927293223328888
1772644028486771700,8.702771728515625,0.08131284007430076,0.007381707749143243,-0.0007692308068275451
1772644028496812800,8.712812744140624,0.08415537002384663,0.009352423300221561,-0.007192267857957631
1772644028506854000,8.72285400390625,0.09672434421777724,0.004748217440396547,0.004441215584147722
1772644028516894000,8.73289404296875,0.10285890145003795,0.010890884913876651,0.0047640360640361906
1772644028526934800,8.742934814453125,0.08669628667831421,0.006600969167612492,0.002047671511117369
1772644028536976000,8.752975830078125,0.08340309035181999,0.004694514491781592,0.008650741304270923
1772644028547017000,8.763016845703126,0.07487550050318241,0.007452727158740163,0.0004997388162184507
1772644028557057000,8.77305712890625,0.09043547320663929,0.0014048618292436003,0.011689277883106843
1772644028567097900,8.783097900390626,0.09746902510523796,0.010089505403116344,-0.006040714069502428
1772644028577139000,8.793138916015625,0.09642039283514023,0.007119988073036074,0.003266134789632633
1772644028587179800,8.8031796875,0.08834113127589226,0.005615355663746595,0.003359539560973644
1772644028597220900,8.813220947265625,0.0959726490676403,0.016696137126535178,0.006038649976579472
1772644028607261000,8.823260986328124,0.09312895007431507,0.014633688171394169,0.0028697193505708126
1772644028617302000,8.833302001953125,0.09716974989771843,-0.0052645329320803284,-0.0018230963744688777
1772644028627342800,8.8433427734375,0.08669745572209357,0.009169833274930716,-0.003932252281857654
1772644028637384000,8.853384033203126,0.09372925405502319,0.012787914174236357,-0.00418491186867468
1772644028647425000,8.863425048828125,0.09642039283514023,0.01137976440936327,0.005508424690552055
1772644028657465000,8.873465087890626,0.09372808501124381,0.007402604406699538,-0.009371447661099954
1772644028667506000,8.883505859375,0.0982125369489193,0.012725662592984735,-0.0047833435527049
1772644028677547000,8.893547119140624,0.0916290669053793,0.0002916033577173948,0.009517797329230233
1772644028687588000,8.903588134765625,0.08923837237656115,0.005044350842759013,-0.005615812321472913
1772644028697628000,8.9136279296875,0.11931260812282561,0.010138934035412966,0.0035439744834788144
1772644028707668700,8.923668701171875,0.09492167870998382,0.013466909414343534,0.018631562168523668
1772644028717709800,8.933709716796875,0.08519231185615062,0.021211970583163202,0.01921806595274247
1772644028727750700,8.943750732421876,0.07007832935452461,0.014689473479241133,0.005411019597528502
1772644028737791700,8.953791748046875,0.09820961433947085,0.010732406416535377,-0.0036888445805758237
1772644028747831800,8.963831787109376,0.09746201084256172,0.01322857061382383,0.007469961421331391
1772644028757873000,8.973872802734375,0.0778559776186943,-0.002690481192991137,0.006309091815259307
