time,seconds_elapsed,z,y,x
1772644019850424000,0.066424072265625,0.0006261743255890906,-0.00057834608014673,-0.000531104626134038
1772644019860465200,0.076465087890625,-0.0007241087150759995,0.000743273994885385,0.0010082207154482603
1772644019870506000,0.086506103515625,0.0014327854150906205,0.0002039838582277298,0.0007757267449051142
1772644019880547000,0.096547119140625,-0.0007373099215328693,0.0006391938077285886,0.00039206864312291145
1772644019890588200,0.106588134765625,-0.0015503729227930307,0.0002394533366896212,-0.00041193957440555096
1772644019900629000,0.11662890625,-0.0001867360551841557,-0.0007798955775797367,-0.0006530249956995249
1772644019910668800,0.126668701171875,-0.0004168332670815289,-0.0005593858659267426,-0.000042362138628959656
1772644019920710000,0.1367099609375,-0.00054167490452528,0.0002881705295294523,0.0010735794203355908
1772644019930750700,0.146750732421875,-0.0002945335581898689,-0.00031876389402896166,0.0003558574244379997
1772644019940791800,0.156791748046875,0.000795806001406163,0.000312918855343014,0.0009293732000514865
1772644019950833000,0.1668330078125,-0.00047212495701387525,0.0004394190036691725,0.0018625447992235422
1772644019960873000,0.176873046875,0.00022839318262413144,0.0011044525308534503,0.00026412191800773144
1772644019970913800,0.186913818359375,-0.0012656402541324496,0.0010898050386458635,0.0007160602835938334
1772644019980955000,0.196954833984375,-0.0013174983905628324,0.00023926643189042807,-0.000021682120859622955
1772644019990996000,0.206995849609375,-0.0007600986864417791,-0.0003146710805594921,0.00047819316387176514
1772644020001036800,0.217036865234375,-0.0006291962345130742,0.00007939804345369339,0.00025649135932326317
1772644020011076900,0.227076904296875,-0.0006726057617925107,0.000506835465785116,0.00021574483253061771
1772644020021118000,0.237117919921875,0.0009203726076520979,-0.00028171262238174677,-0.0010575070045888424
1772644020031159000,0.247158935546875,-0.0012692785821855068,-0.000020456500351428986,0.0007449204567819834
1772644020041199900,0.257199951171875,0.00037974322913214564,-0.0006467013154178858,0.0011999907437711954
1772644020051241000,0.267240966796875,-0.0001707321498543024,0.00006116693839430809,-0.00006128242239356041
1772644020061281800,0.27728173828125,0.00026326958322897553,-0.0009729485027492046,0.0010635291691869497
1772644020071321900,0.28732177734375,0.001136253820732236,0.000668624066747725,-0.0016587541904300451
1772644020081363000,0.297363037109375,0.0004085359687451273,0.00037612521555274725,-0.00020742998458445072
1772644020091404000,0.307404052734375,-0.000029021408408880234,-0.0009820869890972972,0.0005624897312372923
1772644020101444900,0.31744482421875,0.0008024972048588097,-0.00030032102949917316,0.00022458285093307495
1772644020111486000,0.32748583984375,-0.0003762178821489215,0.0017002455424517393,0.001815821509808302
1772644020121526000,0.337526123046875,-0.00021592265693470836,0.0013790051452815533,-0.0005446905270218849
1772644020131567000,0.347567138671875,0.00009486818453297019,-0.00013766507618129253,0.00028621568344533443
1772644020141608000,0.35760791015625,-0.0005769651615992188,-0.0007801506435498595,0.0008050561882555485
1772644020151649000,0.36764892578125,-0.0013178566005080938,-0.000007567577995359898,-0.0005978969857096672
1772644020161690000,0.377690185546875,-0.0007541603408753872,0.0004909756826236844,-0.00007595471106469631
1772644020171731000,0.38773095703125,0.00023227452766150236,0.0005021609831601381,-0.00023041805252432823
1772644020181771000,0.39777099609375,-0.0012550787068903446,-0.001779665588401258,0.0008480784017592669
1772644020191812000,0.40781201171875,0.0019228712189942598,-0.0007988233119249344,0.00018308707512915134
1772644020201853000,0.41785302734375,0.0005276404554024339,0.0004412414855323732,0.00041511678136885166
1772644020211894000,0.42789404296875,0.000819522887468338,0.0010007716482505202,0.0011757155880331993
1772644020221935000,0.43793505859375,0.000770017271861434,0.0006237848429009318,0.0001679344568401575
1772644020231975000,0.447974853515625,0.0003356556408107281,0.0008879704400897026,0.0005700718611478806
1772644020242015700,0.458015625,0.00010013725841417909,-0.001596579561010003,0.00003686663694679737
1772644020252056800,0.468056884765625,-0.0006588635733351111,0.001694022212177515,-0.00022012856788933277
1772644020262098000,0.478097900390625,0.00007130915764719248,-0.0002645427593961358,0.001570375170558691
1772644020272138800,0.488138671875,0.0018878512782976031,-0.00014576571993529797,0.0003847358748316765
1772644020282179800,0.498179931640625,0.0003784839063882828,0.0005898398230783641,-0.0007532923482358456
1772644020292220000,0.508219970703125,-0.0015834667719900608,-0.0008075208170339465,-0.0007429060060530901
1772644020302261000,0.518260986328125,-0.0005966590833850205,0.0003100571921095252,0.00012121209874749184
1772644020312301800,0.5283017578125,-0.0004366030334495008,-0.0008257810259237885,-0.0004425791557878256
1772644020322343000,0.538343017578125,-0.00059526227414608,-0.0005631782114505768,-0.0007107388228178024
1772644020332383700,0.5483837890625,-0.0011113829677924514,0.0003782492130994797,0.000352128641679883
1772644020342423800,0.558423828125,0.001247860724106431,-0.0008876353967934847,-0.00003473018296062946
1772644020352465000,0.56846484375,0.0017027286812663078,0.0001432741992175579,-0.0005039791576564312
1772644020362506000,0.578506103515625,-0.0002667413791641593,0.00012455217074602842,0.00032685138285160065
1772644020372546800,0.588546875,0.0014097185339778662,0.0017789078410714865,-0.000445998040959239
1772644020382588000,0.598587890625,0.0006989183020778,-0.0000035474076867103577,-0.001219121739268303
1772644020392629000,0.60862890625,0.00012926815543323755,0.0007301534060388803,-0.0009360278490930796
1772644020402669000,0.6186689453125,0.0008529762271791697,0.0001917669433169067,0.0018241960788145661
1772644020412710000,0.6287099609375,0.0016625772695988417,0.0008333224686793983,0.0014678651932626963
1772644020422751000,0.6387509765625,-0.0003489115624688566,0.0005052094929851592,0.00009565823711454868
1772644020432792000,0.6487919921875,0.0011741502676159143,0.00003809109330177307,0.00017049303278326988
1772644020442833000,0.6588330078125,-0.000053059717174619436,-0.0011617474956437945,-0.000376696465536952
1772644020452873000,0.668873046875,0.00012723630061373115,0.0009538676240481436,0.0006709911394864321
1772644020462914000,0.6789140625,-0.00017915008356794715,0.00014799891505390406,0.00002665771171450615
1772644020472955000,0.688954833984375,0.0010514967143535614,-0.00037557852920144796,-0.0018689804710447788
1772644020482996000,0.698995849609375,-0.0003203299711458385,-0.00013046676758676767,0.00046816677786409855
1772644020493037000,0.709037109375,-0.0008620169828645885,-0.0016985359834507108,-0.00034782569855451584
1772644020503077000,0.7190771484375,0.00029932730831205845,-0.0003805560991168022,0.0005206470377743244
1772644020513118000,0.729117919921875,-0.0007936339825391769,-0.0005038604140281677,-0.0005680532194674015
1772644020523159000,0.739158935546875,0.00002877140650525689,0.0003034814144484699,-0.00026525044813752174
1772644020533200100,0.7492001953125,-0.0015222535002976656,-0.00023234658874571323,-0.0002894853241741657
1772644020543241000,0.759240966796875,-0.0012732843169942498,0.0013505849055945873,-0.0005836596246808767
1772644020553282000,0.769281982421875,-0.0002516957465559244,-0.0012310834135860205,0.00014311703853309155
1772644020563321900,0.77932177734375,0.00020787731045857072,-0.000004932750016450882,-0.000043058767914772034
1772644020573363000,0.789363037109375,0.0007045568781904876,0.0008656545542180538,0.000109540531411767
1772644020583404000,0.799404052734375,0.0018098867731168866,-0.0001335684210062027,-0.00026508583687245846
1772644020593445000,0.809445068359375,-0.00009667017729952931,0.00006856548134237528,0.0006323994603008032
1772644020603486000,0.81948583984375,0.0016554916510358453,0.0004290349897928536,-0.000573005760088563
1772644020613525800,0.82952587890625,-0.000064910389482975,-0.00046525453217327595,0.0011958659160882235
1772644020623566800,0.83956689453125,-0.0005863934638909996,-0.00026508199516683817,-0.0005883991252630949
1772644020633608000,0.84960791015625,0.0004644898581318557,0.0007892635185271502,0.0005695434520021081
1772644020643648800,0.859648681640625,-0.0017726432997733355,-0.0001677303807809949,-0.0005117617547512054
1772644020653689900,0.86968994140625,-0.0016088590491563082,-0.0005661392351612449,-0.0006734156049787998
1772644020663731000,0.87973095703125,0.0007054840098135173,0.00030108983628451824,0.000813862425275147
1772644020673771000,0.88977099609375,-0.0010010695550590754,-0.0002366023836657405,-0.0013587444555014372
1772644020683811800,0.899811767578125,-0.0012394225923344493,-0.0015950808301568031,-0.0006016076076775789
1772644020693853000,0.90985302734375,0.0008314336300827563,-0.00038306228816509247,0.0006223371019586921
1772644020703894000,0.91989404296875,-0.00042701669735834,0.0001668089535087347,-0.0007924856618046761
1772644020713934800,0.929934814453125,-0.00007068569539114833,-0.0002145557664334774,-0.0003163125365972519
1772644020723975000,0.939974853515625,-0.0006071691168472171,-0.0009132426930591464,0.000528325792402029
1772644020734016000,0.95001611328125,-0.001594935660250485,0.0004984990227967501,-0.0004298796411603689
1772644020744056800,0.960056884765625,0.0006257620407268405,0.0005144465831108391,-0.0007183703128248453
1772644020754098000,0.970097900390625,0.0012721111997961998,-0.0010051530553027987,0.00027152663096785545
1772644020764139000,0.980138916015625,0.0015176765155047178,0.0003450645599514246,-0.0004944636020809412
1772644020774179800,0.990179931640625,-0.00017502857372164726,-0.001453634351491928,-0.0014012698084115982
1772644020784220000,1.000219970703125,-0.0011833531316369772,0.000676748575642705,0.00003483961336314678
1772644020794261000,1.010260986328125,-0.001325299497693777,0.0007057770271785557,-0.0001156290527433157
1772644020804302000,1.020302001953125,0.0002729315892793238,0.0005751294083893299,-0.001201404258608818
1772644020814343000,1.030343017578125,0.000918748090043664,0.0009034972172230482,0.00019568996503949165
1772644020824384000,1.040384033203125,-0.0009793771896511316,-0.0005070124752819538,0.000040620798245072365
1772644020834424000,1.050424072265625,-0.0009439573041163385,0.00013720616698265076,-0.0006054621189832687
1772644020844465000,1.06046484375,-0.00019753433298319578,0.00014256429858505726,-0.0008114760275930166
1772644020854506000,1.070506103515625,-0.0015142010524868965,0.0005657405708916485,0.0005776288453489542
1772644020864547000,1.080547119140625,-0.0009429851779714227,0.00023992621572688222,-0.0007242355495691299
1772644020874588000,1.090587890625,0.00016142771346494555,0.00006735336501151323,0.0014286637306213379
1772644020884629000,1.10062890625,-0.000139198440592736,-0.0007654847577214241,-0.0025713208597153425
1772644020894669000,1.1106689453125,0.0005127433687448502,-0.00022193347103893757,0.0015432628570124507
1772644020904710100,1.120710205078125,-0.00019073323346674442,-0.00007522536907345057,0.0006899868603795767
1772644020914751000,1.1307509765625,0.00011819344945251942,-0.00020119291730225086,-0.000044246669858694077
1772644020924792000,1.1407919921875,-0.00021248217672109604,-0.000013871234841644764,0.0009017393458634615
1772644020934833200,1.150833251953125,-0.0007826649816706777,0.00023273745318874717,-0.00045780441723763943
1772644020944873000,1.160873046875,0.0001416157465428114,0.0005318953772075474,-0.00029248278588056564
1772644020954913800,1.170913818359375,0.0005397583008743823,0.0004980732337571681,-0.0003579964395612478
1772644020964955000,1.180954833984375,0.00003606139216572046,0.0014585983008146286,-0.00041308230720460415
1772644020974996000,1.190995849609375,0.0005042451084591448,0.0007824216736480594,0.000868963310495019
1772644020985036800,1.201036865234375,0.000480969698401168,0.0006942842155694962,0.00036612898111343384
1772644020995078000,1.211077880859375,-0.0013001523911952972,0.00010252988431602716,-0.0006908797658979893
1772644021005118000,1.221117919921875,-0.000569148629438132,0.000488855002913624,-0.00011633126996457577
1772644021015158800,1.23115869140625,-0.00007060490315780044,0.0004923170781694353,-0.00012458697892725468
1772644021025199400,1.241199462890625,0.0005707520758733153,-0.0001575354253873229,0.0005785339744761586
1772644021035240400,1.251240478515625,-0.0010910604614764452,-0.0012483661994338036,0.00014896620996296406
1772644021045281500,1.261281494140625,-0.00009226234396919608,-0.00008858006913214922,0.0011495540384203196
1772644021055321300,1.2713212890625,-0.0001641676644794643,-0.0008390590082854033,-0.00010639266110956669
1772644021065362200,1.281362060546875,-0.0004186740843579173,-0.0004396013682708144,0.0002787252888083458
1772644021075403300,1.2914033203125,0.00044871747377328575,0.0017641643062233925,0.00028857914730906487
1772644021085444000,1.301444091796875,-0.0010803287150338292,-0.00043614068999886513,0.0011848299764096737
1772644021095485200,1.311485107421875,0.0015599291073158383,0.000670669018290937,-0.0015547636430710554
1772644021105526300,1.3215263671875,-0.0005547424661926925,-0.000031109899282455444,0.00003027939237654209
1772644021115566300,1.33156640625,0.00020585628226399422,-0.000017794198356568813,-0.00040195160545408726
1772644021125607200,1.341607177734375,0.00045920771663077176,0.00046592665603384376,-0.00015452946536242962
1772644021135648300,1.351648193359375,0.00034921918995678425,0.00014687998918816447,-0.001211804337799549
1772644021145689300,1.361689453125,-0.0011231706012040377,0.00013367179781198502,0.000403842655941844
1772644021155730200,1.371730224609375,0.0016049717087298632,0.0006186334067024291,0.0005897311493754387
1772644021165770200,1.381770263671875,-0.000030481372959911823,0.0010434234282001853,0.0004950173897668719
1772644021175811300,1.391811279296875,-0.0012765745632350445,-0.00028123287484049797,-0.001034436048939824
1772644021185852400,1.401852294921875,0.000933122995775193,-0.000351173453964293,-0.0015526758506894112
1772644021195893200,1.411893310546875,-0.00016170245362445712,0.00012340187095105648,-0.00018168031238019466
1772644021205934300,1.421934326171875,-0.0009217787301167846,0.0005893283523619175,0.0014361429493874311
1772644021215974400,1.431974365234375,-0.0011894264025613666,0.00010782876051962376,-0.0005359279457479715
1772644021226015200,1.44201513671875,-0.0003776779631152749,0.0006610114360228181,0.0003281442914158106
1772644021236056300,1.452056396484375,-0.000826953211799264,0.0002692604321055114,0.0016200435347855091
1772644021246097400,1.462097412109375,-0.0005206819041632116,0.0008418019278906286,-0.001295346999540925
1772644021256138200,1.47213818359375,0.0012167644454166293,0.000688403844833374,0.0007462323410436511
1772644021266179300,1.482179443359375,-0.00008403963875025511,0.0016282752621918917,-0.0014396582264453173
1772644021276219400,1.492219482421875,-0.0005498265381902456,0.0009369186009280384,-0.0007770638912916183
1772644021286260500,1.502260498046875,-0.00078749586828053,0.0007975320913828909,0.0006021171575412154
1772644021296301300,1.51230126953125,0.0010857715969905257,0.0007075172616168857,0.0007640373660251498
1772644021306342400,1.52234228515625,0.0001581612741574645,-0.0002501985291019082,-0.0008122667204588652
1772644021316383500,1.532383544921875,0.0005933218635618687,-0.00041904300451278687,-0.00006764708086848259
1772644021326423300,1.54242333984375,0.0011216780403628945,0.0001642736024223268,-0.0007199621759355068
1772644021336464400,1.55246435546875,-0.00023706676438450813,0.001990669406950474,0.00006806710734963417
1772644021346505500,1.56250537109375,-0.00041602214332669973,0.0008311669807881117,-0.0007905156817287207
1772644021356546300,1.57254638671875,0.0011259481543675065,0.0003083884948864579,-0.00044323946349322796
1772644021366587400,1.58258740234375,0.001402221736498177,-0.0007988018915057182,0.0001160444226115942
1772644021376628500,1.59262841796875,-0.0001448085531592369,0.0008507600286975503,0.00015892134979367256
1772644021386668300,1.602668212890625,-0.0005294316215440631,-0.0011417348869144917,0.0005186207126826048
1772644021396709000,1.612709228515625,0.0008695269352756441,0.0006617576582357287,0.0002608266659080982
1772644021406750500,1.62275048828125,-0.0010606913128867745,0.0009664086974225938,-0.0017446523997932673
1772644021416791600,1.63279150390625,0.0013830254320055246,-0.0007872828282415867,0.0008221021853387356
1772644021426832400,1.642832275390625,-0.00021801586262881756,-0.0005864602280780673,0.0011656893184408545
1772644021436872200,1.6528720703125,-0.00030510127544403076,0.0006463170284405351,-0.0007584444247186184
1772644021446913300,1.662913330078125,0.0018736924976110458,0.0004017365863546729,0.00034239329397678375
1772644021456954400,1.672954345703125,0.0004204055294394493,0.00015992159023880959,0.000607644091360271
1772644021466995200,1.6829951171875,0.001176611054688692,-0.00038649013731628656,-0.000025554560124874115
1772644021477036300,1.693036376953125,-0.0010947990231215954,-0.00023655418772250414,-0.0001965295523405075
1772644021487076400,1.703076416015625,0.0004128038417547941,0.0001722578308545053,-0.001266492996364832
1772644021497117200,1.7131171875,0.0000016117701306939125,0.0006670731818303466,-0.0001666075550019741
1772644021507158300,1.723158203125,-0.00024480000138282776,0.0002649191883392632,0.0002708975225687027
1772644021517199400,1.733199462890625,-0.000784090138040483,0.0007786429487168789,-0.000036431243643164635
1772644021527240200,1.743240234375,-0.0003753569908440113,-0.00040951045230031013,0.0013786772033199668
1772644021537281300,1.75328125,0.00003636768087744713,-0.00048141577281057835,0.0007698786212131381
1772644021547321300,1.7633212890625,0.0003537287702783942,0.0010605185525491834,0.0009416185785084963
1772644021557362400,1.773362548828125,-0.0007075408939272165,0.00022694910876452923,-0.0002291069831699133
1772644021567403300,1.7834033203125,0.0007415259024128318,-0.0006831224309280515,-0.0007995276246219873
1772644021577444400,1.7934443359375,-0.0005442482652142644,-0.00026101141702383757,-0.00026689539663493633
1772644021587485400,1.8034853515625,-0.00033896707464009523,-0.0010529691353440285,0.0004937872290611267
1772644021597525200,1.813525146484375,0.00038035272154957056,0.0011846187990158796,-0.00035549490712583065
1772644021607566300,1.82356640625,-0.0006233836757019162,-0.00026129279285669327,-0.00010175537317991257
1772644021617607400,1.833607421875,-0.0005117971450090408,-0.0006812732899561524,0.000399451470002532
1772644021627648300,1.843648193359375,-0.00019055744633078575,-0.001219840138219297,-0.0002530994825065136
1772644021637689300,1.853689453125,-0.00035380921326577663,0.000035840319469571114,0.00015542935580015182
1772644021647730400,1.86373046875,-0.00017412460874766111,-0.0008967365138232708,0.00018273037858307362
1772644021657770500,1.8737705078125,0.00008579989662393928,0.0008106160094030201,0.0017473374027758837
1772644021667811300,1.883811279296875,-0.000788304372690618,0.00005367398262023926,-0.0013083002995699644
1772644021677852400,1.893852294921875,-0.0008106748573482037,0.00018629938131198287,-0.000006014714017510414
1772644021687893500,1.9038935546875,0.00003129534889012575,-0.0004211406921967864,-0.00012237881310284138
1772644021697934300,1.913934326171875,0.001159410341642797,-0.00042646704241633415,-0.00041266344487667084
1772644021707974400,1.923974365234375,-0.0008556072134524584,0.0006953547126613557,0.0016382436733692884
1772644021718015500,1.934015380859375,-0.00007343688048422337,0.000048206537030637264,0.0004573981277644634
1772644021728056300,1.944056396484375,0.0003398309927433729,-0.00027966557536274195,-0.00020802742801606655
1772644021738097400,1.954097412109375,0.001250365749001503,0.00004550640005618334,-0.0006421227008104324
1772644021748138500,1.964138427734375,-0.0007409423124045134,-0.00022031296975910664,0.00025028293021023273
1772644021758179300,1.974179443359375,-0.000057042576372623444,-0.00024215085431933403,0.0007320486474782228
1772644021768219100,1.98421923828125,-0.00030630279798060656,-0.0012262576492503285,0.00015678256750106812
1772644021778260200,1.99426025390625,-0.0004304060712456703,0.0006158509058877826,0.00031364266760647297
1772644021788301300,2.00430126953125,0.0008222073083743453,0.00021648744586855173,0.00036003882996737957
1772644021798342100,2.014342041015625,-0.00012641068315133452,0.0007645660080015659,0.0009286236017942429
1772644021808383200,2.02438330078125,0.0010516804177314043,0.0005322886281646788,0.0006188681581988931
1772644021818423300,2.03442333984375,-0.0005992131773382425,0.00013281445717439055,-0.00032735313288867474
1772644021828464400,2.04446435546875,0.0006831190548837185,0.00016341899754479527,0.0015939346048980951
1772644021838505200,2.054505126953125,0.0009148140670731664,0.0005442510591819882,0.000558231258764863
1772644021848546300,2.06454638671875,0.00046775376540608704,-0.0012375088408589363,-0.00005631381645798683
1772644021858587400,2.07458740234375,-0.00016394804697483778,-0.0012617434840649366,-0.0006432745140045881
1772644021868627200,2.084627197265625,0.0006113571580499411,-0.0016406045760959387,-0.0008536339737474918
1772644021878668300,2.094668212890625,-0.002364192623645067,-0.00017852929886430502,0.0009866104228422046
1772644021888709400,2.10470947265625,0.0007876408635638654,-0.0000784766161814332,0.000504874624311924
1772644021898750200,2.114750244140625,0.0002747160033322871,0.00035695021506398916,-0.0010432209819555283
1772644021908791300,2.124791259765625,0.0008606630726717412,-0.0004298522835597396,-0.0006265586707741022
1772644021918832400,2.134832275390625,-0.0004088658606633544,0.0005829478614032269,0.0010919792111963034
1772644021928872400,2.14487255859375,0.00013008632231503725,-0.00036051892675459385,0.0010406310902908444
1772644021938913300,2.154913330078125,-0.0015005671884864569,-0.0008047341834753752,-0.00034501170739531517
1772644021948954400,2.164954345703125,0.0006561171030625701,-0.0007758240681141615,0.0003311529289931059
1772644021958995500,2.174995361328125,-0.00027865247102454305,0.00008917064405977726,-0.00004328764043748379
1772644021969036300,2.185036376953125,0.0005149695789441466,0.0003866457846015692,-0.0005213250406086445
1772644021979076400,2.195076416015625,0.0006046980852261186,-0.000553701538592577,0.00044939015060663223
1772644021989117400,2.205117431640625,0.0005799001082777977,0.00009845173917710781,0.00047067669220268726
1772644021999158300,2.215158203125,0.0009924237383529544,0.00024332775501534343,0.0010483163641765714
1772644022009199400,2.225199462890625,0.0011161314323544502,0.00047733919927850366,0.00020141690038144588
1772644022019240400,2.235240478515625,0.0005592644447460771,-0.00003824871964752674,0.00047598895616829395
1772644022029281000,2.245281005859375,-0.0010147277498617768,-0.0016140623483806849,0.0006161233177408576
1772644022039322000,2.255322021484375,0.000752013351302594,-0.0016303076408803463,0.0008174582617357373
1772644022049363200,2.26536328125,0.00046364159788936377,0.0002986139734275639,-0.0008978552650660276
1772644022059404000,2.275404052734375,-0.0002516834647394717,0.0003859656280837953,-0.00013512582518160343
1772644022069445000,2.285445068359375,-0.00019595917547121644,0.0001881022471934557,0.00046050851233303547
1772644022079486200,2.295486328125,0.0012501373421400785,-0.000492069055326283,-0.00021300511434674263
1772644022089526300,2.3055263671875,-0.00004002096829935908,-0.0006188364932313561,0.00014870660379529
1772644022099567000,2.315567138671875,-0.0011854465119540691,0.00008397165220230818,0.0005875955102965236
1772644022109608200,2.325608154296875,0.00017890625167638063,0.0013555578188970685,-0.0005912578199058771
1772644022119649300,2.335649169921875,0.00014188833301886916,0.00033050711499527097,0.00031980942003428936
1772644022129690000,2.345690185546875,-0.0006634664023295045,-0.00036375795025378466,-0.00006272783502936363
1772644022139730000,2.35572998046875,0.0013986192643642426,0.001000579446554184,-0.00022491440176963806
1772644022149771000,2.36577099609375,-0.00032992451451718807,-0.0012099617160856724,-0.0007875871378928423
1772644022159812000,2.37581201171875,-0.0006447101477533579,-0.00034390168730169535,-0.00019050645641982555
1772644022169853000,2.38585302734375,0.0010829524835571647,0.0006780006224289536,-0.00020469771698117256
1772644022179894000,2.39589404296875,0.0007127730641514063,-0.00016781932208687067,0.0012648345436900854
1772644022189934000,2.40593408203125,-0.00016274256631731987,0.000869396491907537,0.0004008566029369831
1772644022199975000,2.415974853515625,0.00004498398629948497,-0.0017921667313203216,-0.0001943598035722971
1772644022210016000,2.42601611328125,-0.0005063149146735668,-0.00040418142452836037,0.0006991015980020165
1772644022220057000,2.43605712890625,-0.0008970006601884961,0.00016733299707993865,-0.0003789460752159357
1772644022230098000,2.446097900390625,-0.0006333052297122777,-0.001643983181566,-0.00007924390956759453
1772644022240139000,2.456138916015625,-0.000014652847312390804,0.0008849547011777759,-0.0011192082893103361
1772644022250179000,2.466178955078125,0.00004147179424762726,0.00012238050112500787,-0.0007260921411216259
1772644022260220200,2.47622021484375,-0.0004421582561917603,-0.00044034537859261036,0.00031600287184119225
1772644022270261000,2.486260986328125,-0.0002073089126497507,0.00020270631648600101,-0.0006145720835775137
1772644022280302000,2.496302001953125,-0.0011817596387118101,-0.0004060922656208277,0.0003604111261665821
1772644022290343200,2.50634326171875,0.0009927882347255945,0.0003366231103427708,-0.00009250501170754433
1772644022300383000,2.516383056640625,0.0010242135031148791,0.00029827357502654195,0.0007154979975894094
1772644022310424000,2.526424072265625,-0.0013769047800451517,-0.00048427889123559,-0.002337028970941901
1772644022320465200,2.536465087890625,-0.0011707760859280825,0.0006169382249936461,-0.0014155751559883356
1772644022330506000,2.546506103515625,0.00003789277980104089,-0.0020892457105219364,0.000801541144028306
1772644022340547000,2.556547119140625,0.0018757402431219816,-0.0008005420677363873,0.0008755770977586508
1772644022350587100,2.566587158203125,0.0008785384707152843,-0.0002841183450073004,0.0004806285724043846
1772644022360628200,2.576628173828125,0.0003514988929964602,0.0009659695206210017,-0.00020699948072433472
1772644022370669000,2.5866689453125,-0.0008285064250230789,-0.0006485334597527981,0.0009478601859882474
1772644022380710100,2.596710205078125,0.000542755238711834,0.0004484226228669286,0.00037581322249025106
1772644022390751200,2.606751220703125,0.00016301008872687817,0.00035926204873248935,0.0004527106648311019
1772644022400792000,2.6167919921875,-0.001407722244039178,0.0012889716308563948,0.0003192862495779991
1772644022410832100,2.62683203125,-0.0015050306683406234,0.0014263378689065576,0.0009088871302083135
1772644022420873200,2.636873291015625,-0.00040035147685557604,-0.0002581115113571286,0.0015315342461690307
1772644022430914000,2.6469140625,-0.0015392196364700794,0.0007201522821560502,-0.00015606428496539593
1772644022440955100,2.656955078125,-0.0018766422290354967,0.000496446737088263,-0.0016349174547940493
1772644022450996200,2.666996337890625,-2.4709152057766914e-7,0.001024739583954215,0.0017444929108023643
1772644022461036000,2.6770361328125,0.000227985845413059,0.00003963633207604289,-0.0003929601516574621
1772644022471076900,2.687076904296875,0.0013086057733744383,0.00012829562183469534,-0.0005073382053524256
1772644022481118000,2.697117919921875,-0.000623517669737339,-0.00039128714706748724,-0.0006109352689236403
1772644022491159000,2.707158935546875,-0.0003057479625567794,-0.000613244716078043,0.00002157897688448429
1772644022501200000,2.717199951171875,-0.0003169331466779113,0.0002584079047665,0.0006016152910888195
1772644022511240000,2.727239990234375,0.0002757685142569244,-0.001021968200802803,-0.0009486321359872818
1772644022521281000,2.737281005859375,-0.00012530357344076037,-0.0004904012894257903,-0.0012418462429195642
1772644022531322000,2.747322021484375,0.000919917190913111,0.000057486118748784065,0.0003782520070672035
1772644022541363000,2.757363037109375,0.00045279873302206397,0.00017573049990460277,-0.0004222942516207695
1772644022551404000,2.767404052734375,0.0005637805443257093,-0.000703528756275773,0.0011203696485608816
1772644022561444000,2.777444091796875,0.0002093138755299151,-0.0007570583838969469,-0.0006730030290782452
1772644022571485000,2.78748486328125,0.0003600286436267197,-0.0006163864163681865,-0.00014524278230965137
1772644022581526000,2.797526123046875,-0.000006954942364245653,-0.0007325002225115895,0.0007154908962547779
1772644022591567000,2.807567138671875,-0.0006237344350665808,0.00004796090070158243,-0.0008087137248367071
1772644022601608000,2.81760791015625,0.00009931373642757535,-0.0001752119860611856,-0.0012726362328976393
1772644022611649000,2.82764892578125,-0.00028440647292882204,-0.0004696379182860255,0.0006090976530686021
1772644022621689000,2.837689208984375,-0.0018468830967321992,-0.0002826839918270707,-0.0013350099325180054
1772644022631730200,2.847730224609375,-0.00013405887875705957,-0.0007007751264609396,-0.0005423096008598804
1772644022641771000,2.85777099609375,-0.00032420852221548557,0.0001359900925308466,0.0005583749152719975
1772644022651812000,2.86781201171875,0.0004518823407124728,0.0008559940033592284,0.0006896922132000327
1772644022661853200,2.877853271484375,-0.0012323007686063647,0.0007236349047161639,-0.0007460180204361677
1772644022671893000,2.88789306640625,0.0013538701459765434,0.0009931700769811869,0.00022633629851043224
1772644022681934000,2.89793408203125,-0.0011103528086096048,-0.00037196627818048,0.00018132897093892097
1772644022691975200,2.90797509765625,0.0010596291394904256,-0.00008829624857753515,-0.0006815120577812195
1772644022702016000,2.91801611328125,-0.000014423741959035397,0.001173509517684579,-0.0007952291052788496
1772644022712057000,2.92805712890625,0.00030177406733855605,0.00016353907994925976,-0.00031694909557700157
1772644022722097200,2.93809716796875,0.00003332743654027581,-0.00008466752478852868,-0.0007731486111879349
1772644022732138200,2.94813818359375,0.00020266871433705091,0.0004937962512485683,-0.0005671922117471695
1772644022742179000,2.958178955078125,-0.00020159909036010504,0.0005670331884175539,0.0006701123202219605
1772644022752220200,2.96822021484375,0.0019706678576767445,0.000830476579722017,0.0005535687087103724
1772644022762261200,2.97826123046875,-0.0007444247603416443,0.0003457812708802521,-0.0009420625865459442
1772644022772302000,2.988302001953125,-0.001029771170578897,-0.0004855103907175362,0.0012053040554746985
1772644022782342000,2.998341796875,0.000710604595951736,0.0004489928251132369,0.0002550880890339613
1772644022792383000,3.008383056640625,-0.00031322427093982697,-0.0006509283557534218,-0.0007576779462397099
1772644022802424000,3.018424072265625,-0.000994993606582284,0.00023137690732255578,-0.000722790602594614
1772644022812465200,3.028465087890625,-0.00010615534847602248,0.0006144341314211488,0.000037031015381217
1772644022822506200,3.03850634765625,-0.0005130862700752914,0.0009164366056211293,0.0010618154192343354
1772644022832546000,3.048546142578125,-0.0002658548182807863,0.00031724252039566636,0.00004962296225130558
1772644022842587000,3.0585869140625,-0.0002927528112195432,-0.0012423045700415969,-0.0006188303232192993
1772644022852628000,3.0686279296875,0.00046021712478250265,-0.00017468747682869434,-0.001254101749509573
1772644022862669000,3.0786689453125,0.0007555616903118789,-0.0007880135672166944,-0.0000242539681494236
1772644022872710000,3.0887099609375,-0.00038197654066607356,-0.0004569459124468267,0.00008765305392444134
1772644022882750000,3.09875,-0.0006767884478904307,-0.0009741318062879145,0.00010522990487515926
1772644022892791000,3.108791015625,-0.0006605754024349153,-0.0003514395793899894,0.000302531523630023
1772644022902832000,3.11883203125,0.0006539609748870134,0.0011409958824515343,-0.000029031885787844658
1772644022912873000,3.128873046875,0.00019823951879516244,-0.0005055131623521447,-0.0005850647576153278
1772644022922914000,3.1389140625,0.0007572370814159513,-0.0006027185590937734,-0.00005269888788461685
1772644022932954000,3.1489541015625,0.0002447923761792481,-0.00029896904015913606,-0.0008817566558718681
1772644022942995000,3.158994873046875,-0.000671867688652128,-0.00032560067484155297,0.0004895048914477229
1772644022953036000,3.1690361328125,-0.0021931922528892756,0.0011359386844560504,0.00006793811917304993
1772644022963077000,3.1790771484375,0.0004912740550935268,-0.0011194923426955938,0.0011023097904399037
1772644022973118000,3.189117919921875,-0.0009775850921869278,-0.0005032771732658148,-0.0011720533948391676
1772644022983159000,3.199158935546875,0.00040219875518232584,-0.0010031524579972029,0.0010764533653855324
1772644022993199000,3.20919921875,-0.00010966008994728327,0.00014624808682128787,0.00009435811080038548
1772644023003240200,3.219240234375,0.0011987509205937386,-0.000692381348926574,-0.00037648878060281277
1772644023013281000,3.229281005859375,-0.0021326360292732716,0.0009556423756293952,-0.001116402680054307
1772644023023321900,3.23932177734375,-0.0019318334525451064,-0.0007945870747789741,-0.0006045431364327669
1772644023033363000,3.249363037109375,-0.0007708455668762326,-0.00019727781182155013,0.00010364898480474949
1772644023043403000,3.259403076171875,-0.00038229033816605806,0.0001489330898039043,-0.0019618989899754524
1772644023053443800,3.26944384765625,-0.00015707698184996843,0.0002598537830635905,0.0005437692161649466
1772644023063485000,3.27948486328125,-0.00016559904906898737,0.0001227009342983365,-0.0012147161178290844
1772644023073526000,3.289526123046875,-0.000254373240750283,-0.00048758811317384243,-0.000914513599127531
1772644023083566800,3.29956689453125,0.0000913050607778132,0.00039951078360900283,0.0004223932046443224
1772644023093606700,3.309606689453125,-0.000007578928489238024,-0.00005986023461446166,0.00003376975655555725
1772644023103647700,3.319647705078125,-0.0010403527412563562,-0.0002699837205000222,-0.000969709362834692
1772644023113688800,3.329688720703125,0.0009855590760707855,-0.000018333084881305695,-0.0007766808848828077
1772644023123729700,3.339729736328125,0.0012851647334173322,-0.00020448805298656225,0.00003371899947524071
1772644023133770800,3.349770751953125,-0.00024332973407581449,-0.00020371272694319487,-0.00015760120004415512
1772644023143810800,3.359810791015625,0.00018703704699873924,0.0012043004389852285,-0.0009504242334514856
1772644023153851600,3.3698515625,-0.0009618204785510898,-0.00019746838370338082,0.00033369543962180614
1772644023163892700,3.379892822265625,0.0009098490700125694,-0.0004395497380755842,-0.0015358433593064547
1772644023173933800,3.389933837890625,-0.0004661170532926917,0.0007475435850210488,-0.00026670261286199093
1772644023183974700,3.399974609375,-0.0002743694931268692,-0.0004655263037420809,0.0016100271604955196
1772644023194015700,3.410015625,-0.0016310177743434906,-0.000491684244479984,-0.000433826120570302
1772644023204055800,3.420055908203125,0.0009860704885795712,0.0006374960066750646,0.00024528009817004204
1772644023214097000,3.430096923828125,0.0008506381418555975,-0.00007898407056927681,-0.0007264248561114073
1772644023224137700,3.4401376953125,-0.00005243980558589101,0.00036523124435916543,-0.0000912609975785017
1772644023234178800,3.4501787109375,0.00015226646792143583,-0.0003456714912317693,0.00031459447927773
1772644023244220000,3.460219970703125,-0.0002890193136408925,-0.00016004923963919282,0.00031113228760659695
1772644023254259700,3.470259765625,-0.00026931194588541985,0.0005882990662939847,-0.0004404117353260517
1772644023264300800,3.48030078125,0.0007730475044809282,0.00010278949048370123,-0.0004544556140899658
1772644023274342000,3.490341796875,0.0014569780323654413,-0.00039097596891224384,-0.00038347672671079636
1772644023284382700,3.5003828125,-0.0006735507631674409,0.0005097051616758108,0.0009411794599145651
1772644023294423800,3.510423828125,0.001125783659517765,-0.000127719365991652,0.0006172019056975842
1772644023304464000,3.5204638671875,0.00013109296560287476,-0.00004382978659123182,-0.0009908147621899843
1772644023314505000,3.5305048828125,0.0003527436056174338,0.0001515255426056683,-0.00005271332338452339
1772644023324545800,3.5405458984375,-0.00010904856026172638,-0.00019148958381265402,-0.0002596410922706127
1772644023334587000,3.5505869140625,0.00005503377178683877,0.00012840324779972434,-0.0004504269454628229
1772644023344628000,3.5606279296875,0.0007559777586720884,-0.0007158187800087035,-0.0007359178271144629
1772644023354667800,3.570667724609375,-0.0006514862179756165,-0.00009205879177898169,-0.0013118546921759844
1772644023364708900,3.580708984375,0.0002164380275644362,-0.000652121496386826,0.00005940697155892849
1772644023374750000,3.59075,0.0006308610900305212,-0.0001285240869037807,0.0006774861831218004
1772644023384790800,3.600790771484375,0.0012958524748682976,-0.0006310626049526036,-0.000784322852268815
1772644023394832000,3.610831787109375,0.00004498683847486973,0.0007894240552559495,-0.00074971211142838
1772644023404873000,3.620873046875,0.0007917371112853289,0.001201415085233748,-0.0008088343311101198
1772644023414913000,3.6309130859375,-0.0010100211948156357,0.000023532542400062084,0.00022303825244307518
1772644023424953900,3.640953857421875,-0.0005905732978135347,0.0006626911927014589,0.0010084043024107814
1772644023434995000,3.650994873046875,-0.0005864258855581284,0.0011217505671083927,0.0014303014613687992
1772644023445036000,3.6610361328125,0.0002772372681647539,-0.00027108273934572935,-0.00008050980977714062
1772644023455076900,3.671076904296875,0.0005793849122710526,-0.0006064049666747451,0.0009292124304920435
1772644023465116700,3.68111669921875,0.0005631396197713912,0.0015731260646134615,0.0013356107519939542
1772644023475157800,3.69115771484375,0.0002916468074545264,0.0004715180257335305,0.0004845677176490426
1772644023485198800,3.70119873046875,0.000010150717571377754,-0.0010313037782907486,0.0012110780226066709
1772644023495239700,3.71123974609375,-0.00013855693396180868,0.0018966356292366982,-0.0004995767958462238
1772644023505280800,3.72128076171875,-0.0011140727438032627,-0.00007144035771489143,0.00006554578430950642
1772644023515320800,3.73132080078125,0.0002807874698191881,-0.0007705772295594215,0.0005156239494681358
1772644023525361700,3.741361572265625,-0.0007610410684719682,-0.00019746494945138693,-0.0005650867242366076
1772644023535402800,3.75140283203125,-0.00021393958013504744,-0.00003083725459873676,0.00039129937067627907
1772644023545443800,3.76144384765625,0.0002678263117559254,0.0016887658275663853,-0.0008409454021602869
1772644023555484700,3.771484619140625,-0.0014006481505930424,0.00031650607706978917,-0.00035266135819256306
1772644023565524700,3.781524658203125,-0.00023737933952361345,-0.00027524831239134073,0.0002771762665361166
1772644023575565800,3.79156591796875,-0.00042573001701384783,-0.000050045084208250046,0.0001506325788795948
1772644023585607000,3.80160693359375,0.00004405167419463396,-0.0010207672603428364,0.0008963175350800157
1772644023595647700,3.811647705078125,-0.0005316765746101737,-0.0007553041214123368,0.0005836976924911141
1772644023605688800,3.821688720703125,-0.0005146324401721358,0.0004377920413389802,-0.00011165370233356953
1772644023615729000,3.83172900390625,-0.000531780649907887,0.0004967907443642616,-0.00010161194950342178
1772644023625769700,3.841769775390625,0.001220845733769238,0.0010216997470706701,-0.0011301247868686914
1772644023635810800,3.851810791015625,-0.001166434260085225,-0.00042746937833726406,-0.00029627117328345776
1772644023645852000,3.861851806640625,-0.0003131573321297765,0.0004023715737275779,-0.0009455496910959482
1772644023655892700,3.871892822265625,0.0011659220326691866,0.00017855508485808969,-0.00011296547017991543
1772644023665933800,3.881933837890625,-0.00046339991968125105,0.0006669787690043449,0.0004974310286343098
1772644023675974000,3.891973876953125,0.001563351135700941,0.00008607027120888233,0.0008235527202486992
1772644023686015000,3.902014892578125,-0.0005996683612465858,0.0004996592178940773,0.00029012165032327175
1772644023696055800,3.912055908203125,-0.0006189078558236361,-0.0006204108940437436,0.00023136381059885025
1772644023706097000,3.922096923828125,0.0005078755202703178,0.000001969863660633564,0.0005693190032616258
1772644023716138000,3.932137939453125,-0.0004171357722952962,0.00042156450217589736,0.00023305416107177734
1772644023726178000,3.942177978515625,-0.00015321653336286545,0.0005427383002825081,-0.0017486040014773607
1772644023736219000,3.952218994140625,-0.0008626221679151058,-0.00008338328916579485,-0.0016233734786510468
1772644023746260000,3.962260009765625,-0.0015385325532406569,-0.00006846967153251171,0.0003383108414709568
1772644023756300800,3.97230078125,0.0015914151445031166,-0.00008771417196840048,-0.0009230116847902536
1772644023766342000,3.982341796875,0.0002459862153045833,0.0007344036130234599,-0.0004247340839356184
1772644023776381700,3.992381591796875,0.001621327130123973,0.0012973027769476175,-0.0005409498699009418
1772644023786422800,4.0024228515625,0.0015518185682594776,0.0011271268595010042,-0.0007060659117996693
1772644023796463600,4.012463623046875,0.0003413949743844569,0.0005387758137658238,0.0003703865222632885
1772644023806504700,4.022504638671875,-0.00014782766811549664,-0.0003192947478964925,-0.00010898243635892868
1772644023816545800,4.0325458984375,-0.00017362029757350683,0.00011441612150520086,-0.000695433933287859
1772644023826585900,4.0425859375,0.001173672848381102,-0.0012872056104242802,0.0014715802390128374
1772644023836626700,4.052626708984375,0.000025428482331335545,-0.001102290814742446,-0.0001758455764502287
1772644023846667800,4.062667724609375,0.0011074708309024572,-0.0005877681542187929,-0.0008040852844715118
1772644023856708900,4.072708984375,0.0008721446502022445,-0.0006211885483935475,-0.0012111649848520756
1772644023866749700,4.082749755859375,-0.0016549288993701339,0.001427314942702651,-0.0008460455574095249
1772644023876789800,4.092789794921875,0.00028462265618145466,-0.0008353083394467831,0.00044124736450612545
1772644023886830800,4.102830810546875,0.0004002038622274995,0.0012672573793679476,-0.0018104554619640112
1772644023896871700,4.11287158203125,-0.0007987207500264049,0.0002111784997396171,-0.0005547208711504936
1772644023906912800,4.122912841796875,-0.0008059112587943673,-0.0002279768232256174,-0.00007908046245574951
1772644023916953900,4.132953857421875,0.0012105583446100354,0.0006051703239791095,0.0005248126108199358
1772644023926994700,4.14299462890625,-0.0002083738800138235,0.0006709503941237926,0.00009125005453824997
1772644023937034800,4.15303466796875,0.0005581817822530866,0.0012919887667521834,0.00040137709584087133
1772644023947075800,4.163075927734375,-0.0004207962192595005,-0.00022175197955220938,0.0007475881138816476
1772644023957117000,4.173116943359375,0.0022199773229658604,-0.00012339139357209206,-0.0006357997190207243
1772644023967157800,4.18315771484375,0.0012617720058187842,-0.0003654727479442954,0.0008156232070177794
1772644023977198800,4.19319873046875,0.0003281105891801417,0.0002708609099499881,-0.0008481319528073072
1772644023987239000,4.203239013671875,0.0003637969493865967,-0.0002729565603658557,-0.0005000568926334381
1772644023997280000,4.213280029296875,-0.0009549851529300213,0.000892666052095592,0.00020404416136443615
1772644024007320800,4.22332080078125,-0.001126492628827691,0.000017551355995237827,-0.0007419106550514698
1772644024017362000,4.23336181640625,0.0009646174730733037,0.0005043082637712359,0.0008324270602315664
1772644024027402500,4.243402587890625,-0.0007635077927261591,-0.0010288734920322895,0.00006277346983551979
1772644024037442600,4.253442626953125,0.0008176850387826562,0.0004006758099421859,-0.00014084996655583382
1772644024047483400,4.2634833984375,-0.0001572981709614396,0.0003466136404313147,0.00009270943701267242
1772644024057524500,4.2735244140625,0.00020543026039376855,-0.000020904000848531723,0.0010783044854179025
1772644024067565600,4.283565673828125,0.0017671079840511084,-0.0007388921221718192,0.000186944380402565
1772644024077606400,4.2936064453125,-0.00034794327802956104,0.000585368019528687,0.0004511361476033926
1772644024087646200,4.303646240234375,-0.00037164543755352497,0.0006466206978075206,-0.00048336712643504143
1772644024097687600,4.3136875,-0.0001666615717113018,0.0012940914602950215,-0.0016356681007891893
1772644024107728400,4.323728271484375,0.00023414421593770385,0.0008085971930995584,-0.0010164831764996052
1772644024117769500,4.33376953125,0.00014062784612178802,0.00012699823128059506,0.00005179666914045811
1772644024127810600,4.343810546875,0.0012777976226061583,-0.0003893887624144554,-0.00007656775414943695
1772644024137850400,4.353850341796875,-0.00019615795463323593,0.0004296267870813608,-0.001056531211361289
1772644024147891200,4.36389111328125,0.0012515364214777946,0.0018059483263641596,-0.000396067276597023
1772644024157932300,4.373932373046875,0.0001929991994984448,0.0006890923832543194,-0.00003437092527747154
1772644024167973400,4.383973388671875,0.0013176521752029657,-0.0008725853404030204,-0.0009686078410595655
1772644024178014200,4.39401416015625,-0.00009231537114828825,0.00009426323231309652,0.0008625356713309884
1772644024188054300,4.40405419921875,-0.0001152184559032321,0.0007885493105277419,0.0005546743050217628
1772644024198095400,4.414095458984375,0.0005859333905391395,-0.00004351150710135698,-0.00103099481202662
1772644024208136400,4.424136474609375,-0.00029770343098789454,0.0006230776780284941,0.00013973074965178967
1772644024218177300,4.43417724609375,-0.0011360622011125088,0.0013993124011904001,-0.0005594091489911079
1772644024228218400,4.44421826171875,-0.0007373868720605969,0.00018491095397621393,0.0015687227714806795
1772644024238258400,4.454258544921875,0.00018856400856748223,-0.00048655865248292685,0.0008732693968340755
1772644024248299300,4.46429931640625,-0.0005960032576695085,0.00015366531442850828,-0.00015364564023911953
1772644024258340400,4.47434033203125,0.0005467961309477687,0.0002232829574495554,-0.0007975089829415083
1772644024268381400,4.48438134765625,-0.0004188660532236099,-0.000023325788788497448,-0.0005178770516067743
1772644024278422300,4.49442236328125,-0.00019515538588166237,-0.000017292448319494724,0.00041657593101263046
1772644024288462300,4.50446240234375,0.00015691458247601986,0.0009483697940595448,-0.00037491554394364357
1772644024298503400,4.51450341796875,0.000006164424121379852,0.00011528411414474249,-0.0011181114241480827
1772644024308544500,4.52454443359375,0.0006490515079349279,0.0006116973236203194,-0.0005335474852472544
1772644024318585300,4.53458544921875,-0.0008461733814328909,0.0012803341960534453,-0.00039783562533557415
1772644024328626400,4.54462646484375,0.0015501390444114804,0.00009043386671692133,0.00037155160680413246
1772644024338667500,4.55466748046875,-0.00157878827303648,-0.0006641597719863057,-0.0017329694237560034
1772644024348707300,4.564707275390625,-0.0011063436977565289,-0.0003211445873603225,-0.001203266903758049
1772644024358748400,4.57474853515625,-0.00007440277840942144,-0.00014656130224466324,0.00016537471674382687
1772644024368789500,4.58478955078125,0.00038046512054279447,-0.0006150114350020885,0.0016636691289022565
1772644024378830300,4.594830322265625,0.0006810550112277269,-0.0004852376878261566,0.00002518482506275177
1772644024388871400,4.604871337890625,0.0008261972106993198,-0.000578714651055634,0.00021666614338755608
1772644024398911500,4.614911376953125,-0.0005793666932731867,-0.0005767460679635406,0.00041281385347247124
1772644024408952600,4.62495263671875,0.0007697906694374979,0.00013644847786054015,0.0006317256484180689
1772644024418993400,4.634993408203125,0.0006688482826575637,0.000429551990237087,-0.0012299313675612211
1772644024429034500,4.645034423828125,-0.0012238603085279465,-0.0004990922752767801,0.0005525224842131138
1772644024439075600,4.65507568359375,0.0012162579223513603,-0.00022640754468739033,-0.00025888741947710514
1772644024449115400,4.665115478515625,0.00081358797615394,-0.0008759525371715426,-0.00017579668201506138
1772644024459156200,4.67515625,-0.0009069630177691579,0.0005293312133289874,-0.0003368412144482136
1772644024469197300,4.685197265625,0.001044601434841752,0.00034690467873588204,-0.0013565656263381243
1772644024479238100,4.695238037109375,-0.0014247255166992545,0.0005202608299441636,0.000019957544282078743
1772644024489279200,4.705279296875,-0.00029714300762861967,0.0006291840691119432,-0.00047991774044930935
1772644024499319300,4.7153193359375,0.0003628043341450393,-0.00008014880586415529,-0.00022246572189033031
1772644024509360400,4.7253603515625,-0.0005914062494412065,0.00008763029472902417,-0.0007905180100351572
1772644024519401200,4.735401123046875,-0.0007998289074748755,-0.0013395014684647322,-0.00020540994592010975
1772644024529442300,4.7454423828125,-0.000649626599624753,0.00018169614486396313,-0.0017987790051847696
1772644024539483400,4.7554833984375,0.0015077596763148904,-0.000620109960436821,0.00042769615538418293
1772644024549523500,4.7655234375,-0.00007176119834184647,0.0017373202135786414,0.0012578035239130259
1772644024559564300,4.775564208984375,-0.00043211050797253847,-0.0002637655124999583,0.0021882085129618645
1772644024569605400,4.78560546875,-0.0009474321268498898,0.0019519845955073833,0.0006044266046956182
1772644024579646500,4.795646484375,-0.00022060610353946686,-0.0010009552352130413,-0.0010933438315987587
1772644024589687300,4.805687255859375,-0.0001809250097721815,-0.0006523474585264921,-0.0013743073213845491
1772644024599727400,4.815727294921875,0.0005323173827491701,-0.0003256244817748666,0.0005238995654508471
1772644024609768400,4.8257685546875,0.000008739880286157131,-0.000004713539965450764,0.0003372121136635542
1772644024619809300,4.835809326171875,0.0011159509886056185,-0.0008616790291853249,-0.000517688225954771
1772644024629850400,4.845850341796875,-0.0009535914286971092,0.000004380941390991211,-0.0012380732223391533
1772644024639891500,4.855891357421875,-0.000005249981768429279,0.0007758278516121209,-0.0005483897402882576
1772644024649931500,4.865931640625,-0.0013054051669314504,-0.00003110995749011636,0.0015674915630370378
1772644024659972400,4.875972412109375,0.0003381872666068375,-0.0007159124943427742,0.000862137065269053
1772644024670013400,4.886013427734375,-0.0007481160573661327,-0.00039366999408230186,-0.0004364203196018934
1772644024680054500,4.896054443359375,-0.001260640798136592,-0.000449980900157243,-0.0006710735615342855
1772644024690095400,4.906095458984375,0.00031781481811776757,0.00044244434684515,0.0003403949085623026
1772644024700136400,4.916136474609375,-0.001850938773714006,-0.0002959247212857008,0.0006904627662152052
1772644024710176500,4.926176513671875,0.0023464695550501347,0.0006010279757902026,-0.00017905933782458305
1772644024720217300,4.93621728515625,-0.001238448778167367,-0.00036318186903372407,0.0005937910173088312
1772644024730258400,4.946258544921875,0.0007376167923212051,-0.0008492087363265455,-0.0005825271364301443
1772644024740299500,4.956299560546875,-0.0008688740199431777,-0.0006229268037714064,0.001232462702319026
1772644024750340400,4.96634033203125,0.0006075823912397027,0.00017522257985547185,-0.0012610550038516521
1772644024760380200,4.976380126953125,-0.0008008104050531983,-0.00018547236686572433,-0.0004894579760730267
1772644024770421200,4.986421142578125,-0.00001517788041383028,-0.0006864129682071507,0.0017936700023710728
1772644024780462300,4.99646240234375,0.0010383380576968193,0.00045391643652692437,-0.0005372702144086361
1772644024790503200,5.006503173828125,0.0006308744195848703,0.0008414064068347216,0.0000025525223463773727
1772644024800544300,5.016544189453125,0.0005746657843701541,-0.0007303375750780106,0.0002693410497158766
1772644024810584300,5.026584228515625,-0.00015903508756309748,0.0018406781600788236,0.0005463098641484976
1772644024820625400,5.03662548828125,0.0003580538323149085,-0.0008328803232870996,0.00043194391764700413
1772644024830666200,5.046666259765625,-0.0012720669619739056,-0.00032767857192084193,-0.0013529066927731037
1772644024840707300,5.056707275390625,0.00042406731517985463,-0.0011596621479839087,0.0006248143035918474
1772644024850748400,5.06674853515625,0.0004746674094349146,0.00022944278316572309,-0.000839657848700881
1772644024860788200,5.076788330078125,0.000634517171420157,-0.001180513994768262,-0.000777646666392684
1772644024870829300,5.086829345703125,0.0008411784656345844,0.0002136507537215948,-0.00011931336484849453
1772644024880870400,5.096870361328125,0.00003223970998078585,-0.0022089832928031683,-0.0009306978899985552
1772644024890911200,5.1069111328125,0.0000799102708697319,-0.0008209437946788967,-0.00009579700417816639
1772644024900952300,5.116952392578125,0.0011968878097832203,0.0004081051447428763,-0.0003701376263052225
1772644024910992400,5.126992431640625,-0.0013104783138260245,-0.0004763306933455169,0.0010876767337322235
1772644024921033500,5.137033447265625,0.0008907093433663249,-0.00033475173404440284,-0.0006200105417519808
1772644024931074300,5.14707421875,0.00042146036867052317,-0.00002342823427170515,-0.00040962081402540207
1772644024941115400,5.157115478515625,0.0001956577762030065,-0.00009840552229434252,-0.00002203928306698799
1772644024951156500,5.167156494140625,0.0024859763216227293,-0.000021706509869545698,0.0016395067796111107
1772644024961196500,5.177196533203125,-0.0005305085796862841,0.000004557543434202671,0.0006916093407198787
1772644024971237400,5.1872373046875,0.0005992043879814446,-0.0004985136329196393,-0.00009642005898058414
1772644024981278500,5.197278564453125,-0.0007031136192381382,-0.0004234680673107505,0.0008508361643180251
1772644024991319300,5.2073193359375,-0.00012574030552059412,-0.0020080488175153732,-0.0011369471903890371
1772644025001360400,5.2173603515625,-0.0011721400078386068,0.0008766474202275276,-0.00012124399654567242
1772644025011400400,5.227400390625,-0.00040781288407742977,-0.000252532830927521,0.0007903559599071741
1772644025021441500,5.237441650390625,-0.00039458798710256815,-0.0006690352456644177,-0.0016398252919316292
1772644025031483000,5.24748291015625,0.000394240312743932,-0.00099127774592489,-0.001431299839168787
1772644025041524000,5.25752392578125,-0.000358084449544549,-0.000449268554802984,-0.000014087418094277382
1772644025051565000,5.26756494140625,0.000501583912409842,0.000541693705599755,0.0024490703362971544
1772644025061606000,5.27760595703125,-0.0011760393390432,-0.000644107349216938,0.00039496528916060925
1772644025071646000,5.28764599609375,-0.00013154756743460894,0.000215827370993793,0.00027405773289501667
1772644025081687000,5.29768701171875,0.0007088907295837998,0.001191221410408616,0.0011443417752161622
1772644025091728000,5.307727783203125,-0.00021575880236923695,-0.00010387389920651913,0.0006327485898509622
1772644025101769000,5.31776904296875,0.0004344256594777107,-0.00041865097591653466,-0.00009945360943675041
1772644025113064000,5.32906396484375,0.0009265778353437781,-0.0003161193453706801,-0.00045525189489126205
1772644025123104800,5.339104736328125,0.00018461054423823953,-0.00025359814753755927,0.000454070745036006
1772644025133145900,5.349145751953125,-0.0006987600354477763,-0.0009095346904359758,-0.0008351656142622232
1772644025143186700,5.359186767578125,-0.0004551842575892806,-0.000028242706321179867,0.0007491683354601264
1772644025153227800,5.369227783203125,-0.00015051860827952623,-0.0001158607192337513,0.0006564903305843472
1772644025163268900,5.379268798828125,0.00009569909889250994,-0.0012713095638900995,-0.00007519708015024662
1772644025173309000,5.389308837890625,0.001580677693709731,-0.0004071136354468763,-0.0008895918726921082
1772644025183349800,5.399349853515625,0.00010327139170840383,0.00035734480479732156,-0.000277569517493248
1772644025193390800,5.409390869140625,0.0002947526518255472,-0.00027142756152898073,0.00043296185322105885
1772644025203432000,5.419431884765625,-0.00034340203274041414,-0.00022837857250124216,0.0013536103069782257
1772644025213472800,5.42947265625,0.0004888357943855226,-0.00037325453013181686,0.00024440372362732887
1772644025223512800,5.439512939453125,-0.0007752915844321251,0.00029506615828722715,0.00047396658919751644
1772644025233554000,5.449553955078125,0.00009050214430317283,-0.0004913652664981782,-0.0017484412528574467
1772644025243595000,5.459594970703125,-0.00021089357323944569,0.0003381430287845433,0.00019556749612092972
1772644025253635800,5.4696357421875,0.0000016266712918877602,-0.0002110007917508483,-0.0001783403567969799
1772644025263677000,5.479677001953125,0.001454125507734716,0.000192997045814991,-0.001205579610541463
1772644025273717000,5.489717041015625,0.00036302837543189526,-0.0011513667413964868,-0.0009432581719011068
1772644025283757800,5.4997578125,-0.0010447165695950389,-0.00035468884743750095,-0.00047636195085942745
1772644025293799000,5.509798828125,0.0008503888384439051,-0.0008170136716216803,0.0000898260623216629
1772644025303840000,5.519840087890625,0.0000028812792152166367,-0.0005403539398685098,0.0013218490639701486
1772644025313880800,5.529880859375,0.000012202304787933826,0.00099948572460562,-0.00004834728315472603
1772644025323921000,5.5399208984375,0.000003952649421989918,-0.0007231266354210675,0.0002550478093326092
1772644025333962000,5.5499619140625,-0.0014155121752992272,0.000991682754829526,0.0003988584503531456
1772644025344003000,5.560003173828125,-0.00022671825718134642,0.0005401789676398039,0.0005829517031088471
1772644025354044000,5.5700439453125,-0.0015116935828700662,0.00031514186412096024,-0.00027352082543075085
1772644025364085000,5.5800849609375,-0.00038526696152985096,0.0007901735370978713,0.0012691458687186241
1772644025374124800,5.590124755859375,-0.00004251813516020775,-0.000865247449837625,-0.0016147913411259651
1772644025384166000,5.600165771484375,-0.0016024647047743201,0.0004140394157730043,0.0006409217603504658
1772644025394206700,5.610206787109375,0.00007293000817298889,0.00019805709598585963,0.0002379855141043663
1772644025404247800,5.620247802734375,0.000466136378236115,0.00013069057604297996,0.0008148960769176483
1772644025414288600,5.63028857421875,-0.0013314972165971994,-0.0009263180545531213,0.0004007744137197733
1772644025424328700,5.64032861328125,-0.0005944101139903069,0.0009730383171699941,0.001215358846820891
1772644025434369800,5.650369873046875,0.0007195936050266027,0.0010838258313015103,0.0013913937145844102
1772644025444411000,5.660410888671875,0.0011411034502089024,0.00019408256048336625,-0.0003098873421549797
1772644025454451700,5.67045166015625,0.0001245749299414456,0.00015812990022823215,-0.001185801113024354
1772644025464492800,5.680492919921875,0.00012099993182346225,-0.0008182929595932364,0.000950921792536974
1772644025474534000,5.690533935546875,0.000008614500984549522,-0.00011335429735481739,0.0003493137191981077
1772644025484574000,5.700573974609375,0.0004517943598330021,-0.00008252973202615976,0.00040652300231158733
1772644025494614800,5.71061474609375,0.0006422103615477681,-0.0002929194597527385,0.0006733717164024711
1772644025504656000,5.72065576171875,0.0005190549418330193,0.00007281318539753556,0.00007124221883714199
1772644025514697000,5.730697021484375,0.00022450933465734124,0.0016653835773468018,0.0012446310138329864
1772644025524737800,5.74073779296875,0.0009584254585206509,0.000016224454157054424,-0.00022652302868664265
1772644025534777900,5.75077783203125,0.0012945163762196898,-0.001770223956555128,-0.0015533098485320807
1772644025544819000,5.76081884765625,-0.0018477659905329347,0.0003300075768493116,0.0006638241466134787
1772644025554859800,5.77085986328125,-0.00021418288815766573,0.00022587802959606051,0.00013705086894333363
1772644025564900900,5.78090087890625,0.000574340287130326,0.00008305441588163376,-0.0003542611375451088
1772644025574942000,5.79094189453125,0.0009802060667425394,-0.0004032388096675277,0.000051604583859443665
1772644025584982000,5.80098193359375,0.000282249937299639,-0.0004161274991929531,0.0008107961621135473
1772644025595022800,5.81102294921875,0.0013658901443704963,0.00033035653177648783,0.00044114934280514717
1772644025605064000,5.82106396484375,-0.0017196214757859707,0.0009096451685763896,0.0008250654209405184
1772644025615105000,5.83110498046875,-0.00021280499640852213,0.0007213596836663783,0.0002668667584657669
1772644025625145900,5.841145751953125,-0.0010171841131523252,-0.000219666282646358,0.00004227878525853157
1772644025635186000,5.85118603515625,0.0005506187444552779,0.00041070394217967987,0.0007469512056559324
1772644025645227000,5.86122705078125,-0.0010726706823334098,0.000012504053302109241,0.00018108799122273922
1772644025655267800,5.871267822265625,0.00003973167622461915,0.0012442159932106733,-0.00005646608769893646
1772644025665309000,5.881308837890625,-0.000611801166087389,-0.0004185889847576618,-0.0004092718008905649
1772644025675350000,5.89135009765625,0.0001181713305413723,-0.0008803810924291611,0.0021082141902297735
1772644025685389800,5.901389892578125,-0.0000013400567695498466,-0.0007170668104663491,-0.0006562655325978994
1772644025695430700,5.9114306640625,-0.0004783122567459941,-0.0006741898832842708,0.0006577380700036883
1772644025705471700,5.9214716796875,0.0011660903692245483,-0.0014759135665372014,-0.0010021142661571503
1772644025715512800,5.931512939453125,0.0001841829507611692,-0.001027703401632607,0.0001694103702902794
1772644025725553700,5.9415537109375,0.0006269948207773268,-0.00024057156406342983,0.000997963361442089
1772644025735593700,5.95159375,-0.0010193714406341314,-0.001957245171070099,-0.0005304247606545687
1772644025745634800,5.961634765625,0.0005512690404430032,-0.00009013881208375096,0.00001977919600903988
1772644025755676000,5.971676025390625,0.00020852021407335997,-0.000872841861564666,-0.00006996933370828629
1772644025765716700,5.981716796875,0.0010349472286179662,0.00034318730467930436,-0.0017029896844178438
1772644025775757800,5.9917578125,0.0006224235985428095,0.0005631644162349403,0.0012824139557778835
1772644025785798000,6.0017978515625,-0.0004522656090557575,0.0003364112926647067,-0.00022672628983855247
1772644025795838700,6.011838623046875,0.00023536256048828363,0.0007113844039849937,-0.00041314749978482723
1772644025805879800,6.0218798828125,-0.0006731101311743259,0.0013056122697889805,0.00047736335545778275
1772644025815921000,6.0319208984375,0.00013515923637896776,0.0005862925318069756,-0.00013569649308919907
1772644025825961700,6.041961669921875,-0.0002022632397711277,0.0010808415245264769,-0.00043423683382570744
1772644025836001800,6.052001708984375,0.00202944315969944,0.0013532470911741257,-0.0004928258713334799
1772644025846043000,6.06204296875,0.0003200002829544246,0.00009208125993609428,0.0003977955784648657
1772644025856084000,6.072083984375,-0.00010850239777937531,-0.0004714435781352222,-0.0003255191259086132
1772644025866124800,6.082124755859375,0.00022398325381800532,0.00019001774489879608,0.00019553699530661106
1772644025876166000,6.092165771484375,0.00039868662133812904,0.0008877659565769136,0.0009904906619340181
1772644025886206000,6.1022060546875,0.0011516839731484652,-0.0004692786606028676,-0.0005941728595644236
1772644025896246800,6.112246826171875,-0.000018242804799228907,-0.0005790009163320065,0.0009414057713001966
1772644025906287900,6.122287841796875,-0.000250674900598824,0.0004659318074118346,0.00021451176144182682
1772644025916329000,6.132328857421875,0.0004974070470780134,-0.0006243663956411183,0.00020279386080801487
1772644025926369800,6.142369873046875,0.0009387474856339395,0.0005264614592306316,0.0001680385321378708
1772644025936409900,6.152409912109375,-0.0013843278866261244,-0.0007241589482873678,0.0012000133283436298
1772644025946451000,6.162450927734375,0.0004956185584887862,-0.0015334377530962229,-0.0007551684975624084
1772644025956492000,6.172491943359375,-0.0007803019252605736,-0.0001288866624236107,-0.0009698194917291403
1772644025966532900,6.182532958984375,-0.00017834105528891087,0.0002894977806136012,0.0020691328682005405
1772644025976574000,6.192573974609375,0.0009031686349771917,0.000604549772106111,0.0009852262446656823
1772644025986613800,6.20261376953125,0.00012313539627939463,-0.0006741176475770772,0.0011247261427342892
1772644025996654800,6.21265478515625,0.00037853256799280643,0.0008382915402762592,0.0009263206738978624
1772644026006695700,6.22269580078125,-0.00044038554187864065,0.0005680202739313245,-0.0008207715582102537
1772644026016736800,6.23273681640625,0.0009670950239524245,0.000003430119249969721,0.001117476960644126
1772644026026777300,6.24277734375,0.0008515179506503046,-0.0001461133360862732,-0.0010215048678219318
1772644026036817400,6.2528173828125,0.0014408754650503397,0.0001902438816614449,0.0011364546371623874
1772644026046858200,6.262858154296875,0.00039275927701964974,-0.0009012718801386654,-0.0006577209569513798
1772644026056899300,6.2728994140625,0.0005687942029908299,-0.0005412124446593225,0.0007281879661604762
1772644026066940400,6.2829404296875,0.000015737779904156923,-0.0003093155100941658,0.0009375765221193433
1772644026076981200,6.292981201171875,-0.00037654582411050797,-0.0008416814962401986,0.00045953900553286076
1772644026087021300,6.303021240234375,0.0012767110019922256,-0.00046150293201208115,0.0004580831155180931
1772644026097062400,6.3130625,-0.0007467588293366134,-0.0006063788896426558,0.0011968440376222134
1772644026107103200,6.323103271484375,0.001100516994483769,-0.00027522799791768193,-0.0008812197484076023
1772644026117144300,6.333144287109375,-0.000514690182171762,0.0006265182746574283,0.0004394417628645897
1772644026127185400,6.343185302734375,-0.00023174966918304563,-0.0008844910771586001,0.00038897874765098095
1772644026137225500,6.3532255859375,0.00005187693750485778,-0.0012264407705515623,0.0013226830633357167
1772644026147266300,6.363266357421875,0.001451094402000308,0.000615066266618669,-0.00010248366743326187
1772644026157307400,6.373307373046875,0.00001618324313312769,-0.0010078641353175044,0.0008394764736294746
1772644026167348500,6.383348388671875,-0.0012075696140527725,0.00019085488747805357,0.0009225866524502635
1772644026177389300,6.393389404296875,-0.00122967385686934,-0.001498122001066804,0.0006613305304199457
1772644026187429400,6.403429443359375,0.0006645136745646596,-0.0006216376204974949,-0.00019387784413993359
1772644026197470500,6.413470458984375,-0.0009299209341406822,-0.0007563935942016542,-0.00023861881345510483
1772644026207511600,6.423511474609375,0.0002038810052908957,-0.0009665535180829465,0.00006901868619024754
1772644026217552400,6.433552490234375,-0.00036363862454891205,-0.00044963398249819875,-0.00019543315283954144
1772644026227593500,6.443593505859375,-0.001331391860730946,0.0006464538746513426,-0.00018593785353004932
1772644026237633300,6.45363330078125,0.000504058669321239,-0.0004552958416752517,0.0005789221031591296
1772644026247674000,6.463674072265625,-0.0008867369033396244,-0.00020144571317359805,0.0005800997605547309
1772644026257715200,6.473715087890625,0.0016270207706838846,-0.000701321114320308,0.0008450841996818781
1772644026267756300,6.48375634765625,0.0007644863799214363,-0.00006309669697657228,0.00094666110817343
1772644026277797000,6.493797119140625,-0.0002541727153584361,-0.0013523329980671406,0.00011255918070673943
1772644026287837200,6.503837158203125,-0.0007088086567819118,-0.00031918776221573353,0.00011185114271938801
1772644026297878300,6.513878173828125,0.0004978696233592927,0.0003825551248155534,0.0008042730623856187
1772644026307919400,6.52391943359375,-0.0003342367708683014,-0.0007868049433454871,0.0013071709545329213
1772644026317960200,6.533960205078125,-0.00017790915444493294,-0.0003322033444419503,-0.0011511929333209991
1772644026328001300,6.544001220703125,-0.0009086973732337356,0.0011323043145239353,0.0007814329583197832
1772644026338041300,6.554041259765625,0.0015675098402425647,-0.0007747852941974998,-0.0005898287054151297
1772644026348082400,6.56408251953125,-0.0004053256707265973,-0.00024277187185361981,-0.000682672718539834
1772644026358123300,6.574123291015625,-0.000003987341187894344,0.0009284863481298089,-0.0001641551498323679
1772644026368164400,6.584164306640625,0.0004715516115538776,0.0004622700216714293,0.0009169999975711107
1772644026378205200,6.594205078125,0.00009711115853860974,-0.00006823171861469746,0.0007356386631727219
1772644026388245200,6.604245361328125,-0.0010711841750890017,-0.0006044447654858232,0.0004282495938241482
1772644026398286300,6.614286376953125,-0.0005284318467602134,0.00003950751852244139,0.0010397114092484117
1772644026408327400,6.624327392578125,0.00012876972323283553,-0.0005561144789680839,-0.000303016509860754
1772644026418368300,6.6343681640625,0.0001327645150013268,-0.0008751611458137631,0.0006120456382632256
1772644026428408300,6.644408203125,-0.000988343614153564,-0.0007580023375339806,-0.0005717789754271507
1772644026438449400,6.654449462890625,0.00031980121275410056,-0.0008195213158614933,0.0005555370589718223
1772644026448490500,6.664490478515625,-0.0007093248423188925,0.0005400168593041599,-0.0018545088823884726
1772644026458531300,6.67453125,-0.000704797450453043,-0.0004139274242334068,0.000991611392237246
1772644026468572400,6.684572509765625,0.0012323565315455198,-0.0004549335571937263,-0.0003163614310324192
1772644026478612500,6.694612548828125,-0.0005295907612890005,-0.0010946248658001423,-0.0003115676809102297
1772644026488653300,6.7046533203125,-0.0004392516566440463,0.0008121448336169124,0.0003820850979536772
1772644026498694400,6.7146943359375,0.00090963946422562,-0.0002118405536748469,0.0005970023339614272
1772644026508735500,6.724735595703125,0.0011473436607047915,-0.0009478045394644141,-0.0007848695386201143
1772644026518776300,6.7347763671875,-0.00011792418081313372,0.00005114718805998564,0.00018638535402715206
1772644026528816000,6.744816162109375,-0.00015450792852789164,0.00008582562441006303,0.00016484339721500874
1772644026538857200,6.754857177734375,0.0007733374368399382,-0.0007956806221045554,-0.000316656194627285
1772644026548898300,6.764898193359375,-0.0008577771950513124,-0.0018811295740306377,-0.00027622259221971035
1772644026558939100,6.774939208984375,0.0007057646289467812,-0.0002680527977645397,0.0003576099406927824
1772644026568980200,6.784980224609375,0.000766545592341572,0.000432367785833776,-0.0006760098040103912
1772644026579020300,6.795020263671875,-0.00005823536776006222,-0.0003511342220008373,-0.00012313760817050934
1772644026589061400,6.805061279296875,0.0006078463629819453,-0.0006652373122051358,0.0003251167945563793
1772644026599102200,6.815102294921875,-0.0018137659644708037,0.0015931231901049614,-0.001494621392339468
1772644026609143300,6.825143310546875,-0.001032241270877421,0.0001108552678488195,-0.00034368783235549927
1772644026619184000,6.83518408203125,-0.0007273094961419702,0.0011702607152983546,0.00043102563358843327
1772644026629224200,6.84522412109375,0.0007597464136779308,0.0022561175283044577,0.0010321009904146194
1772644026639265300,6.855265380859375,-0.0005129781784489751,-0.000042456784285604954,-0.00040467455983161926
1772644026649306400,6.865306396484375,0.00022845371859148145,0.0007332364330068231,0.00039067910984158516
1772644026659347200,6.87534716796875,-0.0011193722020834684,-0.00022736575920134783,0.0008918860694393516
1772644026669388300,6.88538818359375,-0.0009646692778915167,-0.0003582669887691736,-0.0008773882873356342
1772644026679428400,6.895428466796875,0.0001810226822271943,-0.0006429589120671153,0.0001212970819324255
1772644026689469400,6.905469482421875,-0.0001693499507382512,-0.0006817557150498033,0.00015041092410683632
1772644026699510300,6.91551025390625,-0.0009421993745490909,0.0006205299869179726,-0.0008613239042460918
1772644026709551400,6.92555126953125,0.00018222606740891933,0.00047661358257755637,-0.0004308135248720646
1772644026719592400,6.935592529296875,0.0008283089846372604,-0.0011037063086405396,0.000615009805187583
1772644026729632300,6.94563232421875,-0.0008053206838667393,0.0011092240456491709,-0.0009194482117891312
1772644026739673300,6.95567333984375,0.000326256500557065,0.00038990419125184417,0.00037564709782600403
1772644026749714400,6.96571435546875,-0.0005977100227028131,-0.0005082926945760846,0.0011324795195832849
1772644026759755300,6.97575537109375,0.0001801992766559124,0.0004198189126327634,0.0006706874119117856
1772644026769796400,6.98579638671875,-0.0005959807895123959,-0.0012350061442703009,0.0008439810480922461
1772644026779836400,6.99583642578125,0.0008338704355992377,-0.00020889006555080414,-0.0002692202106118202
1772644026789877500,7.00587744140625,-0.00046226056292653084,-0.0002537058899179101,-0.00008090934716165066
1772644026799918300,7.01591845703125,0.00015585916116833687,-0.00007687194738537073,-0.00005587562918663025
1772644026809959400,7.02595947265625,0.000701317738275975,0.000009835232049226761,-0.0011856525670737028
1772644026820000500,7.03600048828125,0.0008520526462234557,-0.0009723386028781533,0.0013262409484013915
1772644026830040300,7.046040283203125,0.0002851306926459074,0.0001566493301652372,-0.0004949532449245453
1772644026840081200,7.0560810546875,-0.00033858162350952625,0.00073029421037063,0.0005894859787076712
1772644026850122200,7.066122314453125,-0.00014024972915649414,0.000562789966352284,0.0003655881155282259
1772644026860163300,7.076163330078125,-0.0008667601505294442,0.000780103902798146,0.00048037036322057247
1772644026870204200,7.0862041015625,0.0013696602545678616,-0.00012685440015047789,0.0009348841849714518
1772644026880244200,7.096244140625,0.001531846821308136,0.000658511882647872,0.002091761212795973
1772644026890285300,7.106285400390625,-0.0014774242881685495,-0.000836749910376966,0.000721024232916534
1772644026900326100,7.116326171875,-0.001458249520510435,-0.00005564477760344744,0.00010636658407747746
1772644026910367200,7.1263671875,0.00004766922211274505,0.0000978336320258677,-0.00033774320036172867
1772644026920408300,7.136408203125,-0.0005973483785055578,-0.0001418509054929018,-0.00063894665800035
1772644026930448400,7.146448486328125,-0.0005064475699327886,-0.0008120282436721027,-0.00021834415383636951
1772644026940489200,7.1564892578125,0.00038704293547198176,-0.00010762218153104186,0.0004810020327568054
1772644026950530300,7.1665302734375,-0.0006876675761304796,-0.0015110046369954944,0.00014103599824011326
1772644026960571400,7.1765712890625,0.0006622887449339032,-0.00011124706361442804,-0.0013114521279931068
1772644026970612200,7.1866123046875,-0.0016727822367101908,-0.000394002185203135,0.00036177458241581917
1772644026980652300,7.19665234375,-0.00009272870374843478,0.0002462217235006392,-0.0009354511275887489
1772644026990693400,7.206693359375,0.00038967112777754664,-0.0009536721045151353,0.0005000866949558258
1772644027000734200,7.216734130859375,-0.0007682712748646736,-0.0008729783585295081,0.0007456302409991622
1772644027010775300,7.226775390625,0.0014625678304582834,0.0002399136428721249,0.0001944107934832573
1772644027020815400,7.2368154296875,0.0012907938798889518,0.0008306027157232165,-0.0011859056539833546
1772644027030857000,7.24685693359375,0.00029666710179299116,-0.00024397869128733873,-0.0013541702646762133
1772644027040898000,7.25689794921875,0.0010508743580430746,0.00006841012509539723,-0.0005973000079393387
1772644027050939100,7.266939208984375,-0.0008252863772213459,-0.0006881165900267661,-0.0005413556937128305
1772644027060980000,7.27697998046875,0.0007688818732276559,-0.0001283201272599399,-0.0012295166961848736
1772644027071020000,7.28702001953125,0.0006685517728328705,-0.00027068902272731066,0.0015022199368104339
1772644027081061000,7.29706103515625,-0.00029870832804590464,0.0002872432814911008,0.0003802301362156868
1772644027091102200,7.307102294921875,0.00041602877900004387,0.00027452316135168076,0.00013764924369752407
1772644027101143000,7.31714306640625,0.0002996486146003008,-0.0018853005021810532,0.0006673519965261221
1772644027111184100,7.32718408203125,0.0003581272321753204,0.0008317629108205438,-0.000022978289052844048
1772644027121224200,7.33722412109375,0.0005261726910248399,-0.001726736081764102,0.00009286915883421898
1772644027131265300,7.347265380859375,-0.0006810235790908337,0.00010831147665157914,0.0013512078439816833
1772644027141306000,7.35730615234375,-0.001214188290759921,0.00031124433735385537,-0.00041793007403612137
1772644027151347200,7.36734716796875,-0.0014111613854765892,-0.0007810363313183188,0.001054095453582704
1772644027161388000,7.377387939453125,0.0005377399502322078,0.0010597406653687358,0.0005947002209722996
1772644027171427800,7.387427734375,0.0006591419223695993,-0.00048329151468351483,-0.00006957375444471836
1772644027181469000,7.397468994140625,-0.0004671089118346572,0.00037184948450885713,-0.0005433498881757259
1772644027191510000,7.407510009765625,-0.0005126993637531996,0.0001539005315862596,-0.00002368609420955181
1772644027201550800,7.41755078125,-0.0003901940071955323,0.0009001182625070214,-0.00006816093809902668
1772644027211592000,7.427592041015625,-0.0007084890967234969,0.00013768725330010056,-0.0015732210595160723
1772644027221632000,7.437632080078125,-0.0012760086683556437,-0.0004415502189658582,0.001319504575803876
1772644027231673000,7.447673095703125,-0.0009400714188814163,-0.0002347482950426638,-0.0006281859241425991
1772644027241714000,7.4577138671875,-0.0007933311862871051,-0.0005857529467903078,-0.0007312502712011337
1772644027251755000,7.467755126953125,0.0011060145916417241,0.0004371531249489635,-0.0009897456038743258
1772644027261796000,7.477796142578125,0.0005832360475324094,0.0004169130988884717,0.0010148156434297562
1772644027271836200,7.487836181640625,0.0011389937717467546,-0.0006824276060797274,0.0010561493691056967
1772644027281877000,7.497876953125,0.0013613677583634853,0.00037271674955263734,0.00019568204879760742
1772644027291918000,7.50791796875,0.00087642582366243,-0.00019312481163069606,-0.0001876445021480322
1772644027301959000,7.517958984375,0.000022882712073624134,-0.0011918102391064167,0.00038759829476475716
1772644027312000000,7.528,0.0005324416561052203,0.001086653210222721,0.0010127727873623371
1772644027322040000,7.5380400390625,-0.00030352454632520676,-0.0006148403626866639,0.00010969489812850952
1772644027332081200,7.5480810546875,-0.0005236909491941333,-0.0008907897281460464,0.0006710360758006573
1772644027342122000,7.5581220703125,0.00020441727247089148,-0.0009272749884985387,0.0012135219294577837
1772644027352163000,7.5681630859375,-0.0005753518780693412,0.0003386245225556195,0.000475272536277771
1772644027362203100,7.578203125,0.001272615627385676,0.0005825700936838984,0.00013039307668805122
1772644027372244200,7.588244140625,-0.000024646404199302197,0.0002674493589438498,0.0008896081708371639
1772644027382285000,7.59828515625,0.0009982737246900797,-0.0008217834983952343,0.0008818849455565214
1772644027392326100,7.608326171875,-0.00005752767901867628,-0.00019331404473632574,0.0002396365161985159
1772644027402367200,7.6183671875,0.00018588523380458355,0.0007963165990076959,0.0003629408311098814
1772644027412407000,7.628406982421875,-0.0007331044180318713,-0.0006666654953733087,0.00026525347493588924
1772644027422448000,7.6384482421875,0.0014091422781348228,-0.0010451007401570678,-0.0017462321557104588
1772644027432489200,7.6484892578125,0.00040191831067204475,0.0009772377088665962,0.001910593593493104
1772644027442530000,7.658530029296875,0.0007348134531639516,0.00001743441680446267,0.00048819929361343384
1772644027452571100,7.668571044921875,0.002134184818714857,0.00030712372972629964,0.0005326704122126102
1772644027462611000,7.67861083984375,-0.001615546178072691,-0.0012063507456332445,0.000441856449469924
1772644027472652000,7.688652099609375,0.0001395891304127872,-0.0007708906196057796,0.00022991024889051914
1772644027482692900,7.69869287109375,-0.0007826634682714939,-0.0002688848180696368,0.0019372629467397928
1772644027492734000,7.70873388671875,0.0010670935735106468,-0.00041401502676308155,0.000024242326617240906
1772644027502775000,7.718775146484375,0.00001754180993884802,-0.00023984431754797697,0.0010295856045559049
1772644027512815000,7.728815185546875,-0.0017535253427922726,0.00020907149882987142,0.0005784123204648495
1772644027522856000,7.73885595703125,-0.0002688129898160696,0.0013252022909000516,-0.001390994992107153
1772644027532897000,7.74889697265625,-0.00012319139204919338,-0.00040281593101099133,-0.00003926083445549011
1772644027542938000,7.758938232421875,0.0008001265814527869,-0.0005841771489940584,-0.000850459560751915
1772644027552979000,7.76897900390625,0.00084688700735569,-0.00007683370495215058,0.0005209655500948429
1772644027563019000,7.77901904296875,0.0018508987268432975,-0.00027736969059333205,0.0005449340678751469
1772644027573060000,7.78906005859375,-0.0004600272513926029,-0.0012532963883131742,0.0008141613798215985
1772644027583101000,7.799100830078125,-0.000865094130858779,-0.00009082647738978267,-0.0013619076926261187
1772644027593142000,7.80914208984375,-0.00015620538033545017,0.0004929817514494061,0.0010067424736917019
1772644027603183000,7.81918310546875,0.0015215860912576318,0.0007129588630050421,-0.00043003284372389317
1772644027613223200,7.82922314453125,0.0004861811175942421,-0.0007204501889646053,0.0016737948171794415
1772644027623264000,7.839263916015625,0.0005706032970920205,0.00005772552685812116,0.0005022701807320118
1772644027633305000,7.84930517578125,-0.00015244598034769297,-0.0002309975097887218,0.001342947711236775
1772644027643346200,7.85934619140625,0.00033065141178667545,-0.0003369913320057094,0.00004172720946371555
1772644027653386200,7.86938623046875,0.00009160902118310332,0.0001962049282155931,0.0008734005969017744
1772644027663427000,7.879427001953125,0.000727305538021028,0.0006675844779238105,-0.000749263446778059
1772644027673468200,7.88946826171875,-0.0006377066019922495,0.0005861601093783975,0.0005051158368587494
1772644027683509000,7.899509033203125,0.0004611136391758919,0.0004647199821192771,0.00011975644156336784
1772644027693550000,7.909550048828125,0.0016639730893075466,-0.0001377608859911561,0.0002372839953750372
1772644027703590100,7.919590087890625,-0.00010915950406342745,0.00139169255271554,-0.0003664547111839056
1772644027713631200,7.92963134765625,0.001409050659276545,-0.0006147779640741646,0.000553955789655447
1772644027723672000,7.939672119140625,0.0004881296190433204,-0.0008302276837639511,-0.00046417047269642353
1772644027733713200,7.949713134765625,0.00005037285154685378,-0.0006431717192754149,0.0007180977845564485
1772644027743754200,7.959754150390625,-0.0009493777761235833,-0.00010308262426406145,0.0007495230529457331
1772644027753794000,7.9697939453125,-0.000703300058376044,-0.0005929219769313931,0.00002006557770073414
1772644027763835100,7.979835205078125,0.000007497670594602823,0.00029604125302284956,0.0008895876817405224
1772644027773876200,7.989876220703125,-0.0012076632119715214,-0.00084844691446051,0.0007248928304761648
1772644027783917300,7.999917236328125,0.000058669771533459425,0.0015659749042242765,-0.00034276838414371014
1772644027793958100,8.009958251953124,-0.00012652447912842035,-0.000555734965018928,-0.0005994979292154312
1772644027803998000,8.019998046875,-0.0005305259255692363,-0.0008305731462314725,-0.0009361214470118284
1772644027814039000,8.0300390625,0.000601775711402297,-0.0010816168505698442,-0.0005001684185117483
1772644027824080000,8.040079833984375,0.0012049817014485598,0.0003032268723472953,0.0004271441139280796
1772644027834121000,8.050120849609375,-0.000031341041903942823,0.00017621897859498858,-0.0002044537104666233
1772644027844162000,8.060162109375,0.0004485606332309544,-0.00047678814735263586,-0.0002768915146589279
1772644027854202000,8.0702021484375,-0.0006436289986595511,-0.0002140301512554288,-0.0002818251959979534
1772644027864243000,8.080242919921876,0.0003049889928661287,0.0002189998049288988,0.0002385564148426056
1772644027874284000,8.090283935546875,-0.0002072314964607358,0.00018796836957335472,0.0005274645518511534
1772644027884325000,8.1003251953125,-0.000040783954318612814,-0.0007270937203429639,0.0010252094361931086
1772644027894365200,8.110365234375,-0.00032535084756091237,0.0003455186088103801,-0.00017023039981722832
1772644027904406000,8.120406005859374,0.0008674790151417255,-0.000655829964671284,-0.0010165830608457327
1772644027914447000,8.130447021484375,0.0013348227366805077,0.0003178655169904232,-0.000022600172087550163
1772644027924488200,8.14048828125,0.0011103182332590222,-0.001095740357413888,-0.00016934052109718323
1772644027934529000,8.150529052734376,-0.0009907863568514585,-0.00010711047798395157,-0.00041375146247446537
1772644027944569000,8.160569091796875,-0.0002115454408340156,-0.00029832543805241585,-0.0006073631811887026
1772644027954610200,8.170610107421876,-0.0004884169902652502,-0.0010704209562391043,-0.00020397244952619076
1772644027964651000,8.180651123046875,-0.00033635052386671305,-0.0008941197884269059,-0.0002063692081719637
1772644027974692000,8.190692138671874,-0.001944836461916566,-0.0007268493645824492,-0.00028040865436196327
1772644027984733200,8.200733154296875,-0.00033522193552926183,-0.00033829425228759646,0.0001627414021641016
1772644027994773200,8.210773193359374,0.00004792079562321305,-0.001845268765464425,-0.001366517273709178
1772644028004814000,8.22081396484375,-0.000338770158123225,-0.0008034401689656079,-0.00014732219278812408
1772644028014855200,8.230855224609375,-0.00003883859608322382,0.00014688825467601418,0.0005189597140997648
1772644028024896300,8.240896240234376,0.0004732872766908258,0.0007732637459412217,0.00030723842792212963
1772644028034936800,8.250936767578125,-0.0008823233074508607,0.0007102889940142632,0.0005755848251283169
1772644028044977000,8.260976806640626,-0.00046473968541249633,0.00030655378941446543,-0.00024147285148501396
1772644028055018000,8.27101806640625,-0.001538215670734644,0.00028546410612761974,-0.0007543382234871387
1772644028065059000,8.28105908203125,-0.0005853365291841328,-0.0011997809633612633,0.0004384918138384819
1772644028075100000,8.291099853515625,0.0008916305378079414,-0.00009021797450259328,-0.00004094047471880913
1772644028085139700,8.3011396484375,0.0002450150204822421,0.00019873498240485787,0.00033776112832129
1772644028095180800,8.311180908203125,0.0001442133798263967,0.0010597670916467905,-0.00039574457332491875
1772644028105221600,8.3212216796875,0.001335445325821638,-0.0006507812649942935,0.0006175881717354059
1772644028115262700,8.3312626953125,-0.0005862309481017292,0.0013893689028918743,0.0009389891056343913
1772644028125303800,8.3413037109375,0.0003464079927653074,0.0004396855947561562,0.00014217128045856953
1772644028135343900,8.35134375,0.0008155671530403197,-0.0012556975707411766,0.00003340700641274452
1772644028145384700,8.361384765625,0.0012523256009444594,-0.0016080336645245552,0.00037296023219823837
1772644028155425800,8.37142578125,0.0007423633360303938,-0.0011267701629549265,0.00020663999021053314
1772644028165467000,8.381466796875,-0.00031810736982151866,-0.0020050806924700737,0.00088734389282763
1772644028175507700,8.3915078125,-0.00037381553556770086,0.00024851743364706635,-0.00015619746409356594
1772644028185547800,8.4015478515625,-0.0001937858760356903,0.0000842004083096981,0.0008052035700529814
1772644028195588900,8.4115888671875,0.00011433218605816364,0.0008057403611019254,-0.0004484625533223152
1772644028205630000,8.4216298828125,-0.00001696165418252349,-0.0005101275746710598,0.00016912445425987244
1772644028215670800,8.4316708984375,0.0010565861593931913,-0.0011439535301178694,0.0008128617191687226
1772644028225710800,8.4417109375,0.0007396700093522668,-0.00012849021004512906,-0.00010859197936952114
1772644028235752000,8.451751953125,-0.0010988456197082996,0.0004399823083076626,-0.0003658828791230917
1772644028245792800,8.461792724609374,0.0021238457411527634,-0.0006093031261116266,0.00039471592754125595
1772644028255833900,8.471833740234375,-0.0013328397180885077,-0.0019462044583633542,-0.0006752489134669304
1772644028265875000,8.481875,0.0018195442389696836,0.00029378023464232683,-0.0008779154159128666
1772644028275915000,8.4919150390625,0.00022976973559707403,-0.0003968111122958362,0.0008138043340295553
1772644028285955800,8.501955810546875,-0.00004160642856732011,-0.000601341889705509,-0.00013428088277578354
1772644028295997000,8.511996826171876,-0.00037569948472082615,-0.0008042420959100127,-0.0005289369728416204
1772644028306038000,8.5220380859375,0.00025174120673909783,0.0007116292254067957,-0.0010557102505117655
1772644028316078800,8.532078857421874,0.00041002227226272225,-0.00023154146037995815,-0.000006892252713441849
1772644028326119000,8.542118896484375,-0.0014778925105929375,0.00013517588376998901,-0.00044897710904479027
1772644028336160000,8.552159912109374,0.000148128776345402,-0.001093451981432736,0.0005373788299039006
1772644028346200800,8.562200927734375,-0.0013296592514961958,-0.0007757368730381131,0.0005677388980984688
1772644028356242000,8.572241943359375,-0.001535030547529459,-0.00012090010568499565,-0.0005020522512495518
1772644028366283000,8.582282958984376,-0.0006058537401258945,0.00005433592014014721,-0.0007686347234994173
1772644028376322800,8.59232275390625,0.0006649342249147594,-0.0007984057301655412,0.0008311192505061626
1772644028386364000,8.602364013671876,-0.000523101887665689,-0.0008386194240301847,0.00040288292802870274
1772644028396405000,8.612405029296875,0.0003347022575326264,-0.00022689136676490307,-0.002678127959370613
1772644028406446000,8.622446044921874,0.0009665476391091943,-0.0005389144062064588,-0.0010925817769020796
1772644028416486000,8.63248583984375,0.00043726951116696,-0.00046734214993193746,0.0003211188595741987
1772644028426526700,8.642526611328124,-0.00041813787538558245,0.00028659874806180596,0.0011722651543095708
1772644028436567800,8.65256787109375,-0.00017783697694540024,-0.0005542511935345829,0.0004905099049210548
1772644028446609000,8.66260888671875,0.0008309683762490749,-0.00008899695239961147,0.00038158660754561424
1772644028456649700,8.672649658203126,0.00041247892659157515,0.0002504397416487336,-0.0007964672986418009
1772644028466689800,8.682689697265625,0.0004518936912063509,0.0008259488386102021,-0.000022552674636244774
1772644028476731000,8.69273095703125,-0.00029563443968072534,-0.0005672722472809255,0.0011476116487756371
1772644028486771700,8.702771728515625,0.0006167645333334804,-0.0005369122955016792,0.0013329676585271955
1772644028496812800,8.712812744140624,0.00032698578434064984,0.0004195644287392497,-0.00032373005524277687
1772644028506854000,8.72285400390625,0.0006614788435399532,0.00006722821854054928,0.0009212977020069957
1772644028516894000,8.73289404296875,-0.0008586666663177311,-0.00035023910459131,-0.0006030285730957985
1772644028526934800,8.742934814453125,-0.00006451207445934415,0.00032034487230703235,0.0007546510314568877
1772644028536976000,8.752975830078125,-0.00016572768799960613,-0.0008793093147687614,-0.0006934599950909615
1772644028547017000,8.763016845703126,-0.0003508173394948244,-0.0009663946111686528,-0.0006202231161296368
1772644028557057000,8.77305712890625,-0.00025815260596573353,0.0027812588959932327,0.0019374362891539931
1772644028567097900,8.783097900390626,0.0001969815930351615,0.00010877667227759957,0.0003334144130349159
1772644028577139000,8.793138916015625,0.0006890685763210058,-0.00003650115104392171,0.0009192792931571603
1772644028587179800,8.8031796875,0.00021768902661278844,0.00029905716655775905,-0.00015397462993860245
1772644028597220900,8.813220947265625,-0.0014442566316574812,0.0008197542047128081,0.000308874761685729
1772644028607261000,8.823260986328124,0.0005363362724892795,0.0003129546530544758,0.0008622795576229692
1772644028617302000,8.833302001953125,-0.0005190190277062356,0.0009695038897916675,-0.00046170945279300213
1772644028627342800,8.8433427734375,0.00030762614915147424,-0.001048639533109963,0.00013457238674163818
1772644028637384000,8.853384033203126,0.0006723650731146336,-0.0006589602562598884,-0.0003529144451022148
1772644028647425000,8.863425048828125,-0.0004245910095050931,0.0018225732492282987,0.0015435226960107684
1772644028657465000,8.873465087890626,-0.0006425587343983352,0.0017453798791393638,0.0017217257991433144
1772644028667506000,8.883505859375,6.204936653375626e-8,0.0012833214132115245,0.0023036266211420298
1772644028677547000,8.893547119140624,0.0001646068412810564,0.007337023038417101,0.0015521724708378315
1772644028687588000,8.903588134765625,0.0009912520181387663,-0.00285329669713974,0.0003220583312213421
1772644028697628000,8.9136279296875,0.0009829329792410135,-0.004910022486001253,-0.0007870867848396301
1772644028707668700,8.923668701171875,0.00032300170278176665,-0.004728927277028561,-0.0005988012999296188
1772644028717709800,8.933709716796875,-0.0012651635333895683,-0.0022047925740480423,-0.001245357794687152
1772644028727750700,8.943750732421876,-0.00010136229684576392,-0.0012170260306447744,-0.0006914201658219099
1772644028737791700,8.953791748046875,0.0007166970171965659,-0.0012592021375894547,0.0009078780421987176
1772644028747831800,8.963831787109376,0.00016329216305166483,0.00006625312380492687,0.0008026831783354282
1772644028757873000,8.973872802734375,-0.00006871507503092289,-0.0009209174895659089,0.00048325909301638603
