time,seconds_elapsed,z,y,x
1772648322563286000,0.1882861328125,0.07510107755661011,0.054195281118154526,-0.0612526535987854
1772648322583295000,0.208294921875,0.0942758247256279,0.10426266491413116,-0.0612526535987854
1772648322593299700,0.2182998046875,0.09747160971164703,0.1356879472732544,-0.058589495718479156
1772648322603304200,0.22830419921875,0.08362318575382233,0.16125427186489105,-0.08202528953552246
1772648322613309000,0.238308837890625,0.06817686557769775,0.1782984882593155,-0.09321055561304092
1772648322623313400,0.2483134765625,0.07510107755661011,0.19960375130176544,-0.10173266381025314
1772648322633318000,0.25831787109375,0.07350318133831024,0.1916142702102661,-0.08788423985242844
1772648322643322600,0.268322509765625,0.058589495718479156,0.16231952607631683,-0.07243791967630386
1772648322653327000,0.2783271484375,0.04633896425366402,0.1170458272099495,-0.06231791526079178
1772648322663331600,0.28833154296875,0.0330231711268425,0.08721844851970673,-0.060187388211488724
1772648322673336000,0.298336181640625,0.025566324591636658,0.08881634473800659,-0.06498107314109802
1772648322683340800,0.3083408203125,0.017576847225427628,0.08562055230140686,-0.06178528442978859
1772648322693345300,0.31834521484375,0.012783162295818329,0.09147950261831284,-0.058589495718479156
1772648322703349800,0.328349853515625,0.001597895286977291,0.10586056113243103,-0.06498107314109802
1772648322713354500,0.3383544921875,-0.01438105758279562,0.11544793099164963,-0.06551370769739151
1772648322723359000,0.34835888671875,-0.02503369376063347,0.12503530085086823,-0.052197910845279694
1772648322733363500,0.358363525390625,-0.030360009521245956,0.13195951282978058,-0.03195790573954582
1772648322743368200,0.3683681640625,-0.0330231711268425,0.13409005105495453,-0.02024000696837902
1772648322763377200,0.388377197265625,-0.0282294824719429,0.19907112419605255,-0.0282294824719429
1772648322773382000,0.3983818359375,-0.022370534017682076,0.23209428787231445,-0.01438105758279562
1772648322783386400,0.408386474609375,-0.01597895286977291,0.2725743055343628,0.004793685860931873
1772648322793390800,0.418390869140625,-0.014913689345121384,0.30666273832321167,0.01012000348418951
1772648322803395600,0.4283955078125,-0.018642112612724304,0.3519364297389984,-0.015446321107447147
1772648322813400000,0.438400146484375,-0.02077263966202736,0.389220654964447,-0.050600018352270126
1772648322823404500,0.448404541015625,-0.014913689345121384,0.4318312108516693,-0.07882949709892273
1772648322833409300,0.4584091796875,-0.00852210819721222,0.4712459444999695,-0.11930951476097107
1772648322843413800,0.468413818359375,0.0010652635246515274,0.49574699997901917,-0.164583221077919
1772648322853418200,0.478418212890625,0.003195790573954582,0.48775753378868103,-0.20026955008506775
1772648322863423000,0.488423095703125,0.00852210819721222,0.4659196436405182,-0.2258358597755432
1772648322873427500,0.498427490234375,0.006924212910234928,0.4504733085632324,-0.24341271817684174
1772648322883432000,0.508431884765625,-0.0010652635246515274,0.42916804552078247,-0.24927166104316711
1772648322893436700,0.518436767578125,-0.01012000348418951,0.40253645181655884,-0.2498043030500412
1772648322903441200,0.528441162109375,-0.00852210819721222,0.38815540075302124,-0.24714113771915436
1772648322913445600,0.538445556640625,-0.0010652635246515274,0.3796332776546478,-0.24607586860656738
1772648322923450400,0.548450439453125,0.0005326317623257637,0.36418697237968445,-0.2306295484304428
1772648322933454800,0.558454833984375,0.011717898771166801,0.37750276923179626,-0.2215748131275177
1772648322943459300,0.568459228515625,0.017576847225427628,0.38336169719696045,-0.22050954401493073
1772648322953464000,0.578464111328125,0.034621063619852066,0.40679749846458435,-0.2263685017824173
1772648322963468500,0.588468505859375,0.03249053657054901,0.32743537425994873,-0.2162484973669052
1772648322973473000,0.59847314453125,0.023968428373336792,0.27949851751327515,-0.2071937620639801
1772648322983477800,0.608477783203125,0.026098955422639847,0.21771323680877686,-0.2125200778245926
1772648322993482200,0.618482177734375,0.021305270493030548,0.14847110211849213,-0.23169481754302979
1772648323003486700,0.62848681640625,0.021837901324033737,0.11757846176624298,-0.24447797238826752
1772648323013491500,0.638491455078125,0.03408843278884888,0.1308942586183548,-0.24394534528255463
1772648323023496000,0.648495849609375,0.04953475296497345,0.14900372922420502,-0.2269011288881302
1772648323033500400,0.65850048828125,0.06977476179599762,0.17243953049182892,-0.21092218160629272
1772648323043505200,0.668505126953125,0.09267792850732803,0.19960375130176544,-0.21411797404289246
1772648323053509600,0.678509521484375,0.11398319900035858,0.21771323680877686,-0.22370533645153046
1772648323063514000,0.68851416015625,0.13315793871879578,0.24700798094272614,-0.23861902952194214
1772648323073518600,0.6985185546875,0.14700636267662048,0.26884588599205017,-0.24181482195854187
1772648323083523000,0.708523193359375,0.15712636709213257,0.2720416784286499,-0.24447797238826752
1772648323093527800,0.71852783203125,0.15925689041614532,0.2576606273651123,-0.25672850012779236
1772648323103532300,0.7285322265625,0.1608547866344452,0.23369218409061432,-0.2631200850009918
1772648323113536800,0.738536865234375,0.16777899861335754,0.22303955256938934,-0.2556632459163666
1772648323123541200,0.748541259765625,0.17310532927513123,0.21718059480190277,-0.2306295484304428
1772648323133545700,0.758545654296875,0.18002954125404358,0.2155826985836029,-0.20453059673309326
1772648323143550500,0.768550537109375,0.19121479988098145,0.21185427904129028,-0.1880190074443817
1772648323153555000,0.778554931640625,0.19920428097248077,0.20759323239326477,-0.17363795638084412
1772648323163559400,0.788559326171875,0.20399796962738037,0.20706059038639069,-0.1560611128807068
1772648323173564000,0.79856396484375,0.2071937620639801,0.20546270906925201,-0.13262531161308289
1772648323183568400,0.808568359375,0.20879164338111877,0.18948374688625336,-0.1086568832397461
1772648323193572900,0.81857275390625,0.2071937620639801,0.15805847942829132,-0.10013477504253387
1772648323203577600,0.82857763671875,0.20559586584568024,0.11917635798454285,-0.09747160971164703
1772648323213582000,0.83858203125,0.20612849295139313,0.08508792519569397,-0.08415582031011581
1772648323223586600,0.848586669921875,0.2119874358177185,0.054727911949157715,-0.055393703281879425
1772648323233591000,0.858591064453125,0.22264008224010468,0.02383527159690857,-0.018642112612724304
1772648323243595500,0.868595458984375,0.22530323266983032,-0.02516685053706169,0.011185267008841038
1772648323253600000,0.87860009765625,0.2263685017824173,-0.0810931846499443,0.02077263966202736
1772648323263604700,0.888604736328125,0.22477060556411743,-0.1428784728050232,0.006391581147909164
1772648323273609200,0.898609130859375,0.23489060997962952,-0.20572902262210846,-0.011717898771166801
1772648323283613700,0.90861376953125,0.21145480871200562,-0.20519638061523438,-0.03675159066915512
1772648323293618200,0.9186181640625,0.20879164338111877,-0.23023007810115814,-0.04154527932405472
1772648323303622700,0.92862255859375,0.1747032105922699,-0.23129534721374512,-0.052197910845279694
1772648323313627400,0.93862744140625,0.13795162737369537,-0.22437113523483276,-0.050600018352270126
1772648323323631900,0.9486318359375,0.08522108197212219,-0.22011007368564606,-0.047936856746673584
1772648323333636400,0.95863623046875,0.030360009521245956,-0.18389111757278442,-0.0564589649438858
1772648323343640800,0.968640869140625,-0.034621063619852066,-0.10346371680498123,-0.05752423033118248
1772648323353645300,0.978645263671875,-0.12090741097927094,-0.004926843568682671,-0.06231791526079178
1772648323363649800,0.98864990234375,-0.20506322383880615,0.11544793099164963,-0.07936213165521622
1772648323373654500,0.998654541015625,-0.3020022213459015,0.26511746644973755,-0.1038631945848465
1772648323383659000,1.008658935546875,-0.38828855752944946,0.37910065054893494,-0.10972214490175247
1772648323393663500,1.01866357421875,-0.4660528004169464,0.43449434638023376,-0.0804273933172226
1772648323403668000,1.02866796875,-0.4665854275226593,0.38762277364730835,0.02024000696837902
1772648323413672400,1.03867236328125,-0.5198485851287842,0.2672479748725891,0.12303793430328369
1772648323423677000,1.048677001953125,-0.5800359845161438,0.03874896094202995,0.21891164779663086
1772648323433681700,1.058681640625,-0.5954822897911072,-0.16311848163604736,0.28975167870521545
1772648323443686100,1.06868603515625,-0.6231791377067566,-0.32024484872817993,0.32224223017692566
1772648323453690600,1.078690673828125,-0.64608234167099,-0.4294343590736389,0.33715590834617615
1772648323463695000,1.088695068359375,-0.6524739265441895,-0.44275015592575073,0.35100433230400085
1772648323473699600,1.098699462890625,-0.6572675704956055,-0.39960697293281555,0.37497276067733765
1772648323483704300,1.108704345703125,-0.650875985622406,-0.31917959451675415,0.4111917316913605
1772648323493708800,1.118708740234375,-0.6402233839035034,-0.24833956360816956,0.4671180546283722
1772648323503713300,1.12871337890625,-0.6269075870513916,-0.20999006927013397,0.545414924621582
1772648323513717800,1.1387177734375,-0.608798086643219,-0.19081532955169678,0.6412886381149292
1772648323523722200,1.14872216796875,-0.5997433662414551,-0.19347849488258362,0.7243791818618774
1772648323533726700,1.158726806640625,-0.5805686116218567,-0.20040270686149597,0.7829686999320984
1772648323543731500,1.1687314453125,-0.5523391366004944,-0.19773954153060913,0.8064044713973999
1772648323553736000,1.17873583984375,-0.5225117802619934,-0.14447636902332306,0.793621301651001
1772648323563740700,1.18874072265625,-0.491086483001709,-0.056059494614601135,0.7536739706993103
1772648323573745700,1.19874560546875,-0.45007383823394775,0.030226852744817734,0.6854971051216125
1772648323583750400,1.20875048828125,-0.3946801424026489,0.10639319568872452,0.6045370697975159
1772648323593755400,1.21875537109375,-0.3488737940788269,0.1681784838438034,0.5550022721290588
1772648323603760400,1.228760498046875,-0.306263267993927,0.16285216808319092,0.5390233397483826
1772648323613765400,1.238765380859375,-0.2593916654586792,0.1314268857240677,0.5496760010719299
1772648323623770400,1.248770263671875,-0.22956429421901703,0.12769846618175507,0.5725791454315186
1772648323633775400,1.258775390625,-0.2029327005147934,0.12929636240005493,0.5933517813682556
1772648323643780000,1.268780029296875,-0.18269269168376923,0.11917635798454285,0.5949496626853943
1772648323653785000,1.27878515625,-0.17363795638084412,0.11065424978733063,0.5837644338607788
1772648323663790000,1.2887900390625,-0.15020215511322021,0.1495363712310791,0.558198094367981
1772648323673795000,1.298795166015625,-0.13741900026798248,0.16711321473121643,0.5374254584312439
1772648323683800000,1.308800048828125,-0.1315600425004959,0.16604794561862946,0.5203812122344971
1772648323693805000,1.31880517578125,-0.12090741097927094,0.19001637399196625,0.5038696527481079
1772648323703809800,1.328809814453125,-0.11185266822576523,0.18042901158332825,0.48682543635368347
1772648323713814800,1.338814697265625,-0.10066740214824677,0.1777658462524414,0.45912858843803406
1772648323723819800,1.34881982421875,-0.0846884474158287,0.18575532734394073,0.43089908361434937
1772648323733824800,1.35882470703125,-0.043675802648067474,0.13835109770298004,0.4016043543815613
1772648323743829800,1.368829833984375,-0.019707374274730682,0.17510269582271576,0.3621895909309387
1772648323753834800,1.378834716796875,-0.027696851640939713,0.17190690338611603,0.3296990692615509
1772648323763839500,1.388839599609375,-0.02876211516559124,0.1495363712310791,0.306263267993927
1772648323773844500,1.398844482421875,-0.03621895983815193,0.10106687992811203,0.2838927209377289
1772648323783849500,1.408849365234375,-0.026098955422639847,0.0882837176322937,0.24820640683174133
1772648323793854500,1.4188544921875,-0.01012000348418951,0.09840371459722519,0.2024000734090805
1772648323803859500,1.428859375,0.013315794058144093,0.14154689013957977,0.14434321224689484
1772648323813864400,1.438864501953125,0.03249053657054901,0.20759323239326477,0.08202528953552246
1772648323823869200,1.448869140625,0.05432844161987305,0.2731069326400757,0.006924212910234928
1772648323833874200,1.458874267578125,0.06870950013399124,0.3183806240558624,-0.07456845045089722
1772648323843879200,1.468879150390625,0.0756337121129036,0.3561974763870239,-0.15233267843723297
1772648323853884200,1.47888427734375,0.07616633921861649,0.3727090656757355,-0.22317270934581757
1772648323863889200,1.48888916015625,0.07297055423259735,0.39188382029533386,-0.28016430139541626
1772648323873894000,1.498893798828125,0.07137265801429749,0.40679749846458435,-0.3078611493110657
1772648323883899000,1.50889892578125,0.06764423102140427,0.3817638158798218,-0.30360010266304016
1772648323893904000,1.51890380859375,0.07456845045089722,0.3530017137527466,-0.28069692850112915
1772648323903908900,1.528908935546875,0.08681897819042206,0.31784799695014954,-0.24873903393745422
1772648323913913900,1.538913818359375,0.09587371349334717,0.2970753610134125,-0.20879164338111877
1772648323923918800,1.5489189453125,0.07723160833120346,0.30666273832321167,-0.1693768948316574
1772648323933923600,1.558923583984375,0.02503369376063347,0.3514038026332855,-0.13528846204280853
1772648323943928600,1.568928466796875,-0.03834948688745499,0.4131890833377838,-0.10066740214824677
1772648323953933600,1.57893359375,-0.09960214048624039,0.498410165309906,-0.06338317692279816
1772648323963938600,1.5889384765625,-0.1081242486834526,0.6150565147399902,-0.03355580195784569
1772648323973943600,1.598943603515625,-0.08096002787351608,0.6752439141273499,-0.013848425820469856
1772648323983948300,1.6089482421875,-0.06977476179599762,0.6358291506767273,-0.0026631588116288185
1772648323993953300,1.618953369140625,-0.06285054981708527,0.5431512594223022,0.01012000348418951
1772648324003958300,1.628958251953125,-0.06391581147909164,0.4462122619152069,0.04207791015505791
1772648324013963300,1.63896337890625,-0.1177116185426712,0.2432795614004135,0.11132004112005234
1772648324023968300,1.64896826171875,-0.14700636267662048,0.10958898812532425,0.23169481754302979
1772648324033973200,1.65897314453125,-0.18002954125404358,0.05366265028715134,0.373374879360199
1772648324043978000,1.66897802734375,-0.24341271817684174,-0.0390152782201767,0.48416227102279663
1772648324053983000,1.67898291015625,-0.3115895688533783,-0.11305109411478043,0.5731117725372314
1772648324063988200,1.68898828125,-0.33609065413475037,-0.14820478856563568,0.6173202395439148
1772648324073993200,1.6989931640625,-0.33768853545188904,-0.17270584404468536,0.5619264841079712
1772648324083998500,1.70899853515625,-0.316915899515152,-0.20093533396720886,0.43995383381843567
1772648324094003700,1.719003662109375,-0.23648850619792938,-0.22170796990394592,0.295610636472702
1772648324104008700,1.7290087890625,-0.1837579607963562,-0.20732691884040833,0.18748638033866882
1772648324114014000,1.739013916015625,-0.13209268450737,-0.2371542900800705,0.1411474198102951
1772648324124019200,1.749019287109375,-0.03568632900714874,-0.2323606014251709,0.07776423543691635
1772648324134024400,1.7590244140625,0.017576847225427628,-0.1375521570444107,-0.03568632900714874
1772648324144029400,1.769029541015625,0.05805686116218567,-0.04700475186109543,-0.164583221077919
1772648324154034700,1.77903466796875,0.11558109521865845,0.014247899875044823,-0.2743053436279297
1772648324164040000,1.7890400390625,0.2034653276205063,0.013715268112719059,-0.32756853103637695
1772648324174045000,1.799044921875,0.2865558862686157,-0.08002792298793793,-0.31372010707855225
1772648324184050200,1.80905029296875,0.4010717272758484,-0.08801739662885666,-0.25246745347976685
1772648324194055400,1.819055419921875,0.4756401777267456,-0.05925528332591057,-0.16298532485961914
1772648324204060400,1.829060302734375,0.5555348992347717,0.02330263890326023,-0.06498107314109802
1772648324214065700,1.839065673828125,0.5699160099029541,0.14580795168876648,0.013848425820469856
1772648324224071000,1.84907080078125,0.5219791531562805,0.20013637840747833,0.04474106803536415
1772648324234076200,1.859076171875,0.4532696306705475,0.24647535383701324,0.02024000696837902
1772648324244081200,1.8690810546875,0.40266960859298706,0.32690274715423584,-0.0330231711268425
1772648324254086400,1.87908642578125,0.43675804138183594,0.380698561668396,-0.10918951034545898
1772648324264091600,1.889091552734375,0.4772380590438843,0.3748396039009094,-0.20932428538799286
1772648324274096600,1.8990966796875,0.48842331767082214,0.3327617049217224,-0.3201116919517517
1772648324284102000,1.909101806640625,0.47404226660728455,0.2198437601327896,-0.4101264476776123
1772648324294107100,1.919107177734375,0.4282359480857849,0.08988160640001297,-0.4516717195510864
1772648324304112000,1.929112060546875,0.3456780016422272,-0.011851056478917599,-0.4703138470649719
1772648324314117400,1.939117431640625,0.2631200850009918,-0.09334371984004974,-0.48309701681137085
1772648324324122600,1.94912255859375,0.15765899419784546,-0.17270584404468536,-0.48362964391708374
1772648324334127900,1.9591279296875,0.0378168560564518,-0.2275669276714325,-0.4799012243747711
1772648324344132900,1.9691328125,-0.06391581147909164,-0.2414153516292572,-0.46445488929748535
1772648324354138000,1.97913818359375,-0.14381057024002075,-0.20945744216442108,-0.43089908361434937
1772648324364143000,1.98914306640625,-0.1832253336906433,-0.17803215980529785,-0.38509276509284973
1772648324374148400,1.9991484375,-0.19547586143016815,-0.14181320369243622,-0.3478085398674011
1772648324384153600,2.009153564453125,-0.17630110681056976,-0.060320548713207245,-0.3201116919517517
1772648324394158800,2.019158935546875,-0.14381057024002075,-0.06617949903011322,-0.29933905601501465
1772648324404163800,2.029163818359375,-0.09321055561304092,-0.04540685936808586,-0.28069692850112915
1772648324414169000,2.039169189453125,-0.025566324591636658,-0.00013315794058144093,-0.272707462310791
1772648324424174300,2.04917431640625,0.043675802648067474,-0.028362641111016273,-0.2924148440361023
1772648324434179300,2.059179443359375,0.13262531161308289,-0.00013315794058144093,-0.3350253701210022
1772648324444184600,2.0691845703125,0.21465060114860535,0.03129211440682411,-0.3824295997619629
1772648324454189800,2.07918994140625,0.2721748352050781,0.0648479163646698,-0.4191811978816986
1772648324474200000,2.099199951171875,0.28549063205718994,-0.06990791857242584,-0.41172435879707336
1772648324484205300,2.109205322265625,0.2700442969799042,-0.09707213938236237,-0.3904190957546234
1772648324494210600,2.11921044921875,0.2508695721626282,-0.11145319789648056,-0.3669832944869995
1772648324504215600,2.129215576171875,0.2359558641910553,-0.10133319348096848,-0.35047170519828796
1772648324514220800,2.139220703125,0.24607586860656738,-0.08215844631195068,-0.33715590834617615
1772648324524226000,2.14922607421875,0.23861902952194214,-0.060320548713207245,-0.3456780016422272
1772648324534231000,2.15923095703125,0.2535327076911926,-0.06617949903011322,-0.3430148661136627
1772648324544236300,2.169236328125,0.2508695721626282,-0.11624687910079956,-0.33289486169815063
1772648324554241500,2.179241455078125,0.27696850895881653,-0.16524900496006012,-0.30040431022644043
1772648324564246300,2.189246337890625,0.3078611493110657,-0.19134795665740967,-0.2577937841415405
1772648324574250800,2.199250732421875,0.3078611493110657,-0.24780692160129547,-0.23648850619792938
1772648324594259700,2.219259765625,0.32277485728263855,-0.33249539136886597,-0.18642111122608185
1772648324604264200,2.22926416015625,0.3073285222053528,-0.39960697293281555,-0.13049478828907013
1772648324614268700,2.2392685546875,0.32756853103637695,-0.4123901426792145,-0.07882949709892273
1772648324624273200,2.249273193359375,0.31744852662086487,-0.4022701382637024,-0.054861072450876236
1772648324634278000,2.25927783203125,0.31798115372657776,-0.41665118932724,-0.0564589649438858
1772648324644282000,2.2692822265625,0.3211769461631775,-0.4012048840522766,-0.0798947662115097
1772648324654286800,2.279286865234375,0.29987168312072754,-0.38629117608070374,-0.1134505644440651
1772648324664291300,2.289291259765625,0.2870885133743286,-0.35646381974220276,-0.14381057024002075
1772648324674295800,2.2992958984375,0.28016430139541626,-0.33249539136886597,-0.15020215511322021
1772648324684300300,2.30930029296875,0.2695116698741913,-0.2984069585800171,-0.16298532485961914
1772648324694304800,2.3193046875,0.2636527121067047,-0.2691121995449066,-0.16671374440193176
1772648324704309200,2.329309326171875,0.2498043030500412,-0.2701774537563324,-0.1560611128807068
1772648324714313700,2.339313720703125,0.23702113330364227,-0.22809955477714539,-0.14327794313430786
1772648324724318200,2.349318115234375,0.21518322825431824,-0.20466375350952148,-0.09853687882423401
1772648324734323000,2.359322998046875,0.20506322383880615,-0.1801626980304718,-0.06870950013399124
1772648324744327400,2.369327392578125,0.1842905879020691,-0.16684690117835999,-0.06338317692279816
1772648324754332000,2.379331787109375,0.14913690090179443,-0.07843002676963806,-0.09001477062702179
1772648324764336400,2.38933642578125,0.08522108197212219,0.004660528153181076,-0.1134505644440651
1772648324774340900,2.3993408203125,0.01704421639442444,0.13622057437896729,-0.13209268450737
1772648324784345300,2.409345458984375,-0.05805686116218567,0.28482484817504883,-0.14434321224689484
1772648324794349800,2.419349853515625,-0.13954952359199524,0.4339617192745209,-0.12623372673988342
1772648324804354300,2.429354248046875,-0.26525062322616577,0.44834280014038086,-0.09800424426794052
1772648324814358800,2.43935888671875,-0.35100433230400085,0.5010733008384705,-0.04048001393675804
1772648324824363500,2.449363525390625,-0.39894118905067444,0.7215828895568848,0.038882117718458176
1772648324834368000,2.459367919921875,-0.4708464741706848,0.6001428365707397,0.15233267843723297
1772648324844372500,2.46937255859375,-0.5805686116218567,0.32583749294281006,0.283360093832016
1772648324854377000,2.479376953125,-0.6562023162841797,0.1916142702102661,0.3776359260082245
1772648324864381400,2.48938134765625,-0.7483476400375366,0.08135949820280075,0.43516016006469727
1772648324874386000,2.499385986328125,-0.8261118531227112,-0.031558431684970856,0.46019384264945984
1772648324884390400,2.509390380859375,-0.8628634810447693,-0.12743215262889862,0.44581279158592224
1772648324894395000,2.519394775390625,-0.9193224310874939,-0.2643185257911682,0.47777068614959717
1772648324904399400,2.5293994140625,-0.9507476687431335,-0.41824910044670105,0.5486106872558594
1772648324914404000,2.539404052734375,-0.9108003377914429,-0.5221123099327087,0.6072002053260803
1772648324924408600,2.54940869140625,-0.805871844291687,-0.5844302177429199,0.6285054683685303
1772648324934413000,2.5594130859375,-0.6535391807556152,-0.6185186505317688,0.6103960275650024
1772648324944417500,2.56941748046875,-0.5054675340652466,-0.5897565484046936,0.52837073802948
1772648324954422000,2.579422119140625,-0.37017908692359924,-0.5146554112434387,0.42610540986061096
1772648324964426500,2.589426513671875,-0.25619587302207947,-0.3697795867919922,0.3201116919517517
1772648324974431000,2.599430908203125,-0.16138742864131927,-0.1897500604391098,0.272707462310791
1772648324984435500,2.609435546875,-0.11132004112005234,-0.003861580276861787,0.2972085177898407
1772648324994440200,2.619440185546875,-0.08362318575382233,0.11811109632253647,0.3808317184448242
1772648325004444700,2.629444580078125,-0.07137265801429749,0.16604794561862946,0.4617917239665985
1772648325014449200,2.63944921875,-0.09267792850732803,0.19481006264686584,0.5086633563041687
1772648325024453600,2.64945361328125,-0.1267663538455963,0.22197428345680237,0.5102612376213074
1772648325034458000,2.6594580078125,-0.17576847970485687,0.2576606273651123,0.4767054319381714
1772648325044462600,2.669462646484375,-0.23648850619792938,0.2853574752807617,0.438355952501297
1772648325054467000,2.679467041015625,-0.29507800936698914,0.2997385263442993,0.4138548672199249
1772648325064471300,2.68947119140625,-0.3573959171772003,0.28961852192878723,0.4186485707759857
1772648325074475500,2.6994755859375,-0.38509276509284973,0.2970753610134125,0.4532696306705475
1772648325084479700,2.709479736328125,-0.37550538778305054,0.3434143364429474,0.4846948981285095
1772648325094484000,2.71948388671875,-0.35633066296577454,0.3854922354221344,0.5022717714309692
1772648325104488200,2.72948828125,-0.329166442155838,0.4174501299858093,0.49268439412117004
1772648325114492400,2.739492431640625,-0.30413272976875305,0.4424838423728943,0.46072646975517273
1772648325124496600,2.74949658203125,-0.27537062764167786,0.42597225308418274,0.4245075285434723
1772648325134500900,2.7595009765625,-0.25140219926834106,0.380698561668396,0.37017908692359924
1772648325144505000,2.769505126953125,-0.23382534086704254,0.30240169167518616,0.32810115814208984
1772648325154509300,2.77950927734375,-0.22477060556411743,0.17563532292842865,0.28122955560684204
1772648325164513500,2.789513427734375,-0.2029327005147934,0.09147950261831284,0.22423797845840454
1772648325174517800,2.799517822265625,-0.19121479988098145,0.007856318727135658,0.14434321224689484
1772648325184522000,2.80952197265625,-0.16831164062023163,-0.006524738855659962,0.04633896425366402
1772648325194526200,2.819526123046875,-0.13901689648628235,0.012117372825741768,-0.05805686116218567
1772648325204530400,2.829530517578125,-0.1129179298877716,0.058456335216760635,-0.15339794754981995
1772648325214534700,2.83953466796875,-0.09267792850732803,0.11278477311134338,-0.23276008665561676
1772648325224539000,2.849538818359375,-0.055393703281879425,0.17670059204101562,-0.2929474711418152
1772648325234543000,2.859543212890625,-0.002130527049303055,0.25606271624565125,-0.33662328124046326
1772648325244547300,2.86954736328125,0.06072001904249191,0.34021854400634766,-0.3664506673812866
1772648325254551600,2.879551513671875,0.1177116185426712,0.4174501299858093,-0.39734330773353577
1772648325264555800,2.8895556640625,0.17310532927513123,0.5010733008384705,-0.42717066407203674
1772648325274560000,2.89956005859375,0.21518322825431824,0.5671196579933167,-0.4474106729030609
1772648325284564200,2.909564208984375,0.2354232370853424,0.5836312770843506,-0.45113909244537354
1772648325294568400,2.919568359375,0.2647179961204529,0.586294412612915,-0.4447475075721741
1772648325304572700,2.92957275390625,0.2918822169303894,0.5703154802322388,-0.4303664565086365
1772648325314577000,2.939576904296875,0.29401272535324097,0.5559344291687012,-0.404800146818161
1772648325324581000,2.9495810546875,0.2583264112472534,0.5665870308876038,-0.36485275626182556
1772648325334585300,2.95958544921875,0.1747032105922699,0.5985449552536011,-0.3217095732688904
1772648325344589600,2.969589599609375,0.10439582169055939,0.6502102017402649,-0.27590325474739075
1772648325354593800,2.97959375,0.06817686557769775,0.7423555254936218,-0.21411797404289246
1772648325364598000,2.989597900390625,0.0612526535987854,0.7657912969589233,-0.12996214628219604
1772648325374602200,2.999602294921875,0.043675802648067474,0.7162565588951111,-0.04474106803536415
1772648325384606500,3.0096064453125,0.0282294824719429,0.586294412612915,0.018109479919075966
1772648325394610700,3.019610595703125,0.04580633342266083,0.47923544049263,0.055926334112882614
1772648325404615000,3.029614990234375,0.030360009521245956,0.32210904359817505,0.0942758247256279
1772648325414619100,3.039619140625,0.006924212910234928,0.1916142702102661,0.14274531602859497
1772648325424623400,3.049623291015625,-0.0282294824719429,0.13409005105495453,0.18482321500778198
1772648325434627600,3.059627685546875,-0.07030738890171051,0.10479529947042465,0.20186743140220642
1772648325444631800,3.0696318359375,-0.0894821360707283,0.1266331970691681,0.21305270493030548
1772648325454636000,3.079635986328125,-0.10013477504253387,0.1687111109495163,0.22264008224010468
1772648325464640300,3.08964013671875,-0.1177116185426712,0.1873532235622406,0.24128219485282898
1772648325474644500,3.09964453125,-0.1422126740217209,0.1777658462524414,0.3009369373321533
1772648325484648700,3.109648681640625,-0.1368863582611084,0.1266331970691681,0.41172435879707336
1772648325494653000,3.11965283203125,-0.09108003228902817,-0.0624510757625103,0.4862928092479706
1772648325504657200,3.1296572265625,-0.08255792409181595,-0.2802974581718445,0.41705065965652466
1772648325514661400,3.139661376953125,-0.11611372232437134,-0.36605116724967957,0.2455432415008545
1772648325524665600,3.14966552734375,-0.09108003228902817,-0.2925480008125305,0.12090741097927094
1772648325534669800,3.159669921875,-0.070840023458004,-0.15992268919944763,0.07882949709892273
1772648325544674000,3.169674072265625,-0.13954952359199524,-0.10559424757957458,0.09800424426794052
1772648325554678300,3.17967822265625,-0.12037477642297745,-0.10399635136127472,0.12570109963417053
1772648325564682500,3.1896826171875,-0.03568632900714874,-0.12157320231199265,0.10120003670454025
1772648325574686700,3.199686767578125,0.005326317623257637,-0.12050793319940567,0.047404225915670395
1772648325584690700,3.209690673828125,0.04953475296497345,-0.10772477090358734,0.00852210819721222
1772648325594695000,3.21969482421875,0.10173266381025314,-0.0858868733048439,-0.010652635246515274
1772648325604699100,3.22969921875,0.1603221595287323,-0.023568956181406975,0
1772648325614703400,3.239703369140625,0.22903165221214294,0.07709844410419464,0.02077263966202736
1772648325624707600,3.24970751953125,0.3115895688533783,0.20439743995666504,0.0378168560564518
1772648325634711800,3.2597119140625,0.39414751529693604,0.37750276923179626,0.06231791526079178
1772648325644715800,3.2697158203125,0.4708464741706848,0.49201858043670654,0.08415582031011581
1772648325654720000,3.279719970703125,0.5022717714309692,0.5010733008384705,0.0804273933172226
1772648325664724200,3.28972412109375,0.48256438970565796,0.42650488018989563,0.034621063619852066
1772648325674728400,3.299728515625,0.4623243808746338,0.34980592131614685,-0.05805686116218567
1772648325684732700,3.309732666015625,0.42770329117774963,0.24168166518211365,-0.1656484752893448
1772648325694737000,3.31973681640625,0.37976643443107605,0.09414266049861908,-0.2695116698741913
1772648325704741000,3.3297412109375,0.3478085398674011,-0.0906805545091629,-0.36538538336753845
1772648325714745000,3.3397451171875,0.30466535687446594,-0.2515353560447693,-0.4713791012763977
1772648325724749300,3.349749267578125,0.23435798287391663,-0.37617117166519165,-0.5677854418754578
1772648325734753500,3.35975341796875,0.14913690090179443,-0.481632262468338,-0.6524739265441895
1772648325744757800,3.3697578125,0.05326317623257637,-0.5391564965248108,-0.6988128423690796
1772648325754762000,3.379761962890625,-0.03408843278884888,-0.5737775564193726,-0.688160240650177
1772648325764766200,3.38976611328125,-0.11824425309896469,-0.5817670226097107,-0.6311686635017395
1772648325774770400,3.3997705078125,-0.1699095368385315,-0.5854954719543457,-0.5336970090866089
1772648325784774700,3.409774658203125,-0.19547586143016815,-0.5354281067848206,-0.4138548672199249
1772648325794778600,3.419778564453125,-0.19973690807819366,-0.4629901647567749,-0.2924148440361023
1772648325804782800,3.429782958984375,-0.16777899861335754,-0.3878890872001648,-0.19707375764846802
1772648325814787000,3.439787109375,-0.12463583052158356,-0.31385326385498047,-0.14434321224689484
1772648325824791300,3.449791259765625,-0.05805686116218567,-0.2376869171857834,-0.1459411084651947
1772648325834795500,3.45979541015625,0.018109479919075966,-0.18868480622768402,-0.19600848853588104
1772648325844799700,3.4697998046875,0.10226529836654663,-0.14021530747413635,-0.2636527121067047
1772648325854804000,3.479803955078125,0.1597895324230194,-0.18282584846019745,-0.34248220920562744
1772648325864808000,3.489807861328125,0.21358533203601837,-0.20999006927013397,-0.404800146818161
1772648325874812200,3.499812255859375,0.2455432415008545,-0.20999006927013397,-0.4394212067127228
1772648325884816400,3.50981640625,0.2583264112472534,-0.23289324343204498,-0.4159854054450989
1772648325894820600,3.519820556640625,0.28122955560684204,-0.2270342856645584,-0.3536674976348877
1772648325904824800,3.529824951171875,0.2647179961204529,-0.27337324619293213,-0.28921905159950256
1772648325914829000,3.5398291015625,0.26738113164901733,-0.2893522083759308,-0.23382534086704254
1772648325924833000,3.5498330078125,0.26578325033187866,-0.254731148481369,-0.20985691249370575
1772648325934837200,3.559837158203125,0.29081693291664124,-0.23608903586864471,-0.20932428538799286
1772648325944841500,3.569841552734375,0.30945906043052673,-0.19188059866428375,-0.21944428980350494
1772648325954845700,3.579845703125,0.348341166973114,-0.15512900054454803,-0.23489060997962952
1772648325964850000,3.589849853515625,0.37870118021965027,-0.12263846397399902,-0.2455432415008545
1772648325974854100,3.599854248046875,0.4053327739238739,-0.11571425199508667,-0.24394534528255463
1772648325984858400,3.6098583984375,0.42610540986061096,-0.10772477090358734,-0.2311621904373169
1772648325994862300,3.6198623046875,0.41758328676223755,-0.14074794948101044,-0.2162484973669052
1772648326004866600,3.629866455078125,0.4016043543815613,-0.19347849488258362,-0.19174742698669434
1772648326014870800,3.639870849609375,0.392549604177475,-0.24301324784755707,-0.15020215511322021
1772648326024875000,3.649875,0.3675159215927124,-0.28615641593933105,-0.10599371790885925
1772648326034879200,3.659879150390625,0.3542001247406006,-0.31864693760871887,-0.05273054540157318
1772648326044883500,3.669883544921875,0.35633066296577454,-0.32503852248191833,-0.01597895286977291
1772648326054887400,3.679887451171875,0.3542001247406006,-0.35167011618614197,0.003195790573954582
1772648326064892200,3.68989208984375,0.35153695940971375,-0.34794169664382935,-0.003728422336280346
1772648326074897000,3.69989697265625,0.339819073677063,-0.374573290348053,-0.03675159066915512
1772648326084901600,3.709901611328125,0.3195790648460388,-0.3356911540031433,-0.07882949709892273
1772648326094906400,3.71990625,0.29401272535324097,-0.3079943060874939,-0.10066740214824677
1772648326104911000,3.7299111328125,0.2455432415008545,-0.27230799198150635,-0.11824425309896469
1772648326114915800,3.739915771484375,0.19547586143016815,-0.29148274660110474,-0.10705898702144623
1772648326124920600,3.749920654296875,0.13741900026798248,-0.30000483989715576,-0.06711160391569138
1772648326134925300,3.75992529296875,0.06764423102140427,-0.26804694533348083,-0.06072001904249191
1772648326144930000,3.769929931640625,0.006924212910234928,-0.19773954153060913,-0.10972214490175247
1772648326154934800,3.779934814453125,-0.07936213165521622,-0.08748476952314377,-0.1512674242258072
1772648326164939500,3.789939453125,-0.1597895324230194,0.020639481022953987,-0.18109479546546936
1772648326174944300,3.7999443359375,-0.2588590383529663,0.17510269582271576,-0.21411797404289246
1772648326184949000,3.809948974609375,-0.3568632900714874,0.3428817093372345,-0.23169481754302979
1772648326194953700,3.81995361328125,-0.44581279158592224,0.4797680675983429,-0.2263685017824173
1772648326204958500,3.82995849609375,-0.5230444073677063,0.5788375735282898,-0.18109479546546936
1772648326214963200,3.839963134765625,-0.5816338658332825,0.6134586334228516,-0.09054739773273468
1772648326224968000,3.849968017578125,-0.6279728412628174,0.5042691230773926,0.0282294824719429
1772648326234972700,3.85997265625,-0.6780402064323425,0.2581932544708252,0.1512674242258072
1772648326244977400,3.869977294921875,-0.6982802152633667,0.1026647686958313,0.25300008058547974
1772648326254982100,3.879982177734375,-0.7382276058197021,-0.03315632790327072,0.3542001247406006
1772648326264987000,3.88998681640625,-0.7275750041007996,-0.13116057217121124,0.40799593925476074
1772648326274991600,3.89999169921875,-0.7488802671432495,-0.19081532955169678,0.45540016889572144
1772648326284996400,3.909996337890625,-0.7952192425727844,-0.32503852248191833,0.5198485851287842
1772648326295001000,3.9200009765625,-0.8117308020591736,-0.5199817419052124,0.5938844084739685
1772648326305005800,3.930005859375,-0.7520760297775269,-0.7058702707290649,0.6322339177131653
1772648326315010600,3.940010498046875,-0.6348970532417297,-0.8576703071594238,0.6327665448188782
1772648326325015300,3.950015380859375,-0.4703138470649719,-0.9423587322235107,0.575242280960083
1772648326335020000,3.96002001953125,-0.30413272976875305,-0.9274450540542603,0.44634541869163513
1772648326345024800,3.970024658203125,-0.14753900468349457,-0.8076028823852539,0.2881537973880768
1772648326355029500,3.980029541015625,-0.018642112612724304,-0.6574007272720337,0.15180005133152008
1772648326365034200,3.9900341796875,0.06870950013399124,-0.4725775420665741,0.0846884474158287
1772648326375039000,4.0000390625,0.1134505644440651,-0.2126532346010208,0.11824425309896469
1772648326385043700,4.010043701171875,0.12463583052158356,-0.008122634142637253,0.23382534086704254
1772648326395048400,4.02004833984375,0.11930951476097107,0.08508792519569397,0.3637875020503998
1772648326405053200,4.03005322265625,0.0804273933172226,0.19001637399196625,0.446878045797348
1772648326415058000,4.040057861328125,0.022370534017682076,0.24754060804843903,0.47404226660728455
1772648326425062700,4.050062744140625,-0.06072001904249191,0.2342248111963272,0.46445488929748535
1772648326435067400,4.0600673828125,-0.14274531602859497,0.22357217967510223,0.43675804138183594
1772648326445072100,4.070072021484375,-0.20133480429649353,0.2251700758934021,0.4053327739238739
1772648326455076900,4.080076904296875,-0.23489060997962952,0.2779006361961365,0.38189697265625
1772648326465081600,4.09008154296875,-0.24447797238826752,0.3982754051685333,0.3776359260082245
1772648326475086300,4.10008642578125,-0.25193482637405396,0.49148595333099365,0.4010717272758484
1772648326485091000,4.110091064453125,-0.2359558641910553,0.5181175470352173,0.42717066407203674
1772648326495095800,4.120095703125,-0.2311621904373169,0.510660707950592,0.4426169991493225
1772648326505100500,4.1301005859375,-0.2167811244726181,0.475506991147995,0.4340948760509491
1772648326515105300,4.140105224609375,-0.2071937620639801,0.4004059135913849,0.4095938205718994
1772648326525110000,4.150110107421875,-0.19441059231758118,0.3279680013656616,0.37071171402931213
1772648326535114800,4.16011474609375,-0.20026955008506775,0.20706059038639069,0.32863378524780273
1772648326545119500,4.170119384765625,-0.19547586143016815,0.10692582279443741,0.2775011360645294
1772648326555124200,4.180124267578125,-0.17204006016254425,0.038216330111026764,0.2215748131275177
1772648326565129000,4.19012890625,-0.13262531161308289,0.02809632569551468,0.14540846645832062
1772648326575133700,4.2001337890625,-0.0846884474158287,0.05099949240684509,0.060187388211488724
1772648326585138400,4.210138427734375,-0.0576573871076107,0.09680582582950592,-0.03568632900714874
1772648326595143000,4.220142822265625,-0.02996053732931614,0.1452753096818924,-0.12623372673988342
1772648326605147600,4.230147705078125,0.0073236869648098946,0.19374480843544006,-0.20559586584568024
1772648326615152400,4.24015234375,0.046205803751945496,0.2342248111963272,-0.26684850454330444
1772648326625157000,4.2501572265625,0.08775108307600021,0.2779006361961365,-0.3158506453037262
1772648326635161900,4.260161865234375,0.1261005699634552,0.31252169609069824,-0.34674328565597534
1772648326645166600,4.27016650390625,0.16658058762550354,0.3466101288795471,-0.35526537895202637
1772648326655171300,4.28017138671875,0.1921469122171402,0.34501221776008606,-0.33768853545188904
1772648326665176000,4.290176025390625,0.20812585949897766,0.3002711534500122,-0.29987168312072754
1772648326675180800,4.300180908203125,0.21025638282299042,0.22730059921741486,-0.25726112723350525
1772648326685185500,4.310185546875,0.1735047996044159,0.1308942586183548,-0.20080217719078064
1772648326695190300,4.320190185546875,0.08082687109708786,0.07709844410419464,-0.1555284708738327
1772648326705195000,4.330195068359375,-0.001731053227558732,0.079228974878788,-0.1267663538455963
1772648326715199700,4.34019970703125,-0.05446159839630127,0.15219952166080475,-0.09640634804964066
1772648326725204500,4.35020458984375,-0.06990791857242584,0.22357217967510223,-0.047936856746673584
1772648326735209200,4.360209228515625,-0.07363633811473846,0.2763027250766754,0.010652635246515274
1772648326745214000,4.3702138671875,-0.07896266132593155,0.26458483934402466,0.08096002787351608
1772648326755218700,4.38021875,-0.05712475627660751,0.2198437601327896,0.13422320783138275
1772648326765223200,4.39022314453125,-0.035286854952573776,0.12716583907604218,0.1693768948316574
1772648326775228000,4.400227783203125,-0.05432844161987305,0.04514054208993912,0.24128219485282898
1772648326785232600,4.410232666015625,-0.08628634363412857,-0.06138581037521362,0.37976643443107605
1772648326795237400,4.4202373046875,-0.09480845183134079,-0.11198582500219345,0.5651223063468933
1772648326805242000,4.4302421875,-0.11398319900035858,-0.1189100444316864,0.7728486657142639
1772648326815246800,4.440246826171875,-0.10918951034545898,-0.05446159839630127,0.9193224310874939
1772648326825251600,4.45025146484375,-0.11877688020467758,-0.04274369776248932,0.8889623880386353
1772648326835256800,4.4602568359375,-0.16618111729621887,-0.14447636902332306,0.6743118166923523
1772648326845262000,4.470261962890625,-0.2695116698741913,-0.14181320369243622,0.40320223569869995
1772648326855267300,4.480267333984375,-0.3350253701210022,-0.08535423874855042,0.2540653645992279
1772648326875277600,4.500277587890625,-0.18109479546546936,0.021172111853957176,0.19121479988098145
1772648326885282800,4.51028271484375,-0.059654757380485535,0.0744352862238884,0.07936213165521622
1772648326895288000,4.5202880859375,-0.012783162295818329,0.2017342746257782,-0.07350318133831024
1772648326905293000,4.53029296875,0.055926334112882614,0.2970753610134125,-0.20666112005710602
1772648326915298300,4.54029833984375,0.13315793871879578,0.301336407661438,-0.27696850895881653
1772648326925303600,4.550303466796875,0.23489060997962952,0.22889849543571472,-0.2966758906841278
1772648326935308800,4.560308837890625,0.3387537896633148,0.1591237336397171,-0.2822948396205902
1772648326945314000,4.57031396484375,0.41651803255081177,0.13675320148468018,-0.25726112723350525
1772648326955319000,4.580319091796875,0.47777068614959717,0.15113426744937897,-0.22423797845840454
1772648326965324300,4.59032421875,0.5060001611709595,0.21238692104816437,-0.1842905879020691
1772648326975329500,4.60032958984375,0.49747806787490845,0.2533995509147644,-0.1363537311553955
1772648326985334800,4.610334716796875,0.5058670043945312,0.2763027250766754,-0.08681897819042206
1772648326995339800,4.62033984375,0.5186501741409302,0.26032376289367676,-0.066046342253685
1772648327005345000,4.630344970703125,0.5330312252044678,0.25979113578796387,-0.09054739773273468
1772648327015350300,4.640350341796875,0.5154544115066528,0.2390184998512268,-0.15286532044410706
1772648327025355500,4.65035546875,0.44940805435180664,0.18469005823135376,-0.23808640241622925
1772648327035360500,4.660360595703125,0.3657848536968231,0.06378265470266342,-0.3249053657054901
1772648327045365800,4.67036572265625,0.2581932544708252,-0.08375634253025055,-0.38988643884658813
1772648327055371000,4.68037109375,0.15273216366767883,-0.25260061025619507,-0.44581279158592224
1772648327065375500,4.69037548828125,0.028628956526517868,-0.4006722569465637,-0.47777068614959717
1772648327075380000,4.7003798828125,-0.08855003118515015,-0.492284893989563,-0.4942822754383087
1772648327085384200,4.71038427734375,-0.17217321693897247,-0.5407543778419495,-0.5017391443252563
1772648327095388400,4.720388427734375,-0.22809955477714539,-0.53436279296875,-0.4857601523399353
1772648327105393000,4.730392822265625,-0.2462090253829956,-0.5066659450531006,-0.44634541869163513
1772648327115397400,4.7403974609375,-0.24727429449558258,-0.4672512114048004,-0.39787593483924866
1772648327125401600,4.750401611328125,-0.22064270079135895,-0.4294343590736389,-0.35047170519828796
1772648327135406000,4.760406005859375,-0.17803215980529785,-0.38575854897499084,-0.3115895688533783
1772648327145410300,4.770410400390625,-0.10879004001617432,-0.3500722348690033,-0.27590325474739075
1772648327155414800,4.780414794921875,-0.02516685053706169,-0.27603641152381897,-0.2535327076911926
1772648327165419000,4.7904189453125,0.054727911949157715,-0.24567639827728271,-0.24714113771915436
1772648327175423500,4.800423583984375,0.14261215925216675,-0.19347849488258362,-0.26525062322616577
1772648327185427700,4.810427734375,0.22410480678081512,-0.17270584404468536,-0.3009369373321533
1772648327195432200,4.82043212890625,0.2965427339076996,-0.14128057658672333,-0.3440801203250885
1772648327205436700,4.830436767578125,0.3476753830909729,-0.1290300488471985,-0.38349485397338867
1772648327215441000,4.84044091796875,0.3865574896335602,-0.12210582941770554,-0.40799593925476074
1772648327225445400,4.8504453125,0.3753722310066223,-0.16791217029094696,-0.42610540986061096
1772648327235449600,4.86044970703125,0.35459959506988525,-0.20626164972782135,-0.4324969947338104
1772648327245454000,4.8704541015625,0.3583280146121979,-0.21904481947422028,-0.43569278717041016
1772648327255458300,4.880458251953125,0.34980592131614685,-0.19347849488258362,-0.4202464520931244
1772648327265462800,4.890462890625,0.32756853103637695,-0.16951005160808563,-0.3962780237197876
1772648327275467000,4.900467041015625,0.32863378524780273,-0.14181320369243622,-0.3723095953464508
1772648327285471500,4.910471435546875,0.32703590393066406,-0.10080055892467499,-0.35579800605773926
1772648327295475700,4.920475830078125,0.32756853103637695,-0.0864195004105568,-0.33715590834617615
1772648327305480200,4.930480224609375,0.3243727385997772,-0.08322371542453766,-0.3121222257614136
1772648327315484700,4.940484619140625,0.30945906043052673,-0.08002792298793793,-0.2780337929725647
1772648327325489000,4.950489013671875,0.29827380180358887,-0.08482161164283752,-0.2306295484304428
1772648327335493400,4.960493408203125,0.2817622125148773,-0.08535423874855042,-0.18642111122608185
1772648327345497600,4.97049755859375,0.2817622125148773,-0.07257107645273209,-0.15020215511322021
1772648327355502000,4.980502197265625,0.27110958099365234,-0.07044055312871933,-0.12144003808498383
1772648327365506300,4.99050634765625,0.28016430139541626,-0.052331071346998215,-0.0990695059299469
1772648327375510800,5.0005107421875,0.295610636472702,-0.048070017248392105,-0.09001477062702179
1772648327385515300,5.010515380859375,0.3014695644378662,-0.007057370617985725,-0.1081242486834526
1772648327395519500,5.02051953125,0.30040431022644043,0.012117372825741768,-0.12623372673988342
1772648327405524000,5.03052392578125,0.29081693291664124,0.030759483575820923,-0.13795162737369537
1772648327415528200,5.040528076171875,0.2881537973880768,0.050466857850551605,-0.15712636709213257
1772648327425532700,5.05053271484375,0.26418536901474,0.05153212323784828,-0.16138742864131927
1772648327435537000,5.060536865234375,0.2583264112472534,0.02436790242791176,-0.15712636709213257
1772648327445541400,5.070541259765625,0.24394534528255463,-0.040080539882183075,-0.15819163620471954
1772648327455545600,5.080545654296875,0.24234744906425476,-0.06777739524841309,-0.16884426772594452
1772648327465550000,5.090550048828125,0.20919112861156464,-0.12743215262889862,-0.1560611128807068
1772648327475554300,5.10055419921875,0.17510269582271576,-0.22490376234054565,-0.11451582610607147
1772648327485558800,5.110558837890625,0.16658058762550354,-0.2504700720310211,-0.10066740214824677
1772648327495563000,5.12056298828125,0.12290477752685547,-0.22809955477714539,-0.10226529836654663
1772648327515572000,5.140572021484375,0.004660528153181076,0.0014647373463958502,-0.10546109080314636
1772648327535580700,5.16058056640625,-0.15779216587543488,0.3253048360347748,-0.1747032105922699
1772648327545585000,5.1705849609375,-0.22543638944625854,0.45899543166160583,-0.20026955008506775
1772648327555589400,5.18058935546875,-0.3042658865451813,0.4946817457675934,-0.1794968992471695
1772648327565594000,5.190593994140625,-0.3553985357284546,0.4467448890209198,-0.09693898260593414
1772648327575599000,5.20059912109375,-0.4075964689254761,0.23529008030891418,0.01012000348418951
1772648327585604000,5.21060400390625,-0.4544680416584015,-0.024101587012410164,0.1225053071975708
1772648327595609300,5.220609375,-0.49494805932044983,-0.21425113081932068,0.20186743140220642
1772648327605614300,5.2306142578125,-0.5274385809898376,-0.35699644684791565,0.22370533645153046
1772648327615619300,5.240619384765625,-0.5854954719543457,-0.44221752882003784,0.21997691690921783
1772648327625624300,5.250624267578125,-0.6515418291091919,-0.5396891236305237,0.24607586860656738
1772648327635629300,5.26062939453125,-0.7010765671730042,-0.5833649635314941,0.2870885133743286
1772648327645634300,5.27063427734375,-0.6914891600608826,-0.5668533444404602,0.3392864465713501
1772648327655639300,5.280639404296875,-0.7202513217926025,-0.6163880825042725,0.4538022577762604
1772648327665644300,5.290644287109375,-0.7110633850097656,-0.7048049569129944,0.5576654672622681
1772648327675649300,5.300649169921875,-0.6045370697975159,-0.7223818302154541,0.5896233320236206
1772648327685654300,5.310654296875,-0.46498751640319824,-0.7000113129615784,0.5150549411773682
1772648327695659300,5.3206591796875,-0.33289486169815063,-0.6073333621025085,0.38189697265625
1772648327705664300,5.330664306640625,-0.22849902510643005,-0.5061333179473877,0.24394534528255463
1772648327715669200,5.340669189453125,-0.15872426331043243,-0.3543332815170288,0.13901689648628235
1772648327725674200,5.35067431640625,-0.1267663538455963,-0.18229322135448456,0.13315793871879578
1772648327735679200,5.36067919921875,-0.10599371790885925,-0.010785792954266071,0.2311621904373169
1772648327745684200,5.370684326171875,-0.09693898260593414,0.11544793099164963,0.37497276067733765
1772648327755689200,5.380689208984375,-0.12090741097927094,0.17403742671012878,0.48789069056510925
1772648327765694200,5.390694091796875,-0.1555284708738327,0.22623534500598907,0.5496760010719299
1772648327775699200,5.40069921875,-0.19547586143016815,0.2480732500553131,0.5587307214736938
1772648327785704200,5.4107041015625,-0.23915165662765503,0.27417218685150146,0.5395559668540955
1772648327795709200,5.420709228515625,-0.2775011360645294,0.3141195774078369,0.4953475296497345
1772648327805714400,5.43071435546875,-0.3158506453037262,0.3673827648162842,0.4538022577762604
1772648327815719400,5.440719482421875,-0.34194958209991455,0.45473435521125793,0.44155174493789673
1772648327825724400,5.450724365234375,-0.34088432788848877,0.5271722674369812,0.4628570079803467
1772648327835729400,5.4607294921875,-0.3195790648460388,0.5905554890632629,0.4942822754383087
1772648327845734400,5.470734375,-0.2886864244937897,0.6209154725074768,0.5102612376213074
1772648327855739400,5.480739501953125,-0.24873903393745422,0.6347638964653015,0.48682543635368347
1772648327865744400,5.490744384765625,-0.207726389169693,0.6150565147399902,0.44101908802986145
1772648327875749400,5.500749267578125,-0.164583221077919,0.5639238953590393,0.3866906464099884
1772648327885754400,5.51075439453125,-0.12303793430328369,0.48189857602119446,0.3344927430152893
1772648327895759400,5.52075927734375,-0.0942758247256279,0.370045930147171,0.2881537973880768
1772648327905764400,5.530764404296875,-0.07297055423259735,0.24008376896381378,0.24927166104316711
1772648327915769300,5.540769287109375,-0.035153694450855255,0.12929636240005493,0.20080217719078064
1772648327925774300,5.5507744140625,-0.010652635246515274,0.07816371321678162,0.12836425006389618
1772648327935779300,5.560779296875,0.01704421639442444,0.08135949820280075,0.04048001393675804
1772648327945784300,5.570784423828125,0.04154527932405472,0.1255679428577423,-0.06551370769739151
1772648327955789300,5.580789306640625,0.03568632900714874,0.17243953049182892,-0.17204006016254425
1772648327965794300,5.590794189453125,0.03728422522544861,0.22730059921741486,-0.26525062322616577
1772648327975799300,5.60079931640625,0.035153694450855255,0.25553008913993835,-0.3344927430152893
1772648327985804300,5.61080419921875,0.04101264476776123,0.28908589482307434,-0.37390750646591187
1772648327995809300,5.620809326171875,0.046871595084667206,0.3279680013656616,-0.3808317184448242
1772648328005814300,5.630814208984375,0.05273054540157318,0.3572627604007721,-0.3573959171772003
1772648328015819300,5.6408193359375,0.05326317623257637,0.3492732644081116,-0.30040431022644043
1772648328025824300,5.65082421875,0.04420843720436096,0.3141195774078369,-0.23009692132472992
1772648328035829200,5.660829345703125,0.042477384209632874,0.2624543011188507,-0.17044216394424438
1772648328045834500,5.67083447265625,0.02330263890326023,0.20226691663265228,-0.11078740656375885
1772648328055839500,5.680839599609375,-0.031025800853967667,0.17457005381584167,-0.0564589649438858
1772648328065844000,5.690843994140625,-0.07896266132593155,0.1782984882593155,-0.014913689345121384
1772648328075848400,5.700848388671875,-0.12530162930488586,0.22197428345680237,0.02450106106698513
1772648328085853000,5.71085302734375,-0.13595426082611084,0.29441219568252563,0.06178528442978859
1772648328095857400,5.720857421875,-0.11518161743879318,0.3711111843585968,0.07403581589460373
1772648328105862000,5.73086181640625,-0.10612688213586807,0.4099932909011841,0.07350318133831024
1772648328115866600,5.74086669921875,-0.10612688213586807,0.40573224425315857,0.11132004112005234
1772648328125871000,5.75087109375,-0.0720384493470192,0.3482080101966858,0.16724637150764465
1772648328135875600,5.76087548828125,-0.07470160722732544,0.26032376289367676,0.2455432415008545
1772648328145880000,5.770880126953125,-0.07150581479072571,0.2017342746257782,0.3808317184448242
1772648328155884500,5.780884521484375,-0.12423636019229889,0.04940159618854523,0.5235770344734192
1772648328165889000,5.790888916015625,-0.1854890137910843,-0.07789739221334457,0.6332991719245911
1772648328175893500,5.8008935546875,-0.22596903145313263,-0.11305109411478043,0.7350318431854248
1772648328185898200,5.810898193359375,-0.23023007810115814,-0.07470160722732544,0.7680550217628479
1772648328195902700,5.82090283203125,-0.2611227333545685,-0.08162581920623779,0.7036065459251404
1772648328205907200,5.8309072265625,-0.2552637755870819,-0.15086795389652252,0.5592633485794067
1772648328215911700,5.84091162109375,-0.27603641152381897,-0.14607426524162292,0.38029909133911133
1772648328225916200,5.850916259765625,-0.25313323736190796,-0.1279647797346115,0.2535327076911926
1772648328235920600,5.860920654296875,-0.13009530305862427,-0.11251845955848694,0.16351795196533203
1772648328245925000,5.870925048828125,-0.004926843568682671,-0.07843002676963806,0.06764423102140427
1772648328255929600,5.8809296875,0.045673172920942307,0.038216330111026764,-0.04207791015505791
1772648328265934300,5.890934326171875,0.11930951476097107,0.17563532292842865,-0.13422320783138275
1772648328275938800,5.900938720703125,0.19707375764846802,0.23742060363292694,-0.19228006899356842
1772648328285943300,5.910943359375,0.2636527121067047,0.15752583742141724,-0.21411797404289246
1772648328295947800,5.92094775390625,0.3158506453037262,0.046205803751945496,-0.20026955008506775
1772648328305952300,5.9309521484375,0.3526022136211395,0.04407527670264244,-0.17097479104995728
1772648328315956700,5.940956787109375,0.37923380732536316,0.11012161523103714,-0.13262531161308289
1772648328325961200,5.950961181640625,0.39947381615638733,0.1868205964565277,-0.09480845183134079
1772648328335966000,5.960966064453125,0.4330296218395233,0.23688797652721405,-0.08255792409181595
1772648328345970400,5.970970458984375,0.47350963950157166,0.24647535383701324,-0.08202528953552246
1772648328355975000,5.980974853515625,0.5012065172195435,0.2107890248298645,-0.0942758247256279
1772648328365979400,5.9909794921875,0.5278380513191223,0.19481006264686584,-0.13475583493709564
1772648328375983900,6.00098388671875,0.5443496704101562,0.19853848218917847,-0.2125200778245926
1772648328385988400,6.01098828125,0.5374254584312439,0.1596563756465912,-0.30413272976875305
1772648328395992800,6.020992919921875,0.5086633563041687,0.06325002014636993,-0.3856253921985626
1772648328405997600,6.03099755859375,0.4660528004169464,-0.044874224811792374,-0.44101908802986145
1772648328416002000,6.041001953125,0.39840856194496155,-0.15406373143196106,-0.4719117283821106
1772648328426006500,6.051006591796875,0.30306747555732727,-0.26804694533348083,-0.491086483001709
1772648328436011000,6.061010986328125,0.1928126960992813,-0.3841606676578522,-0.5001412034034729
1772648328446015500,6.071015380859375,0.07882949709892273,-0.46618595719337463,-0.5091959834098816
1772648328456020000,6.08102001953125,-0.021837901324033737,-0.5013396739959717,-0.49641281366348267
1772648328466024400,6.0910244140625,-0.09334371984004974,-0.4901543855667114,-0.4628570079803467
1772648328476029200,6.101029296875,-0.13488899171352386,-0.47044700384140015,-0.41225698590278625
1772648328486033700,6.11103369140625,-0.14341109991073608,-0.43689119815826416,-0.37444013357162476
1772648328496038100,6.1210380859375,-0.12210582941770554,-0.39374804496765137,-0.34141695499420166
1772648328506042600,6.131042724609375,-0.08855003118515015,-0.33888694643974304,-0.31798115372657776
1772648328516047000,6.141047119140625,-0.04221106693148613,-0.2898848354816437,-0.28921905159950256
1772648328526051600,6.151051513671875,0.024900535121560097,-0.23608903586864471,-0.2636527121067047
1772648328536056000,6.16105615234375,0.1026647686958313,-0.19241322576999664,-0.24607586860656738
1772648328546060500,6.171060546875,0.1782984882593155,-0.14927005767822266,-0.24873903393745422
1772648328556065300,6.181065185546875,0.248605877161026,-0.12263846397399902,-0.2721748352050781
1772648328566070000,6.191070068359375,0.3050648272037506,-0.08695213496685028,-0.30413272976875305
1772648328576075300,6.2010751953125,0.3343595862388611,-0.0576573871076107,-0.325437992811203
1772648328586080300,6.211080322265625,0.34501221776008606,-0.048602648079395294,-0.3344927430152893
1772648328596085200,6.221085205078125,0.3519364297389984,-0.032091062515974045,-0.33768853545188904
1772648328606090200,6.23109033203125,0.36471959948539734,0.004127896390855312,-0.3387537896633148
1772648328616095500,6.241095458984375,0.3524690568447113,0.013715268112719059,-0.3430148661136627
1772648328626100500,6.2511005859375,0.3609911799430847,0.021704744547605515,-0.3350253701210022
1772648328636105500,6.26110546875,0.36898064613342285,0.06751107424497604,-0.32277485728263855
1772648328646110500,6.2711103515625,0.38815540075302124,0.08082687109708786,-0.30466535687446594
1772648328656115500,6.281115478515625,0.40147119760513306,0.0696416050195694,-0.28549063205718994
1772648328666120700,6.29112060546875,0.4089280366897583,0.0648479163646698,-0.2732400894165039
1772648328676125700,6.301125732421875,0.4195806682109833,0.05579317733645439,-0.26258745789527893
1772648328686130700,6.311130615234375,0.4078627824783325,0.008388950489461422,-0.24767376482486725
1772648328696135700,6.3211357421875,0.39721015095710754,-0.014514215290546417,-0.2210421860218048
1772648328706140700,6.331140625,0.38868802785873413,-0.05712475627660751,-0.1837579607963562
1772648328716146000,6.34114599609375,0.3668501377105713,-0.1050616130232811,-0.13954952359199524
1772648328726151000,6.35115087890625,0.34021854400634766,-0.14607426524162292,-0.09800424426794052
1772648328736156000,6.361156005859375,0.315717488527298,-0.1711079478263855,-0.05805686116218567
1772648328746161000,6.371160888671875,0.2816290557384491,-0.20785954594612122,-0.0282294824719429
1772648328756166100,6.381166259765625,0.24541008472442627,-0.22969745099544525,-0.01438105758279562
1772648328766171100,6.391171142578125,0.21505007147789001,-0.26378586888313293,-0.017576847225427628
1772648328776176000,6.401176025390625,0.19853848218917847,-0.2605900764465332,-0.051665280014276505
1772648328786181000,6.41118115234375,0.18149426579475403,-0.21638165414333344,-0.09161266684532166
1772648328796186400,6.421186279296875,0.17563532292842865,-0.19560901820659637,-0.12889689207077026
1772648328806191400,6.43119140625,0.150068998336792,-0.21212059259414673,-0.14274531602859497
1772648328816196400,6.4411962890625,0.11385004222393036,-0.24354587495326996,-0.13422320783138275
1772648328826201300,6.451201416015625,0.045673172920942307,-0.3037332594394684,-0.0942758247256279
1772648328836206300,6.461206298828125,-0.022503692656755447,-0.35167011618614197,-0.06444844603538513
1772648328846211600,6.471211669921875,-0.10932266712188721,-0.3266364336013794,-0.066046342253685
1772648328856216600,6.481216552734375,-0.20732691884040833,-0.23555639386177063,-0.07616633921861649
1772648328866221600,6.4912216796875,-0.3170490562915802,-0.08375634253025055,-0.08255792409181595
1772648328876226600,6.5012265625,-0.4214448928833008,0.11331740766763687,-0.1081242486834526
1772648328886231600,6.5112314453125,-0.5332975387573242,0.3327617049217224,-0.1512674242258072
1772648328896236800,6.52123681640625,-0.621048629283905,0.4930838644504547,-0.16298532485961914
1772648328906241800,6.53124169921875,-0.688160240650177,0.5495428442955017,-0.10333056002855301
1772648328916246800,6.541246826171875,-0.7270423769950867,0.4882901608943939,0.00852210819721222
1772648328926251800,6.551251708984375,-0.7456844449043274,0.31252169609069824,0.1315600425004959
1772648328936257000,6.561257080078125,-0.7648591995239258,0.03235737979412079,0.25726112723350525
1772648328946262000,6.571261962890625,-0.7808381915092468,-0.2179795503616333,0.3568632900714874
1772648328956267000,6.58126708984375,-0.7669897079467773,-0.33728906512260437,0.392549604177475
1772648328966272000,6.59127197265625,-0.7792402505874634,-0.3692469596862793,0.4000064432621002
1772648328976277000,6.601277099609375,-0.805871844291687,-0.4411522448062897,0.42290961742401123
1772648328986282200,6.6112822265625,-0.8319708108901978,-0.5141227841377258,0.4628570079803467
1772648328996287200,6.621287353515625,-0.8399602770805359,-0.605202853679657,0.5225117802619934
1772648329006292200,6.631292236328125,-0.7840339541435242,-0.6877607703208923,0.5715138912200928
1772648329016297200,6.641297119140625,-0.6535391807556152,-0.7367628812789917,0.5922865271568298
1772648329026302500,6.651302490234375,-0.49321702122688293,-0.735164999961853,0.5257075428962708
1772648329036307500,6.661307373046875,-0.33715590834617615,-0.6249102354049683,0.38509276509284973
1772648329046312400,6.6713125,-0.19494321942329407,-0.450206995010376,0.24288007616996765
1772648329056317400,6.6813173828125,-0.09001477062702179,-0.2605900764465332,0.14966952800750732
1772648329066322200,6.691322265625,-0.03142527490854263,-0.09334371984004974,0.1272989958524704
1772648329076326700,6.70132666015625,-0.003728422336280346,0.07550055533647537,0.1794968992471695
1772648329086331400,6.711331298828125,-0.047404225915670395,0.17084163427352905,0.27110958099365234
1772648329096336000,6.7213359375,-0.07669897377490997,0.2209090292453766,0.3547327518463135
1772648329106340400,6.73134033203125,-0.10918951034545898,0.28855326771736145,0.4106590747833252
1772648329116345000,6.741344970703125,-0.14008215069770813,0.32637012004852295,0.43089908361434937
1772648329126349600,6.751349609375,-0.15819163620471954,0.32583749294281006,0.42237699031829834
1772648329136354300,6.761354248046875,-0.1837579607963562,0.3327617049217224,0.3952127695083618
1772648329146358800,6.77135888671875,-0.20612849295139313,0.3386206328868866,0.37497276067733765
1772648329156363500,6.781363525390625,-0.21784639358520508,0.3988080322742462,0.38509276509284973
1772648329166368000,6.791367919921875,-0.20666112005710602,0.4850943684577942,0.41225698590278625
1772648329176372500,6.80137255859375,-0.19121479988098145,0.5351617336273193,0.43622541427612305
1772648329186377200,6.811377197265625,-0.16724637150764465,0.5250417590141296,0.4303664565086365
1772648329196381700,6.821381591796875,-0.14061477780342102,0.5223786234855652,0.41278961300849915
1772648329206386400,6.831386474609375,-0.11664635688066483,0.49042069911956787,0.3728422224521637
1772648329216391000,6.841390869140625,-0.09587371349334717,0.43449434638023376,0.3249053657054901
1772648329226395600,6.851395751953125,-0.07936213165521622,0.366317480802536,0.27483800053596497
1772648329236400000,6.861400146484375,-0.06178528442978859,0.2917490601539612,0.22423797845840454
1772648329246404900,6.87140478515625,-0.04527369886636734,0.2113216519355774,0.16298532485961914
1772648329256409300,6.881409423828125,-0.02024000696837902,0.1442100554704666,0.08894950151443481
1772648329266414000,6.8914140625,0.01105210930109024,0.12450267374515533,0.004793685860931873
1772648329276418600,6.90141845703125,0.021172111853957176,0.1351553052663803,-0.08309055864810944
1772648329286423000,6.911423095703125,0.021704744547605515,0.14580795168876648,-0.16724637150764465
1772648329296427800,6.921427734375,0.025433165952563286,0.15166689455509186,-0.2354232370853424
1772648329306432300,6.931432373046875,0.03342264145612717,0.1639174222946167,-0.28122955560684204
1772648329316437000,6.94143701171875,0.050466857850551605,0.17670059204101562,-0.2977411448955536
1772648329326441500,6.95144140625,0.06644581258296967,0.1969406008720398,-0.29880642890930176
1772648329336446200,6.9614462890625,0.08721844851970673,0.23102903366088867,-0.29401272535324097
1772648329346450700,6.97145068359375,0.09946898370981216,0.2635195553302765,-0.3009369373321533
1772648329356455400,6.981455322265625,0.09627319127321243,0.2768353521823883,-0.3115895688533783
1772648329366460000,6.9914599609375,0.07230476289987564,0.2613890469074249,-0.31318747997283936
1772648329376464400,7.00146435546875,0.04301001504063606,0.2629869282245636,-0.2828274667263031
1772648329386469000,7.01146923828125,0.0003994738217443228,0.3061301112174988,-0.22264008224010468
1772648329396473600,7.0214736328125,-0.027830010280013084,0.34554484486579895,-0.16405057907104492
1772648329406478300,7.031478271484375,-0.06138581037521362,0.389220654964447,-0.09374319016933441
1772648329416482800,7.04148291015625,-0.07576686888933182,0.43502700328826904,-0.011185267008841038
1772648329426487600,7.051487548828125,-0.08375634253025055,0.4222438335418701,0.06711160391569138
1772648329436492000,7.061491943359375,-0.0906805545091629,0.36791539192199707,0.13102741539478302
1772648329446496500,7.07149658203125,-0.08002792298793793,0.27896589040756226,0.17257268726825714
1772648329456501200,7.081501220703125,-0.07949528843164444,0.17190690338611603,0.18588848412036896
1772648329466505700,7.091505615234375,-0.08855003118515015,0.09467529505491257,0.20559586584568024
1772648329476510500,7.101510498046875,-0.09760477393865585,0.038216330111026764,0.24873903393745422
1772648329486515000,7.111514892578125,-0.09920266270637512,-0.020373165607452393,0.32277485728263855
1772648329496519700,7.121519775390625,-0.10239845514297485,-0.027297377586364746,0.41758328676223755
1772648329506524200,7.131524169921875,-0.12423636019229889,-0.05819002166390419,0.5113264918327332
1772648329516529000,7.14152880859375,-0.15406373143196106,0.0003994738217443228,0.5997433662414551
1772648329536537900,7.161537841796875,-0.19347849488258362,0.1026647686958313,0.8202528953552246
1772648329546542600,7.17154248046875,-0.22490376234054565,0.041944749653339386,0.7291728854179382
1772648329556547000,7.181547119140625,-0.24514377117156982,-0.05020054429769516,0.4713791012763977
1772648329566552000,7.191552001953125,-0.17963005602359772,-0.044341593980789185,0.21465060114860535
1772648329576557000,7.20155712890625,-0.1476721614599228,-0.018242638558149338,0.1038631945848465
1772648329586562000,7.21156201171875,-0.10932266712188721,-0.044874224811792374,0.13369056582450867
1772648329596567000,7.221567138671875,-0.03262369707226753,-0.048602648079395294,0.1459411084651947
1772648329606572000,7.231572021484375,-0.031025800853967667,0.014247899875044823,0.06391581147909164
1772648329616577000,7.241576904296875,-0.03315632790327072,0.12503530085086823,-0.04474106803536415
1772648329626582000,7.25158203125,-0.027830010280013084,0.17190690338611603,-0.14700636267662048
1772648329636587000,7.2615869140625,-0.008122634142637253,0.14687320590019226,-0.2119874358177185
1772648329646592000,7.271592041015625,0.04460791125893593,0.04673843830823898,-0.22956429421901703
1772648329656597000,7.281596923828125,0.09467529505491257,-0.044874224811792374,-0.20612849295139313
1772648329666602000,7.29160205078125,0.1411474198102951,-0.039547909051179886,-0.12996214628219604
1772648329676607000,7.30160693359375,0.2359558641910553,0.06591317802667618,-0.03728422522544861
1772648329686611700,7.31161181640625,0.2929474711418152,0.225702702999115,0.050600018352270126
1772648329696616700,7.32161669921875,0.329166442155838,0.3391532599925995,0.08522108197212219
1772648329706621700,7.33162158203125,0.3579285442829132,0.36471959948539734,0.08096002787351608
1772648329716627000,7.341626953125,0.3669832944869995,0.35033854842185974,0.054861072450876236
1772648329726631700,7.351631591796875,0.38828855752944946,0.3146522045135498,-0.00852210819721222
1772648329736636700,7.36163671875,0.4250401556491852,0.23795324563980103,-0.11025477200746536
1772648329746641700,7.3716416015625,0.46392226219177246,0.14847110211849213,-0.22903165221214294
1772648329756646700,7.381646728515625,0.46978121995925903,0.06857633590698242,-0.33715590834617615
1772648329766651600,7.391651611328125,0.4426169991493225,-0.008122634142637253,-0.44155174493789673
1772648329776656600,7.40165673828125,0.36059170961380005,-0.09440898150205612,-0.5289033651351929
1772648329786661600,7.41166162109375,0.26525062322616577,-0.1945437490940094,-0.5965476036071777
1772648329796666600,7.42166650390625,0.15872426331043243,-0.27177536487579346,-0.6258423328399658
1772648329806671600,7.431671630859375,0.039414748549461365,-0.3165164291858673,-0.6151896715164185
1772648329816676600,7.441676513671875,-0.06924212723970413,-0.3255711793899536,-0.5550022721290588
1772648329826681600,7.451681640625,-0.1422126740217209,-0.3122553825378418,-0.457530677318573
1772648329836686600,7.4616865234375,-0.16831164062023163,-0.273905873298645,-0.34727591276168823
1772648329846691600,7.471691650390625,-0.15339794754981995,-0.21478375792503357,-0.24714113771915436
1772648329856696600,7.481696533203125,-0.11504846066236496,-0.13488899171352386,-0.1656484752893448
1772648329866701600,7.49170166015625,-0.052863702178001404,-0.027297377586364746,-0.11877688020467758
1772648329876706600,7.50170654296875,0.02756369300186634,0.08082687109708786,-0.10492845624685287
1772648329886711600,7.511711669921875,0.10532793402671814,0.13835109770298004,-0.12357056885957718
1772648329896716500,7.521716552734375,0.19108164310455322,0.1639174222946167,-0.1784316450357437
1772648329906721500,7.531721435546875,0.2613890469074249,0.16231952607631683,-0.2721748352050781
1772648329916726500,7.5417265625,0.3002711534500122,0.1213068813085556,-0.36432012915611267
1772648329926731500,7.5517314453125,0.3008037805557251,0.04673843830823898,-0.40320223569869995
1772648329936736500,7.561736572265625,0.2874879837036133,-0.028362641111016273,-0.4063980281352997
1772648329946741500,7.571741455078125,0.26618272066116333,-0.09387634694576263,-0.4000064432621002
1772648329956746500,7.58174658203125,0.2432795614004135,-0.14660689234733582,-0.4016043543815613
1772648329966751500,7.59175146484375,0.22410480678081512,-0.1801626980304718,-0.3968106508255005
1772648329976756500,7.601756591796875,0.21664796769618988,-0.19560901820659637,-0.38349485397338867
1772648329986761500,7.611761474609375,0.2198437601327896,-0.19188059866428375,-0.36059170961380005
1772648329996766500,7.621766357421875,0.24221429228782654,-0.19560901820659637,-0.3249053657054901
1772648330006771500,7.631771484375,0.27896589040756226,-0.19188059866428375,-0.28549063205718994
1772648330016776400,7.6417763671875,0.3061301112174988,-0.20519638061523438,-0.25140219926834106
1772648330026781400,7.651781494140625,0.33116379380226135,-0.231827974319458,-0.21092218160629272
1772648330036786400,7.661786376953125,0.3514038026332855,-0.25899219512939453,-0.1747032105922699
1772648330046791400,7.67179150390625,0.36365434527397156,-0.2792322039604187,-0.13369056582450867
1772648330056796400,7.68179638671875,0.370045930147171,-0.30107009410858154,-0.09001477062702179
1772648330066800600,7.691800537109375,0.36844801902770996,-0.3213101029396057,-0.050600018352270126
1772648330076804900,7.701804931640625,0.3620564341545105,-0.33462589979171753,-0.013848425820469856
1772648330086809000,7.71180908203125,0.35459959506988525,-0.341017484664917,0.017576847225427628
1772648330096813300,7.721813232421875,0.3451453745365143,-0.34687644243240356,0.030360009521245956
1772648330106817800,7.73181787109375,0.325437992811203,-0.3308974802494049,0.023435797542333603
1772648330116822000,7.741822021484375,0.2881537973880768,-0.32024484872817993,0.0010652635246515274
1772648330126826200,7.751826171875,0.25300008058547974,-0.27763429284095764,-0.026631588116288185
1772648330136830500,7.76183056640625,0.23169481754302979,-0.21052271127700806,-0.06551370769739151
1772648330146835000,7.7718349609375,0.20612849295139313,-0.17323848605155945,-0.08788423985242844
1772648330156839200,7.781839111328125,0.174170583486557,-0.14820478856563568,-0.08415582031011581
1772648330166843400,7.791843505859375,0.1315600425004959,-0.14341109991073608,-0.03834948688745499
1772648330176847600,7.80184765625,0.08522108197212219,-0.15885742008686066,0.0282294824719429
1772648330186852000,7.81185205078125,0.03195790573954582,-0.18176059424877167,0.04953475296497345
1772648330196856300,7.821856201171875,-0.026631588116288185,-0.18815216422080994,0.04154527932405472
1772648330206860500,7.831860595703125,-0.10066740214824677,-0.16418373584747314,0.04953475296497345
1772648330216864800,7.84186474609375,-0.18482321500778198,-0.11038793623447418,0.08522108197212219
1772648330226869200,7.851869140625,-0.26631587743759155,0.00519315991550684,0.12144003808498383
1772648330236873500,7.86187353515625,-0.3595264256000519,0.14580795168876648,0.12037477642297745
1772648330246877700,7.871877685546875,-0.4655201733112335,0.1873532235622406,0.10120003670454025
1772648330256882000,7.8818818359375,-0.5725791454315186,0.14367741346359253,0.1086568832397461
1772648330266886400,7.891886474609375,-0.668586015701294,0.03342264145612717,0.1656484752893448
1772648330276890600,7.901890625,-0.7570028901100159,-0.19667427241802216,0.25300008058547974
1772648330286894800,7.911894775390625,-0.8326365947723389,-0.47577333450317383,0.3350253701210022
1772648330296899000,7.921899169921875,-0.8869650363922119,-0.7346323728561401,0.40213698148727417
1772648330306903600,7.931903564453125,-0.886432409286499,-0.999350368976593,0.4564654231071472
1772648330316907800,7.94190771484375,-0.8534092307090759,-1.213468313217163,0.4852275252342224
1772648330326912000,7.951912109375,-0.8033418655395508,-1.370061993598938,0.49215173721313477
1772648330336916200,7.961916259765625,-0.7404913306236267,-1.3705947399139404,0.46978121995925903
1772648330346920400,7.97192041015625,-0.6334323287010193,-1.239034652709961,0.3952127695083618
1772648330356925000,7.981925048828125,-0.5114596486091614,-1.0829734802246094,0.28602325916290283
1772648330366929200,7.99192919921875,-0.3916175067424774,-0.9167923927307129,0.17257268726825714
1772648330376933400,8.001933349609375,-0.30107009410858154,-0.7703186869621277,0.09374319016933441
1772648330386937900,8.011937744140624,-0.22437113523483276,-0.6115944385528564,0.06338317692279816
1772648330396942000,8.021942138671875,-0.17430374026298523,-0.43316277861595154,0.06924212723970413
1772648330406946300,8.0319462890625,-0.15086795389652252,-0.29947221279144287,0.09267792850732803
1772648330416950500,8.041950439453124,-0.14980268478393555,-0.16791217029094696,0.12516845762729645
1772648330426955000,8.051955078125,-0.18868480622768402,-0.09813740104436874,0.14753900468349457
1772648330436959200,8.061959228515626,-0.2227732390165329,-0.032091062515974045,0.13848425447940826
1772648330446963500,8.07196337890625,-0.26751428842544556,0.05632580816745758,0.10599371790885925
1772648330456967700,8.0819677734375,-0.30000483989715576,0.14847110211849213,0.08788423985242844
1772648330466972000,8.091971923828124,-0.32823431491851807,0.2629869282245636,0.09640634804964066
1772648330476976400,8.101976318359375,-0.33462589979171753,0.3290332853794098,0.141680046916008
1772648330486980600,8.111980712890626,-0.34314802289009094,0.3668501377105713,0.2119874358177185
1772648330496984800,8.12198486328125,-0.3543332815170288,0.3759048581123352,0.28549063205718994
1772648330506989000,8.131989013671875,-0.3458111584186554,0.36898064613342285,0.3334274888038635
1772648330526997800,8.151997802734375,-0.2850911617279053,0.37803539633750916,0.3339601159095764
1772648330537002000,8.162001953125,-0.2371542900800705,0.3519364297389984,0.29933905601501465
1772648330547006500,8.17200634765625,-0.19188059866428375,0.28961852192878723,0.24607586860656738
1772648330557010700,8.1820107421875,-0.1476721614599228,0.20386481285095215,0.18748638033866882
1772648330567015000,8.192014892578126,-0.09600687772035599,0.10319740325212479,0.11877688020467758
1772648330577019100,8.20201904296875,-0.04221106693148613,0.0030626326333731413,0.04953475296497345
1772648330587023600,8.212023681640625,0.006791055202484131,-0.0720384493470192,-0.017576847225427628
1772648330597027800,8.22202783203125,0.05632580816745758,-0.12583425641059875,-0.07829686999320984
1772648330607032000,8.232031982421875,0.09041424095630646,-0.13488899171352386,-0.11504846066236496
1772648330617036300,8.242036376953125,0.11598056554794312,-0.11784477531909943,-0.1278316229581833
1772648330627040500,8.25204052734375,0.13462267816066742,-0.11145319789648056,-0.13422320783138275
1772648330637045000,8.262044921875,0.15646058320999146,-0.1050616130232811,-0.14807163178920746
1772648330647049200,8.27204931640625,0.17723321914672852,-0.11464899033308029,-0.17257268726825714
1772648330657053400,8.282053466796874,0.2017342746257782,-0.14341109991073608,-0.20506322383880615
1772648330667058000,8.292057861328125,0.22956429421901703,-0.18708691000938416,-0.24128219485282898
1772648330677062100,8.302062255859376,0.2540653645992279,-0.23289324343204498,-0.27057692408561707
1772648330687066400,8.31206640625,0.2886864244937897,-0.265383780002594,-0.28122955560684204
1772648330697070800,8.32207080078125,0.3206443190574646,-0.2946785092353821,-0.26205483078956604
1772648330707075000,8.332074951171874,0.35206958651542664,-0.3021353781223297,-0.23382534086704254
1772648330717079300,8.342079345703125,0.3760380148887634,-0.31012484431266785,-0.1938779652118683
1772648330727083500,8.35208349609375,0.3872233033180237,-0.3063964247703552,-0.15712636709213257
1772648330737088000,8.362087890625,0.38029909133911133,-0.2888195812702179,-0.13475583493709564
1772648330747092200,8.37209228515625,0.36485275626182556,-0.27124273777008057,-0.13475583493709564
1772648330757096400,8.382096435546876,0.3579285442829132,-0.2520679831504822,-0.13369056582450867
1772648330767100700,8.3921005859375,0.34248220920562744,-0.2462090253829956,-0.13315793871879578
1772648330777105200,8.402105224609375,0.32863378524780273,-0.23608903586864471,-0.13049478828907013
1772648330787109400,8.412109375,0.3020022213459015,-0.2275669276714325,-0.1225053071975708
1772648330797113600,8.422113525390625,0.28016430139541626,-0.22383849322795868,-0.10599371790885925
1772648330807118000,8.4321181640625,0.25726112723350525,-0.2520679831504822,-0.0846884474158287
1772648330817122300,8.442122314453124,0.2306295484304428,-0.2877542972564697,-0.06072001904249191
1772648330827126500,8.45212646484375,0.1981390118598938,-0.3159838020801544,-0.04101264476776123
1772648330837130800,8.462130859375,0.17150743305683136,-0.33835431933403015,-0.039414748549461365
1772648330847135200,8.47213525390625,0.13369056582450867,-0.3644532859325409,-0.05805686116218567
1772648330857139500,8.482139404296875,0.1267663538455963,-0.3127880096435547,-0.06711160391569138
1772648330867143700,8.492143798828126,0.11970898509025574,-0.26698166131973267,-0.06924212723970413
1772648330877148000,8.50214794921875,0.1351553052663803,-0.19667427241802216,-0.06764423102140427
1772648330887152400,8.51215234375,0.15805847942829132,-0.1423458456993103,-0.06711160391569138
1772648330897156600,8.522156494140624,0.1782984882593155,-0.10665950924158096,-0.07510107755661011
1772648330907160800,8.532160888671875,0.20386481285095215,-0.08269108086824417,-0.08894950151443481
1772648330917165300,8.542165283203126,0.2059953361749649,-0.05925528332591057,-0.09640634804964066
1772648330927169500,8.55216943359375,0.2107890248298645,-0.031558431684970856,-0.09321055561304092
1772648330937173800,8.562173828125,0.21398481726646423,-0.012916320003569126,-0.09161266684532166
1772648330947178200,8.57217822265625,0.20812585949897766,-0.007590002380311489,-0.0846884474158287
1772648330957182500,8.582182373046875,0.17936374247074127,-0.012383688241243362,-0.06711160391569138
1772648330977191000,8.60219091796875,0.16018900275230408,0.0014647373463958502,-0.030360009521245956
1772648330987195100,8.612195068359375,0.14847110211849213,0.001997369108721614,0.019174743443727493
1772648330997199600,8.62219970703125,0.1351553052663803,0.0030626326333731413,0.018109479919075966
1772648331007203800,8.632203857421874,0.11278477311134338,0.00945421401411295,0.013315794058144093
1772648331017208000,8.6422080078125,0.09094687551259995,0.017976321280002594,-0.001597895286977291
1772648331027212500,8.652212646484376,0.07763107866048813,0.007856318727135658,-0.017576847225427628
1772648331037216800,8.662216796875,0.07230476289987564,-0.004926843568682671,-0.021837901324033737
1772648331047221000,8.672220947265625,0.08082687109708786,0.0025300008710473776,-0.029294747859239578
1772648331057225200,8.68222509765625,0.09520792961120605,0.013715268112719059,-0.04420843720436096
1772648331067230200,8.692230224609375,0.1170458272099495,0.037683695554733276,-0.06072001904249191
1772648331077235000,8.70223486328125,0.1399489939212799,0.054727911949157715,-0.06231791526079178
1772648331087239700,8.71223974609375,0.15752583742141724,0.06538055092096329,-0.04953475296497345
1772648331097244400,8.722244384765625,0.17243953049182892,0.0739026591181755,-0.0564589649438858
