time,seconds_elapsed,z,y,x
1772648270749338400,0.21133837890625,0.030892642214894295,0.11385004222393036,0.05699159950017929
1772648270769348400,0.231348388671875,0.0330231711268425,0.08455529063940048,0.0612526535987854
1772648270779353300,0.241353271484375,0.0282294824719429,0.06910897046327591,0.06231791526079178
1772648270789358000,0.251358154296875,0.026631588116288185,0.054195281118154526,0.06391581147909164
1772648270799363000,0.261363037109375,0.026098955422639847,0.03715106472373009,0.06498107314109802
1772648270809368000,0.2713681640625,0.023968428373336792,0.030759483575820923,0.07030738890171051
1772648270819373000,0.281373046875,0.030892642214894295,0.01957421749830246,0.07297055423259735
1772648270829378000,0.2913779296875,0.03249053657054901,0.01105210930109024,0.07137265801429749
1772648270839383000,0.301383056640625,0.03408843278884888,0.001997369108721614,0.07137265801429749
1772648270849388000,0.311387939453125,0.03195790573954582,0.0025300008710473776,0.0798947662115097
1772648270859393000,0.32139306640625,0.029827378690242767,-0.003861580276861787,0.09161266684532166
1772648270869397800,0.331397705078125,0.022370534017682076,-0.009720529429614544,0.10226529836654663
1772648270879402800,0.34140283203125,0.01651158556342125,-0.02569948323071003,0.10972214490175247
1772648270889407700,0.35140771484375,0.00426105409860611,-0.047537386417388916,0.1134505644440651
1772648270899412700,0.361412841796875,-0.009587371721863747,-0.06511422991752625,0.12410320341587067
1772648270909417700,0.371417724609375,-0.01438105758279562,-0.0768321305513382,0.12570109963417053
1772648270919422700,0.381422607421875,-0.023968428373336792,-0.0720384493470192,0.13049478828907013
1772648270929427700,0.391427734375,-0.03834948688745499,-0.06404896825551987,0.13528846204280853
1772648270939432700,0.4014326171875,-0.055926334112882614,-0.05499422922730446,0.1459411084651947
1772648270949437700,0.411437744140625,-0.07243791967630386,-0.03315632790327072,0.1597895324230194
1772648270959442700,0.421442626953125,-0.08681897819042206,0.003595264395698905,0.16405057907104492
1772648270969447400,0.431447509765625,-0.10333056002855301,0.028628956526517868,0.15233267843723297
1772648270979452400,0.441452392578125,-0.1278316229581833,0.04087948799133301,0.1368863582611084
1772648270989457400,0.45145751953125,-0.15286532044410706,0.028628956526517868,0.12942951917648315
1772648270999462400,0.46146240234375,-0.1885516494512558,0.001997369108721614,0.12463583052158356
1772648271009467400,0.47146728515625,-0.22903165221214294,-0.02996053732931614,0.12357056885957718
1772648271019472400,0.481472412109375,-0.26258745789527893,-0.05552686005830765,0.11185266822576523
1772648271029477400,0.491477294921875,-0.2913495600223541,-0.09440898150205612,0.09640634804964066
1772648271039482400,0.501482421875,-0.3249053657054901,-0.14660689234733582,0.08362318575382233
1772648271049487000,0.511487060546875,-0.36432012915611267,-0.19347849488258362,0.08575371652841568
1772648271059491800,0.521491943359375,-0.39308223128318787,-0.2137184888124466,0.1134505644440651
1772648271069496000,0.53149609375,-0.4340948760509491,-0.20732691884040833,0.15712636709213257
1772648271079500300,0.541500244140625,-0.45433488488197327,-0.1897500604391098,0.22849902510643005
1772648271089504500,0.55150439453125,-0.47830331325531006,-0.165781632065773,0.30892643332481384
1772648271099508700,0.5615087890625,-0.5001412034034729,-0.13701951503753662,0.38349485397338867
1772648271109513000,0.571512939453125,-0.5198485851287842,-0.06404896825551987,0.446878045797348
1772648271119517200,0.58151708984375,-0.5028043985366821,0.0003994738217443228,0.5001412034034729
1772648271129521400,0.591521484375,-0.48256438970565796,0.10053424537181854,0.5305012464523315
1772648271139525600,0.601525634765625,-0.45859596133232117,0.21398481726646423,0.5310338735580444
1772648271149529900,0.61152978515625,-0.39840856194496155,0.3439469635486603,0.5145222544670105
1772648271159534000,0.6215341796875,-0.3217095732688904,0.4414185583591461,0.49268439412117004
1772648271169538300,0.631538330078125,-0.2311621904373169,0.5335638523101807,0.47297701239585876
1772648271179542500,0.64154248046875,-0.14061477780342102,0.6097301840782166,0.44528016448020935
1772648271189546800,0.651546630859375,-0.06977476179599762,0.6688523292541504,0.40799593925476074
1772648271199551000,0.661551025390625,-0.006391581147909164,0.6981470584869385,0.3675159215927124
1772648271209555200,0.67155517578125,0.04633896425366402,0.7130607962608337,0.3243727385997772
1772648271219559400,0.681559326171875,0.06551370769739151,0.716789186000824,0.2924148440361023
1772648271229563600,0.691563720703125,0.08628634363412857,0.674711287021637,0.24820640683174133
1772648271239568000,0.70156787109375,0.0846884474158287,0.6267744302749634,0.19867165386676788
1772648271249572000,0.711572021484375,0.07456845045089722,0.5799028277397156,0.15180005133152008
1772648271259576300,0.721576416015625,0.051132649183273315,0.5340964794158936,0.11451582610607147
1772648271269580500,0.73158056640625,0.023968428373336792,0.4946817457675934,0.08202528953552246
1772648271279584800,0.741584716796875,0.001597895286977291,0.46805015206336975,0.05699159950017929
1772648271289589000,0.751589111328125,-0.023968428373336792,0.44940805435180664,0.03408843278884888
1772648271299593000,0.761593017578125,-0.04207791015505791,0.42916804552078247,0.01704421639442444
1772648271309597200,0.77159716796875,-0.05273054540157318,0.41531962156295776,0.009054739959537983
1772648271319601400,0.781601318359375,-0.055393703281879425,0.4036017060279846,0
1772648271329605600,0.791605712890625,-0.05006738752126694,0.4004059135913849,-0.012783162295818329
1772648271339609900,0.80160986328125,-0.03994738310575485,0.40093857049942017,-0.03142527490854263
1772648271349614000,0.811614013671875,-0.029294747859239578,0.40679749846458435,-0.04900212213397026
1772648271359618300,0.821618408203125,-0.01704421639442444,0.4190480411052704,-0.06178528442978859
1772648271369622500,0.83162255859375,-0.009054739959537983,0.4360922574996948,-0.070840023458004
1772648271379626800,0.841626708984375,0.009054739959537983,0.4605933129787445,-0.06870950013399124
1772648271389631000,0.851630859375,0.027164220809936523,0.48136594891548157,-0.0564589649438858
1772648271399635200,0.86163525390625,0.04207791015505791,0.506932258605957,-0.047936856746673584
1772648271409639400,0.871639404296875,0.05379580706357956,0.5309007167816162,-0.05326317623257637
1772648271419643600,0.8816435546875,0.054861072450876236,0.5484775304794312,-0.07669897377490997
1772648271429648000,0.89164794921875,0.046871595084667206,0.5458143949508667,-0.1129179298877716
1772648271439652000,0.901652099609375,0.03195790573954582,0.5383575558662415,-0.13315793871879578
1772648271449656300,0.91165625,0.02077263966202736,0.5330312252044678,-0.13209268450737
1772648271459660500,0.92166064453125,0.006391581147909164,0.5314333438873291,-0.11984214931726456
1772648271469664800,0.931664794921875,-0.012250530533492565,0.5277048945426941,-0.10492845624685287
1772648271479669000,0.9416689453125,-0.03355580195784569,0.5165196657180786,-0.09214529395103455
1772648271489673200,0.951673095703125,-0.04953475296497345,0.502138614654541,-0.08202528953552246
1772648271499677400,0.961677490234375,-0.060187388211488724,0.4893554449081421,-0.06870950013399124
1772648271509681700,0.971681640625,-0.06657896935939789,0.47710490226745605,-0.0564589649438858
1772648271519686000,0.981685791015625,-0.07030738890171051,0.46219122409820557,-0.04846949130296707
1772648271529690000,0.991690185546875,-0.06977476179599762,0.44354909658432007,-0.04474106803536415
1772648271539694300,1.0016943359375,-0.066046342253685,0.4094606637954712,-0.035153694450855255
1772648271549698600,1.011698486328125,-0.05752423033118248,0.37856802344322205,-0.02024000696837902
1772648271559702800,1.021702880859375,-0.04527369886636734,0.3524690568447113,0.023968428373336792
1772648271569707300,1.031707275390625,-0.03728422522544861,0.31678274273872375,0.10492845624685287
1772648271579712000,1.0417119140625,-0.0564589649438858,0.24168166518211365,0.207726389169693
1772648271589716500,1.051716552734375,-0.09800424426794052,0.10532793402671814,0.29401272535324097
1772648271599721000,1.061720947265625,-0.14966952800750732,-0.039547909051179886,0.3153179883956909
1772648271609725400,1.071725341796875,-0.1890842765569687,-0.22916480898857117,0.2737727165222168
1772648271619730200,1.081730224609375,-0.18695375323295593,-0.3889543414115906,0.22317270934581757
1772648271629734700,1.091734619140625,-0.20985691249370575,-0.462457537651062,0.19014954566955566
1772648271639739100,1.1017392578125,-0.2684464156627655,-0.4858933389186859,0.1651158481836319
1772648271649744000,1.111743896484375,-0.2583264112472534,-0.46139225363731384,0.09374319016933441
1772648271669752800,1.1317529296875,-0.08415582031011581,-0.5056006908416748,-0.09267792850732803
1772648271679757600,1.141757568359375,-0.0756337121129036,-0.3740406632423401,-0.23169481754302979
1772648271689762000,1.151761962890625,-0.030360009521245956,-0.2233058661222458,-0.3190464377403259
1772648271699766500,1.1617666015625,0.03728422522544861,-0.10239845514297485,-0.31425273418426514
1772648271709771000,1.17177099609375,0.11611372232437134,-0.027830010280013084,-0.25140219926834106
1772648271719775700,1.181775634765625,0.2024000734090805,0.018508953973650932,-0.16351795196533203
1772648271729780200,1.1917802734375,0.2865558862686157,0.09201213717460632,-0.07350318133831024
1772648271739784700,1.20178466796875,0.3451453745365143,0.19321216642856598,-0.0010652635246515274
1772648271749789400,1.21178955078125,0.3542001247406006,0.28375956416130066,0.04900212213397026
1772648271759794000,1.2217939453125,0.3440801203250885,0.33542484045028687,0.06444844603538513
1772648271769798400,1.23179833984375,0.36005908250808716,0.34128379821777344,0.04474106803536415
1772648271779803100,1.24180322265625,0.4149201512336731,0.31198906898498535,-0.0005326317623257637
1772648271789807600,1.2518076171875,0.4559327960014343,0.28802061080932617,-0.0756337121129036
1772648271799812000,1.26181201171875,0.4532696306705475,0.2613890469074249,-0.18961690366268158
1772648271809816600,1.271816650390625,0.42131173610687256,0.18628795444965363,-0.3217095732688904
1772648271819821300,1.2818212890625,0.38988643884658813,0.08135949820280075,-0.44101908802986145
1772648271829825800,1.29182568359375,0.3627222180366516,-0.04593949019908905,-0.5235770344734192
1772648271839830300,1.301830322265625,0.3153179883956909,-0.13435636460781097,-0.5736443996429443
1772648271849835000,1.3118349609375,0.24447797238826752,-0.1998700648546219,-0.5853623151779175
1772648271859839500,1.321839599609375,0.15712636709213257,-0.2685795724391937,-0.5534043908119202
1772648271869844000,1.331843994140625,0.05699159950017929,-0.33356064558029175,-0.491086483001709
1772648271879848700,1.3418486328125,-0.015446321107447147,-0.39960697293281555,-0.4303664565086365
1772648271889853200,1.351853271484375,-0.0798947662115097,-0.41878172755241394,-0.3765706419944763
1772648271899857700,1.361857666015625,-0.12197267264127731,-0.40972697734832764,-0.3206443190574646
1772648271909862100,1.371862060546875,-0.12410320341587067,-0.37031224370002747,-0.2695116698741913
1772648271919867000,1.381866943359375,-0.0990695059299469,-0.2946785092353821,-0.23435798287391663
1772648271929871400,1.391871337890625,-0.06178528442978859,-0.1950763761997223,-0.2306295484304428
1772648271939875800,1.401875732421875,-0.006391581147909164,-0.08215844631195068,-0.26418536901474
1772648271949880600,1.411880615234375,0.066046342253685,0.01105210930109024,-0.32330748438835144
1772648271959885000,1.421885009765625,0.14274531602859497,0.07976160943508148,-0.39947381615638733
1772648271969889500,1.4318896484375,0.22423797845840454,0.16018900275230408,-0.468183308839798
1772648271979894300,1.441894287109375,0.2865558862686157,0.21824586391448975,-0.5075980424880981
1772648271989898800,1.451898681640625,0.3099916875362396,0.2304963916540146,-0.5081307291984558
1772648271999903200,1.4619033203125,0.306263267993927,0.1782984882593155,-0.47404226660728455
1772648272009907700,1.47190771484375,0.28069692850112915,0.09041424095630646,-0.4181159436702728
1772648272019912400,1.481912353515625,0.24607586860656738,-0.0006657897029072046,-0.36432012915611267
1772648272029917000,1.4919169921875,0.21518322825431824,-0.05552686005830765,-0.3163832724094391
1772648272039921400,1.50192138671875,0.19121479988098145,-0.06617949903011322,-0.27483800053596497
1772648272049926100,1.511926025390625,0.1837579607963562,-0.06511422991752625,-0.24447797238826752
1772648272059930600,1.5219306640625,0.19707375764846802,-0.052331071346998215,-0.23382534086704254
1772648272069935600,1.531935546875,0.22849902510643005,-0.040080539882183075,-0.24447797238826752
1772648272079940400,1.5419404296875,0.26684850454330444,-0.02197105996310711,-0.27110958099365234
1772648272089945300,1.5519453125,0.31265485286712646,0.0030626326333731413,-0.28549063205718994
1772648272099950000,1.5619501953125,0.3526022136211395,0.01531316339969635,-0.2790990471839905
1772648272109954800,1.571954833984375,0.3691138029098511,0.0003994738217443228,-0.26205483078956604
1772648272119959800,1.581959716796875,0.3680485486984253,-0.03049316816031933,-0.24341271817684174
1772648272129964500,1.591964599609375,0.34248220920562744,-0.07523423433303833,-0.21518322825431824
1772648272139969500,1.601969482421875,0.3051980137825012,-0.13435636460781097,-0.174170583486557
1772648272149974300,1.611974365234375,0.27164220809936523,-0.1806953251361847,-0.11717899143695831
1772648272159979000,1.62197900390625,0.24660851061344147,-0.23129534721374512,-0.066046342253685
1772648272169984000,1.63198388671875,0.24873903393745422,-0.2557964026927948,-0.022370534017682076
1772648272179988700,1.64198876953125,0.22050954401493073,-0.2685795724391937,0.014913689345121384
1772648272189993700,1.65199365234375,0.21092218160629272,-0.2877542972564697,0.029294747859239578
1772648272199998500,1.66199853515625,0.18162743747234344,-0.2595248222351074,-0.0010652635246515274
1772648272210003500,1.67200341796875,0.18269269168376923,-0.26272061467170715,-0.03621895983815193
1772648272220008200,1.68200830078125,0.17523585259914398,-0.19241322576999664,-0.050600018352270126
1772648272230013000,1.692012939453125,0.15446321666240692,-0.15299847722053528,-0.07137265801429749
1772648272240018000,1.702017822265625,0.16245268285274506,-0.1801626980304718,-0.08735160529613495
1772648272250022700,1.712022705078125,0.11930951476097107,-0.1620532125234604,-0.08681897819042206
1772648272260027600,1.722027587890625,0.047404225915670395,-0.1759016364812851,-0.08735160529613495
1772648272270032400,1.732032470703125,-0.006924212910234928,-0.1284974068403244,-0.09587371349334717
1772648272280037400,1.742037353515625,-0.07403581589460373,-0.02090579643845558,-0.10492845624685287
1772648272290042000,1.7520419921875,-0.1368863582611084,0.11491530388593674,-0.1134505644440651
1772648272300046800,1.762046875,-0.24234744906425476,0.334892213344574,-0.07936213165521622
1772648272310051800,1.7720517578125,-0.3771032989025116,0.42490699887275696,-0.03195790573954582
1772648272320056600,1.782056640625,-0.49215173721313477,0.49255120754241943,0.007456844672560692
1772648272330061600,1.7920615234375,-0.6130591630935669,0.5170522928237915,0.047936856746673584
1772648272340066300,1.80206640625,-0.7105307579040527,0.44461435079574585,0.11451582610607147
1772648272350071000,1.812071044921875,-0.776044487953186,0.31252169609069824,0.18961690366268158
1772648272360076000,1.822075927734375,-0.851678192615509,0.079228974878788,0.2695116698741913
1772648272370080800,1.832080810546875,-0.9054740071296692,-0.15939006209373474,0.3579285442829132
1772648272390090500,1.852090576171875,-0.9390298128128052,-0.44647857546806335,0.503337025642395
1772648272400095500,1.862095458984375,-0.9368992447853088,-0.5785712599754333,0.5811012387275696
1772648272410100200,1.872100341796875,-0.9246487617492676,-0.689358651638031,0.6519412994384766
1772648272420105000,1.88210498046875,-0.8958866000175476,-0.7948197722434998,0.6865623593330383
1772648272430110000,1.89210986328125,-0.7962844967842102,-0.8310387134552002,0.6732465624809265
1772648272440114700,1.90211474609375,-0.6551370620727539,-0.7703186869621277,0.5965476036071777
1772648272450119700,1.91211962890625,-0.5134570002555847,-0.6403565406799316,0.48416227102279663
1772648272460124400,1.92212451171875,-0.3568632900714874,-0.46565333008766174,0.3494064211845398
1772648272470129400,1.93212939453125,-0.2167811244726181,-0.29041746258735657,0.22264008224010468
1772648272480134100,1.942134033203125,-0.11930951476097107,-0.14980268478393555,0.16884426772594452
1772648272490139000,1.952138916015625,-0.06977476179599762,-0.040080539882183075,0.2167811244726181
1772648272500143900,1.962143798828125,-0.051132649183273315,0.0600542314350605,0.32330748438835144
1772648272510148600,1.972148681640625,-0.07510107755661011,0.1729721575975418,0.4250401556491852
1772648272520153600,1.982153564453125,-0.13741900026798248,0.1878858506679535,0.4761728048324585
1772648272530158300,1.992158447265625,-0.20825901627540588,0.1543300598859787,0.47404226660728455
1772648272540163000,2.0021630859375,-0.2817622125148773,0.11757846176624298,0.4474106729030609
1772648272550168000,2.01216796875,-0.316915899515152,0.08402266353368759,0.41651803255081177
1772648272560172500,2.022172607421875,-0.36538538336753845,0.10799109190702438,0.4016043543815613
1772648272570176800,2.0321767578125,-0.3946801424026489,0.1820269078016281,0.4149201512336731
1772648272580181000,2.042180908203125,-0.39840856194496155,0.30293431878089905,0.4516717195510864
1772648272590185200,2.052185302734375,-0.3776359260082245,0.4467448890209198,0.4990759491920471
1772648272600189400,2.062189453125,-0.3355579972267151,0.5633912682533264,0.5289033651351929
1772648272610193700,2.072193603515625,-0.2913495600223541,0.6422207355499268,0.5214464664459229
1772648272620198000,2.082197998046875,-0.26578325033187866,0.6997449994087219,0.48895594477653503
1772648272630202000,2.0922021484375,-0.23648850619792938,0.6837660074234009,0.4474106729030609
1772648272640206300,2.102206298828125,-0.2173137664794922,0.6294375658035278,0.40213698148727417
1772648272650210600,2.11221044921875,-0.20399796962738037,0.5367596745491028,0.3526022136211395
1772648272660214800,2.12221484375,-0.18588848412036896,0.4083954095840454,0.30360010266304016
1772648272670219000,2.132218994140625,-0.1597895324230194,0.30719536542892456,0.240216925740242
1772648272680223200,2.14222314453125,-0.1225053071975708,0.2491385042667389,0.15659373998641968
1772648272690227500,2.1522275390625,-0.10279793292284012,0.2443448156118393,0.04207791015505791
1772648272700231700,2.162231689453125,-0.08681897819042206,0.2347574532032013,-0.0846884474158287
1772648272710236000,2.17223583984375,-0.07403581589460373,0.21291954815387726,-0.1976063847541809
1772648272720240000,2.182240234375,-0.05805686116218567,0.18042901158332825,-0.283360093832016
1772648272730244400,2.192244384765625,-0.03195790573954582,0.1308942586183548,-0.34141695499420166
1772648272740248600,2.20224853515625,0,0.08668582141399384,-0.3723095953464508
1772648272750252800,2.212252685546875,0.03568632900714874,0.0744352862238884,-0.37923380732536316
1772648272760257000,2.222257080078125,0.06498107314109802,0.07816371321678162,-0.3621895909309387
1772648272770261200,2.23226123046875,0.0846884474158287,0.10586056113243103,-0.33609065413475037
1772648272780265500,2.242265380859375,0.09853687882423401,0.1213068813085556,-0.3073285222053528
1772648272790269700,2.252269775390625,0.09853687882423401,0.1404816210269928,-0.27057692408561707
1772648272800274000,2.26227392578125,0.0804273933172226,0.18575532734394073,-0.2311621904373169
1772648272810278100,2.272278076171875,0.06444844603538513,0.2779006361961365,-0.1885516494512558
1772648272820282400,2.282282470703125,0.04474106803536415,0.410525918006897,-0.14966952800750732
1772648272830286600,2.29228662109375,0.027164220809936523,0.5229112505912781,-0.11877688020467758
1772648272840290800,2.302290771484375,0.0330231711268425,0.6054691672325134,-0.09374319016933441
1772648272850295000,2.312294921875,0.04633896425366402,0.6209154725074768,-0.06924212723970413
1772648272860299300,2.32229931640625,0.06444844603538513,0.5538038611412048,-0.047404225915670395
1772648272870303500,2.332303466796875,0.07669897377490997,0.4185154139995575,-0.010652635246515274
1772648272880307700,2.3423076171875,0.07776423543691635,0.24754060804843903,0.066046342253685
1772648272890312000,2.35231201171875,0.0846884474158287,0.0739026591181755,0.17576847970485687
1772648272900316200,2.362316162109375,0.09054739773273468,-0.060320548713207245,0.29507800936698914
1772648272910320400,2.3723203125,0.07243791967630386,-0.13435636460781097,0.4186485707759857
1772648272920324600,2.38232470703125,0.043675802648067474,-0.165781632065773,0.5049349069595337
1772648272930328800,2.392328857421875,-0.018642112612724304,-0.1567268967628479,0.5464801788330078
1772648272940333000,2.4023330078125,-0.08522108197212219,-0.14927005767822266,0.5715138912200928
1772648272950337300,2.412337158203125,-0.10439582169055939,-0.19827216863632202,0.600275993347168
1772648272960341500,2.422341552734375,-0.08894950151443481,-0.3218427300453186,0.5571328401565552
1772648272970345700,2.432345703125,-0.07829686999320984,-0.3836280405521393,0.34727591276168823
1772648272980350000,2.442349853515625,-0.07616633921861649,-0.2749711573123932,0.08735160529613495
1772648272990354200,2.452354248046875,-0.0804273933172226,-0.20466375350952148,-0.034621063619852066
1772648273000358400,2.4623583984375,-0.01597895286977291,-0.31065747141838074,0.007456844672560692
1772648273010362600,2.472362548828125,0.022370534017682076,-0.3261038064956665,0.08149266242980957
1772648273020366800,2.482366943359375,0.018109479919075966,-0.25899219512939453,0.09267792850732803
1772648273030371000,2.49237109375,0.030360009521245956,-0.12956267595291138,0.07350318133831024
1772648273040375300,2.502375244140625,0.04846949130296707,-0.019307902082800865,0.03994738310575485
1772648273050379500,2.512379638671875,0.07243791967630386,0.025433165952563286,-0.01012000348418951
1772648273060383700,2.5223837890625,0.10492845624685287,0.02330263890326023,-0.046871595084667206
1772648273070388200,2.53238818359375,0.1507347822189331,0.03928159177303314,-0.05006738752126694
1772648273080392700,2.542392822265625,0.21891164779663086,0.1165132001042366,-0.019707374274730682
1772648273090397200,2.552397216796875,0.306263267993927,0.25499746203422546,0.03249053657054901
1772648273100401700,2.562401611328125,0.3904190957546234,0.43875542283058167,0.07190528512001038
1772648273110406100,2.57240625,0.4617917239665985,0.5703154802322388,0.059654757380485535
1772648273120410400,2.582410400390625,0.49801069498062134,0.6363617777824402,-0.006391581147909164
1772648273130414800,2.592414794921875,0.516120195388794,0.6581997275352478,-0.09374319016933441
1772648273140419300,2.60241943359375,0.5129243731498718,0.6001428365707397,-0.1976063847541809
1772648273150423800,2.612423828125,0.5177180767059326,0.48136594891548157,-0.30892643332481384
1772648273160428300,2.62242822265625,0.5145222544670105,0.3151848316192627,-0.4143875241279602
1772648273170432800,2.632432861328125,0.49854332208633423,0.09414266049861908,-0.5075980424880981
1772648273180437200,2.642437255859375,0.4538022577762604,-0.08215844631195068,-0.5869601964950562
1772648273190441500,2.65244140625,0.3771032989025116,-0.22011007368564606,-0.6322339177131653
1772648273200446000,2.662446044921875,0.2545979917049408,-0.3367564380168915,-0.6327665448188782
1772648273210450400,2.672450439453125,0.09587371349334717,-0.4145206809043884,-0.6141244173049927
1772648273220455000,2.682454833984375,-0.051665280014276505,-0.4715122580528259,-0.5981454849243164
1772648273230459400,2.69245947265625,-0.1794968992471695,-0.45979437232017517,-0.5587307214736938
1772648273240464000,2.7024638671875,-0.2636527121067047,-0.4107922613620758,-0.4772380590438843
1772648273250468400,2.71246826171875,-0.31744852662086487,-0.33409327268600464,-0.3632548749446869
1772648273260472600,2.72247265625,-0.32330748438835144,-0.24301324784755707,-0.2407495528459549
1772648273270477000,2.73247705078125,-0.30306747555732727,-0.14074794948101044,-0.13262531161308289
1772648273280481500,2.7424814453125,-0.23702113330364227,-0.043808963149785995,-0.07297055423259735
1772648273290486000,2.752486083984375,-0.14807163178920746,0.054195281118154526,-0.07350318133831024
1772648273300490500,2.762490478515625,-0.04154527932405472,0.11864372342824936,-0.11717899143695831
1772648273310495000,2.772494873046875,0.07297055423259735,0.1633847951889038,-0.18748638033866882
1772648273320499500,2.78249951171875,0.19121479988098145,0.19747322797775269,-0.2743053436279297
1772648273330503700,2.792503662109375,0.2918822169303894,0.19907112419605255,-0.3446127474308014
1772648273340508200,2.802508056640625,0.3579285442829132,0.1692437380552292,-0.38456013798713684
1772648273350512600,2.8125126953125,0.39308223128318787,0.11012161523103714,-0.3856253921985626
1772648273360517000,2.82251708984375,0.4042675197124481,0.017976321280002594,-0.3680485486984253
1772648273370521600,2.832521484375,0.40852856636047363,-0.0672447606921196,-0.3456780016422272
1772648273380525800,2.84252587890625,0.41172435879707336,-0.1141163557767868,-0.3355579972267151
1772648273390530300,2.8525302734375,0.4181159436702728,-0.13382373750209808,-0.33609065413475037
1772648273400534800,2.86253466796875,0.4330296218395233,-0.12157320231199265,-0.33662328124046326
1772648273410539300,2.872539306640625,0.47297701239585876,-0.11251845955848694,-0.32384011149406433
1772648273420543700,2.882543701171875,0.5022717714309692,-0.0768321305513382,-0.29987168312072754
1772648273430548200,2.89254833984375,0.5289033651351929,-0.06617949903011322,-0.2636527121067047
1772648273440552700,2.902552734375,0.5336970090866089,-0.0768321305513382,-0.23276008665561676
1772648273450557000,2.912556884765625,0.511859118938446,-0.133291095495224,-0.19973690807819366
1772648273460561400,2.9225615234375,0.4724443852901459,-0.20253323018550873,-0.15819163620471954
1772648273470566000,2.93256591796875,0.4191811978816986,-0.2557964026927948,-0.10599371790885925
1772648273480570400,2.9425703125,0.38456013798713684,-0.29095008969306946,-0.05006738752126694
1772648273490574800,2.952574951171875,0.35047170519828796,-0.3261038064956665,-0.018642112612724304
1772648273510583800,2.972583740234375,0.28921905159950256,-0.30053746700286865,0.003728422336280346
1772648273520588000,2.982588134765625,0.2684464156627655,-0.25260061025619507,0.006924212910234928
1772648273530592500,2.992592529296875,0.21358533203601837,-0.18761953711509705,-0.012783162295818329
1772648273540597000,3.002596923828125,0.1938779652118683,-0.18282584846019745,-0.04953475296497345
1772648273550601500,3.0126015625,0.17257268726825714,-0.13169319927692413,-0.07403581589460373
1772648273560606000,3.02260595703125,0.10652635246515274,-0.13435636460781097,-0.10705898702144623
1772648273570610400,3.0326103515625,0.06072001904249191,-0.16844479739665985,-0.11238530278205872
1772648273580615000,3.042614990234375,0.006391581147909164,-0.14820478856563568,-0.10066740214824677
1772648273590619100,3.052619140625,-0.06444844603538513,-0.14554162323474884,-0.0798947662115097
1772648273600623600,3.06262353515625,-0.17683374881744385,-0.12157320231199265,-0.06924212723970413
1772648273610628000,3.072628173828125,-0.3078611493110657,-0.0342215895652771,-0.055393703281879425
1772648273620632600,3.082632568359375,-0.4516717195510864,0.10426266491413116,-0.012250530533492565
1772648273630637000,3.092636962890625,-0.5981454849243164,0.2544648349285126,0.04048001393675804
1772648273640641500,3.1026416015625,-0.7419560551643372,0.3535343408584595,0.08096002787351608
1772648273650646000,3.11264599609375,-0.8692550659179688,0.3705785572528839,0.11611372232437134
1772648273660650500,3.122650390625,-0.9518129825592041,0.29814061522483826,0.17257268726825714
1772648273670655000,3.132655029296875,-1.0002824068069458,0.15539531409740448,0.24288007616996765
1772648273680659500,3.142659423828125,-1.0135982036590576,-0.02516685053706169,0.3195790648460388
1772648273690664000,3.152663818359375,-1.002413034439087,-0.1902827024459839,0.3909517228603363
1772648273700668200,3.162668212890625,-0.9582045674324036,-0.3170490562915802,0.4479433000087738
1772648273710672600,3.172672607421875,-0.9161266088485718,-0.4352933168411255,0.48362964391708374
1772648273720677000,3.182677001953125,-0.8724508285522461,-0.5705817937850952,0.49854332208633423
1772648273730681600,3.192681640625,-0.801078200340271,-0.6840323209762573,0.4809664785861969
1772648273740686000,3.20268603515625,-0.6801707744598389,-0.7596660256385803,0.4431496262550354
1772648273750690600,3.212690673828125,-0.524642288684845,-0.7420892119407654,0.3776359260082245
1772648273760695000,3.222695068359375,-0.3728422224521637,-0.6787060499191284,0.295610636472702
1772648273770699500,3.232699462890625,-0.22264008224010468,-0.596680760383606,0.2215748131275177
1772648273780704000,3.2427041015625,-0.08735160529613495,-0.4858933389186859,0.1656484752893448
1772648273790708200,3.252708251953125,0.017576847225427628,-0.36125749349594116,0.14913690090179443
1772648273800712700,3.262712646484375,0.066046342253685,-0.24514377117156982,0.19920428097248077
1772648273810717200,3.27271728515625,0.04527369886636734,-0.13435636460781097,0.29028430581092834
1772648273820721700,3.2827216796875,-0.007989476434886456,-0.016112111508846283,0.3675159215927124
1772648273830726100,3.29272607421875,-0.08255792409181595,0.11544793099164963,0.4063980281352997
1772648273840730600,3.302730712890625,-0.16298532485961914,0.21877849102020264,0.41758328676223755
1772648273850735000,3.312735107421875,-0.23702113330364227,0.25553008913993835,0.42663803696632385
1772648273860739600,3.322739501953125,-0.30306747555732727,0.2773679792881012,0.4394212067127228
1772648273870744000,3.332744140625,-0.33236223459243774,0.3103911578655243,0.4538022577762604
1772648273880748500,3.34274853515625,-0.33768853545188904,0.3673827648162842,0.47297701239585876
1772648273890753000,3.3527529296875,-0.32330748438835144,0.44994068145751953,0.5017391443252563
1772648273900757200,3.36275732421875,-0.30040431022644043,0.5340964794158936,0.5203812122344971
1772648273910761700,3.37276171875,-0.2721748352050781,0.5937512516975403,0.5187833309173584
1772648273920766200,3.38276611328125,-0.24447797238826752,0.6278396844863892,0.4942822754383087
1772648273930770700,3.392770751953125,-0.21837902069091797,0.6171870827674866,0.45433488488197327
1772648273940775200,3.402775146484375,-0.1976063847541809,0.5516733527183533,0.392549604177475
1772648273950779600,3.412779541015625,-0.15339794754981995,0.4371575117111206,0.3163832724094391
1772648273960784100,3.4227841796875,-0.10013477504253387,0.28429219126701355,0.23009692132472992
1772648273970788600,3.43278857421875,-0.058589495718479156,0.15805847942829132,0.13741900026798248
1772648273980793000,3.44279296875,-0.003728422336280346,0.0366184338927269,0.055393703281879425
1772648273990797600,3.452797607421875,0.04580633342266083,-0.032091062515974045,-0.019174743443727493
1772648274000802000,3.462802001953125,0.07350318133831024,-0.048070017248392105,-0.10705898702144623
1772648274010806300,3.47280615234375,0.0846884474158287,-0.05073317512869835,-0.2119874358177185
1772648274020810800,3.482810791015625,0.10279793292284012,-0.020373165607452393,-0.3158506453037262
1772648274030815200,3.492815185546875,0.11664635688066483,0.0025300008710473776,-0.39840856194496155
1772648274040819700,3.50281982421875,0.13209268450737,0.02703106217086315,-0.45060646533966064
1772648274050824200,3.51282421875,0.1411474198102951,0.06751107424497604,-0.4772380590438843
1772648274060828700,3.52282861328125,0.14327794313430786,0.12716583907604218,-0.47883594036102295
1772648274070833700,3.532833740234375,0.13954952359199524,0.17510269582271576,-0.44954121112823486
1772648274080838400,3.54283837890625,0.13475583493709564,0.18628795444965363,-0.40799593925476074
1772648274090843100,3.552843017578125,0.13102741539478302,0.16231952607631683,-0.37071171402931213
1772648274100847900,3.562847900390625,0.11877688020467758,0.1314268857240677,-0.33609065413475037
1772648274110852600,3.5728525390625,0.08096002787351608,0.0930773988366127,-0.29933905601501465
1772648274120857600,3.582857666015625,0.03834948688745499,0.07496792078018188,-0.26258745789527893
1772648274130862300,3.5928623046875,0.007989476434886456,0.09201213717460632,-0.22423797845840454
1772648274140867000,3.6028671875,-0.0026631588116288185,0.1266331970691681,-0.16671374440193176
1772648274150871800,3.612871826171875,0.0026631588116288185,0.1830921620130539,-0.0942758247256279
1772648274160876500,3.62287646484375,0.022903166711330414,0.22889849543571472,-0.023968428373336792
1772648274170881500,3.632881591796875,0.046871595084667206,0.2395511418581009,0.0282294824719429
1772648274180886300,3.64288623046875,0.055926334112882614,0.19853848218917847,0.059654757380485535
1772648274190891000,3.65289111328125,0.051665280014276505,0.11331740766763687,0.08841687440872192
1772648274200895700,3.662895751953125,0.034621063619852066,-0.0027963167522102594,0.11185266822576523
1772648274210900500,3.672900390625,-0.001597895286977291,-0.08908266574144363,0.1603221595287323
1772648274220905500,3.682905517578125,-0.05006738752126694,-0.12263846397399902,0.2551306188106537
1772648274230910200,3.69291015625,-0.08841687440872192,-0.09387634694576263,0.3680485486984253
1772648274240915000,3.7029150390625,-0.11504846066236496,0.010519477538764477,0.4772380590438843
1772648274250919700,3.712919677734375,-0.14381057024002075,0.12769846618175507,0.5826991200447083
1772648274260924400,3.72292431640625,-0.13795162737369537,0.17510269582271576,0.6396907567977905
1772648274270929400,3.732929443359375,-0.09853687882423401,0.16072162985801697,0.5709812641143799
1772648274280934100,3.74293408203125,-0.06231791526079178,0.11811109632253647,0.3195790648460388
1772648274290939000,3.75293896484375,-0.0378168560564518,0.09041424095630646,-0.0026631588116288185
1772648274300943600,3.762943603515625,-0.0005326317623257637,0.06857633590698242,-0.1933453232049942
1772648274310948400,3.7729482421875,0.06338317692279816,-0.020373165607452393,-0.16192005574703217
1772648274320953300,3.782953369140625,0.12836425006389618,-0.1759016364812851,-0.022370534017682076
1772648274330958000,3.7929580078125,0.12942951917648315,-0.26218798756599426,0.055926334112882614
1772648274340962800,3.802962890625,0.11877688020467758,-0.30479851365089417,0.059122126549482346
1772648274350967600,3.812967529296875,0.10918951034545898,-0.2520679831504822,0.013848425820469856
1772648274360972300,3.82297216796875,0.10066740214824677,-0.1998700648546219,-0.06924212723970413
1772648274370977000,3.83297705078125,0.08415582031011581,-0.17856480181217194,-0.14913690090179443
1772648274380982000,3.84298193359375,0.07669897377490997,-0.16844479739665985,-0.18216006457805634
1772648274390986800,3.85298681640625,0.08096002787351608,-0.13009530305862427,-0.164583221077919
1772648274400991500,3.862991455078125,0.13315793871879578,-0.06777739524841309,-0.10173266381025314
1772648274410996200,3.872996337890625,0.21891164779663086,0.025965798646211624,-0.02876211516559124
1772648274421001200,3.883001220703125,0.30040431022644043,0.12823109328746796,0.0330231711268425
1772648274431006000,3.893005859375,0.36485275626182556,0.20972375571727753,0.054861072450876236
1772648274441010700,3.9030107421875,0.38189697265625,0.2635195553302765,0.02077263966202736
1772648274451015400,3.913015380859375,0.3829622268676758,0.3114564120769501,-0.047936856746673584
1772648274461020200,3.923020263671875,0.3760380148887634,0.3045322000980377,-0.13262531161308289
1772648274471025200,3.933025146484375,0.3637875020503998,0.2203763872385025,-0.2173137664794922
1772648274481030000,3.94302978515625,0.3531348705291748,0.10426266491413116,-0.295610636472702
1772648274491034600,3.95303466796875,0.3478085398674011,0.013182636350393295,-0.3685811758041382
1772648274501039400,3.963039306640625,0.31851378083229065,-0.04593949019908905,-0.43089908361434937
1772648274511044000,3.973044189453125,0.2631200850009918,-0.09281108528375626,-0.4799012243747711
1772648274521049000,3.983049072265625,0.18961690366268158,-0.14607426524162292,-0.5139896273612976
1772648274531053800,3.9930537109375,0.09374319016933441,-0.20732691884040833,-0.52837073802948
1772648274541058600,4.00305859375,0.007456844672560692,-0.28189536929130554,-0.5235770344734192
1772648274551063300,4.013063232421875,-0.05432844161987305,-0.32344064116477966,-0.4846948981285095
1772648274561068000,4.023068115234375,-0.08056055754423141,-0.33782169222831726,-0.4101264476776123
1772648274571072500,4.033072509765625,-0.0768321305513382,-0.31385326385498047,-0.3099916875362396
1772648274581077000,4.043076904296875,-0.05073317512869835,-0.2643185257911682,-0.22264008224010468
1772648274591081700,4.053081787109375,-0.0026631588116288185,-0.18815216422080994,-0.17257268726825714
1772648274601086200,4.063086181640625,0.03994738310575485,-0.10879004001617432,-0.16724637150764465
1772648274611090700,4.073090576171875,0.1129179298877716,-0.035286854952573776,-0.18588848412036896
1772648274621095200,4.08309521484375,0.18642111122608185,0.030226852744817734,-0.2258358597755432
1772648274631099600,4.093099609375,0.2647179961204529,0.09147950261831284,-0.2817622125148773
1772648274641104400,4.1031044921875,0.3430148661136627,0.1399489939212799,-0.33662328124046326
1772648274651108900,4.11310888671875,0.40266960859298706,0.16498269140720367,-0.3760380148887634
1772648274661113300,4.12311328125,0.43675804138183594,0.1404816210269928,-0.38988643884658813
1772648274671117800,4.133117919921875,0.438355952501297,0.04673843830823898,-0.3808317184448242
1772648274681122600,4.14312255859375,0.4181159436702728,-0.06564686447381973,-0.3573959171772003
1772648274691127000,4.153126953125,0.3952127695083618,-0.15779216587543488,-0.32863378524780273
1772648274701131500,4.163131591796875,0.37017908692359924,-0.20572902262210846,-0.3014695644378662
1772648274711136000,4.173135986328125,0.3542001247406006,-0.21638165414333344,-0.28602325916290283
1772648274721140500,4.183140380859375,0.35633066296577454,-0.20519638061523438,-0.2790990471839905
1772648274731145200,4.193145263671875,0.3664506673812866,-0.16045531630516052,-0.27963167428970337
1772648274741149700,4.203149658203125,0.392549604177475,-0.09440898150205612,-0.2881537973880768
1772648274751154200,4.213154296875,0.4197138249874115,-0.035819485783576965,-0.29401272535324097
1772648274761158700,4.22315869140625,0.4330296218395233,-0.003328948514536023,-0.29028430581092834
1772648274771163100,4.2331630859375,0.4394212067127228,-0.014514215290546417,-0.2636527121067047
1772648274781167900,4.24316796875,0.43089908361434937,-0.05819002166390419,-0.22264008224010468
1772648274791172400,4.25317236328125,0.42290961742401123,-0.10932266712188721,-0.17044216394424438
1772648274801176800,4.2631767578125,0.4186485707759857,-0.15299847722053528,-0.1134505644440651
1772648274811181300,4.273181396484375,0.4159854054450989,-0.18708691000938416,-0.058589495718479156
1772648274821186000,4.28318603515625,0.4234422445297241,-0.21105533838272095,-0.019707374274730682
1772648274831190500,4.2931904296875,0.42237699031829834,-0.2137184888124466,0.002130527049303055
1772648274841195000,4.303195068359375,0.42557278275489807,-0.21638165414333344,0.007456844672560692
1772648274851199500,4.313199462890625,0.4191811978816986,-0.20040270686149597,-0.02024000696837902
1772648274861204000,4.323203857421875,0.42557278275489807,-0.19773954153060913,-0.052197910845279694
1772648274871208700,4.333208740234375,0.41758328676223755,-0.14980268478393555,-0.08522108197212219
1772648274881213200,4.343213134765625,0.4053327739238739,-0.14074794948101044,-0.10652635246515274
1772648274891217700,4.3532177734375,0.3632548749446869,-0.12050793319940567,-0.11451582610607147
1772648274901222100,4.36322216796875,0.3403517007827759,-0.1189100444316864,-0.1081242486834526
1772648274911227000,4.373226806640625,0.2838927209377289,-0.09494160860776901,-0.09693898260593414
1772648274921231400,4.3832314453125,0.21358533203601837,-0.1050616130232811,-0.07829686999320984
1772648274931235800,4.39323583984375,0.13901689648628235,-0.11358372122049332,-0.070840023458004
1772648274941240300,4.403240234375,0.06977476179599762,-0.05446159839630127,-0.08096002787351608
1772648274951244800,4.413244873046875,-0.01438105758279562,0.050466857850551605,-0.07669897377490997
1772648274961249500,4.42324951171875,-0.10759161412715912,0.17510269582271576,-0.034621063619852066
1772648274971254000,4.43325390625,-0.21997691690921783,0.3098585307598114,0.02024000696837902
1772648274981258500,4.443258544921875,-0.3451453745365143,0.422776460647583,0.054861072450876236
1772648274991263000,4.453262939453125,-0.47457489371299744,0.4834964871406555,0.0804273933172226
1772648275001267500,4.463267333984375,-0.5949496626853943,0.4419512152671814,0.13262531161308289
1772648275011272200,4.473272216796875,-0.7062697410583496,0.2922816872596741,0.20932428538799286
1772648275021276700,4.483276611328125,-0.7925560474395752,0.0648479163646698,0.3115895688533783
1772648275031281200,4.49328125,-0.8713855743408203,-0.18122795224189758,0.404800146818161
1772648275041285600,4.50328564453125,-0.9326382279396057,-0.40440067648887634,0.4751075208187103
1772648275051290400,4.513290283203125,-0.9795098304748535,-0.567918598651886,0.5273054242134094
1772648275061294800,4.523294921875,-0.9970866441726685,-0.6984133720397949,0.5811012387275696
1772648275071299300,4.53329931640625,-1.0040109157562256,-0.7724491953849792,0.6237117648124695
1772648275081303800,4.5433037109375,-0.9677919149398804,-0.8097334504127502,0.6524739265441895
1772648275091308300,4.553308349609375,-0.8788424134254456,-0.7974829077720642,0.6434191465377808
1772648275101313000,4.56331298828125,-0.7440865635871887,-0.7197186946868896,0.5896233320236206
1772648275111317500,4.5733173828125,-0.6045370697975159,-0.6030722856521606,0.5028043985366821
1772648275121322000,4.583322021484375,-0.4676506817340851,-0.43156489729881287,0.38189697265625
1772648275131326700,4.59332666015625,-0.33662328124046326,-0.2227732390165329,0.2540653645992279
1772648275141331200,4.603331298828125,-0.22849902510643005,-0.032091062515974045,0.19973690807819366
1772648275151335700,4.613335693359375,-0.16777899861335754,0.07550055533647537,0.240216925740242
1772648275161340200,4.623340087890625,-0.1464737355709076,0.18149426579475403,0.3430148661136627
1772648275171345000,4.633344970703125,-0.1784316450357437,0.29814061522483826,0.43729066848754883
1772648275181349400,4.643349365234375,-0.22796639800071716,0.370045930147171,0.4900212287902832
1772648275191353900,4.653353759765625,-0.26152220368385315,0.39348170161247253,0.48416227102279663
1772648275201358600,4.663358642578125,-0.2913495600223541,0.4083954095840454,0.45060646533966064
1772648275211363000,4.673363037109375,-0.306263267993927,0.489888072013855,0.4202464520931244
1772648275221367600,4.683367431640625,-0.31265485286712646,0.5665870308876038,0.39840856194496155
1772648275231372000,4.6933720703125,-0.32384011149406433,0.6278396844863892,0.39840856194496155
1772648275241376800,4.703376708984375,-0.31798115372657776,0.6464818120002747,0.42663803696632385
1772648275251381200,4.71338134765625,-0.2934800982475281,0.6416881084442139,0.47883594036102295
1772648275261385700,4.7233857421875,-0.2583264112472534,0.6321007609367371,0.533164381980896
1772648275271390200,4.73339013671875,-0.22796639800071716,0.6507428288459778,0.5603286027908325
1772648275281395000,4.74339501953125,-0.18642111122608185,0.6699175834655762,0.554469645023346
1772648275291399400,4.7533994140625,-0.15180005133152008,0.6890923380851746,0.5139896273612976
1772648275301404000,4.76340380859375,-0.12037477642297745,0.6789723634719849,0.449008584022522
1772648275311408600,4.77340869140625,-0.10066740214824677,0.6187849640846252,0.37071171402931213
1772648275321413000,4.7834130859375,-0.07030738890171051,0.48669227957725525,0.3009369373321533
1772648275331417600,4.79341748046875,-0.070840023458004,0.35513222217559814,0.22370533645153046
1772648275341422000,4.803422119140625,-0.060187388211488724,0.22144165635108948,0.14434321224689484
1772648275351426800,4.8134267578125,-0.08309055864810944,0.1543300598859787,0.051665280014276505
1772648275361431300,4.823431396484375,-0.1081242486834526,0.1255679428577423,-0.04527369886636734
1772648275371435800,4.833435791015625,-0.13422320783138275,0.12929636240005493,-0.1422126740217209
1772648275381440500,4.8434404296875,-0.15659373998641968,0.14261215925216675,-0.23329271376132965
1772648275391445000,4.853445068359375,-0.16138742864131927,0.16551531851291656,-0.3105243146419525
1772648275401449500,4.863449462890625,-0.14966952800750732,0.2017342746257782,-0.35579800605773926
1772648275411454000,4.873453857421875,-0.12303793430328369,0.2342248111963272,-0.37976643443107605
1772648275431463200,4.893463134765625,-0.05432844161987305,0.34075117111206055,-0.37923380732536316
1772648275441467600,4.903467529296875,-0.018642112612724304,0.3849596083164215,-0.3723095953464508
1772648275451472100,4.91347216796875,0.017576847225427628,0.41531962156295776,-0.3765706419944763
1772648275461476900,4.923476806640625,0.054861072450876236,0.4328964650630951,-0.3765706419944763
1772648275471481300,4.9334814453125,0.09960214048624039,0.4408859312534332,-0.37444013357162476
1772648275481485800,4.94348583984375,0.1422126740217209,0.4478101432323456,-0.3723095953464508
1772648275491490600,4.953490478515625,0.17363795638084412,0.43982067704200745,-0.3637875020503998
1772648275501495000,4.9634951171875,0.20133480429649353,0.4131890833377838,-0.3499390780925751
1772648275511499500,4.97349951171875,0.20612849295139313,0.3988080322742462,-0.3259706497192383
1772648275521504000,4.98350390625,0.19174742698669434,0.37856802344322205,-0.2865558862686157
1772648275531508700,4.9935087890625,0.15286532044410706,0.36525222659111023,-0.23009692132472992
1772648275541513200,5.00351318359375,0.10013477504253387,0.3801659345626831,-0.17576847970485687
1772648275551517700,5.013517578125,0.029161589220166206,0.3748396039009094,-0.12197267264127731
1772648275561522700,5.023522705078125,-0.035286854952573776,0.3285006284713745,-0.06178528442978859
1772648275571528000,5.03352783203125,-0.10346371680498123,0.24967113137245178,-0.006924212910234928
1772648275581533200,5.043533203125,-0.16418373584747314,0.1543300598859787,0.03834948688745499
1772648275591538400,5.053538330078125,-0.21571587026119232,0.045673172920942307,0.06285054981708527
1772648275601543700,5.063543701171875,-0.260456919670105,-0.05552686005830765,0.07456845045089722
1772648275611549000,5.073548828125,-0.2961432635784149,-0.11731214821338654,0.08202528953552246
1772648275621554200,5.08355419921875,-0.3217095732688904,-0.13169319927692413,0.09054739773273468
1772648275631559400,5.093559326171875,-0.3339601159095764,-0.07896266132593155,0.09853687882423401
1772648275641564700,5.103564697265625,-0.32384011149406433,0.00519315991550684,0.11877688020467758
1772648275651570000,5.11356982421875,-0.3073285222053528,0.09627319127321243,0.14913690090179443
1772648275661575200,5.1235751953125,-0.2870885133743286,0.16658058762550354,0.1890842765569687
1772648275671580400,5.133580322265625,-0.24341271817684174,0.2342248111963272,0.25726112723350525
1772648275681585700,5.143585693359375,-0.16671374440193176,0.2869553565979004,0.34727591276168823
1772648275691591000,5.1535908203125,-0.07403581589460373,0.2960101068019867,0.3765706419944763
1772648275701596200,5.16359619140625,0.0005326317623257637,0.2629869282245636,0.28602325916290283
1772648275711601400,5.173601318359375,0.05805686116218567,0.2523342967033386,0.14966952800750732
1772648275721606700,5.183606689453125,0.0378168560564518,0.23688797652721405,0.10492845624685287
1772648275731612200,5.193612060546875,0.017576847225427628,0.07230476289987564,0.14807163178920746
1772648275751622700,5.21362255859375,0.011717898771166801,-0.26378586888313293,0.19920428097248077
1772648275761628000,5.2236279296875,0.0005326317623257637,-0.2600574493408203,0.14381057024002075
1772648275771633200,5.233633056640625,0,-0.20466375350952148,0.06551370769739151
1772648275781638400,5.243638427734375,0.021837901324033737,-0.1189100444316864,-0.0010652635246515274
1772648275791643600,5.2536435546875,0.07616633921861649,-0.001731053227558732,-0.04527369886636734
1772648275801649000,5.26364892578125,0.14008215069770813,0.1308942586183548,-0.06817686557769775
1772648275811654100,5.273654052734375,0.23222744464874268,0.32210904359817505,-0.06657896935939789
1772648275821659400,5.283659423828125,0.3478085398674011,0.5676522850990295,-0.04154527932405472
1772648275831664600,5.29366455078125,0.4772380590438843,0.7636607885360718,-0.01012000348418951
1772648275841670000,5.303669921875,0.5560675859451294,0.8430229425430298,0.007989476434886456
1772648275851675400,5.31367529296875,0.5848296880722046,0.7386270761489868,-0.02503369376063347
1772648275861680600,5.3236806640625,0.5374254584312439,0.49201858043670654,-0.10066740214824677
1772648275871686000,5.333685791015625,0.48416227102279663,0.2523342967033386,-0.19228006899356842
1772648275881691100,5.343691162109375,0.44101908802986145,0.03502053767442703,-0.27643588185310364
1772648275891696400,5.3536962890625,0.3957453966140747,-0.17643427848815918,-0.34727591276168823
1772648275901701600,5.36370166015625,0.34621065855026245,-0.33835431933403015,-0.4058654010295868
1772648275911707000,5.373706787109375,0.27963167428970337,-0.4304996132850647,-0.4442148804664612
1772648275921712000,5.383712158203125,0.1880190074443817,-0.44647857546806335,-0.4713791012763977
1772648275931717400,5.39371728515625,0.05752423033118248,-0.4534027874469757,-0.48735806345939636
1772648275941722600,5.40372265625,-0.060187388211488724,-0.48482805490493774,-0.4751075208187103
1772648275951727900,5.413727783203125,-0.1464737355709076,-0.4874912202358246,-0.4250401556491852
1772648275961733000,5.423733154296875,-0.19441059231758118,-0.46085962653160095,-0.34088432788848877
1772648275971738400,5.43373828125,-0.207726389169693,-0.41398802399635315,-0.23648850619792938
1772648275981743600,5.44374365234375,-0.18535585701465607,-0.341017484664917,-0.14274531602859497
1772648275991748900,5.453748779296875,-0.14434321224689484,-0.24514377117156982,-0.0894821360707283
1772648276001754000,5.463754150390625,-0.07723160833120346,-0.13435636460781097,-0.09374319016933441
1772648276011759600,5.473759521484375,0.009054739959537983,-0.028362641111016273,-0.15233267843723297
1772648276021764900,5.483764892578125,0.10599371790885925,0.08402266353368759,-0.25246745347976685
1772648276031770000,5.49377001953125,0.19920428097248077,0.17403742671012878,-0.3488737940788269
1772648276041775400,5.503775390625,0.3025348484516144,0.21238692104816437,-0.41332224011421204
1772648276051780600,5.513780517578125,0.39308223128318787,0.2395511418581009,-0.44048646092414856
1772648276061785600,5.52378564453125,0.449008584022522,0.21771323680877686,-0.42237699031829834
1772648276071790600,5.53379052734375,0.4617917239665985,0.11065424978733063,-0.37017908692359924
1772648276081795300,5.54379541015625,0.43569278717041016,-0.02623211406171322,-0.3153179883956909
1772648276091800300,5.55380029296875,0.39361485838890076,-0.14394372701644897,-0.26631587743759155
1772648276101805300,5.563805419921875,0.3488737940788269,-0.20466375350952148,-0.2407495528459549
1772648276111810000,5.57381005859375,0.3153179883956909,-0.20945744216442108,-0.22956429421901703
1772648276121815000,5.58381494140625,0.2886864244937897,-0.20785954594612122,-0.2258358597755432
1772648276131820000,5.593820068359375,0.26578325033187866,-0.21584902703762054,-0.2269011288881302
1772648276141824800,5.60382470703125,0.2743053436279297,-0.1806953251361847,-0.23702113330364227
1772648276151829800,5.613829833984375,0.2918822169303894,-0.17004269361495972,-0.2396842986345291
1772648276161834500,5.62383447265625,0.3153179883956909,-0.1189100444316864,-0.24607586860656738
1772648276171839500,5.633839599609375,0.3456780016422272,-0.11571425199508667,-0.23808640241622925
1772648276181844500,5.643844482421875,0.3573959171772003,-0.13222584128379822,-0.2029327005147934
1772648276191849200,5.65384912109375,0.3568632900714874,-0.17643427848815918,-0.1608547866344452
1772648276201854200,5.663854248046875,0.3680485486984253,-0.23129534721374512,-0.1086568832397461
1772648276211859200,5.673859130859375,0.3488737940788269,-0.2600574493408203,-0.070840023458004
1772648276221864000,5.683864013671875,0.34248220920562744,-0.3037332594394684,-0.04580633342266083
1772648276231869000,5.693868896484375,0.3403517007827759,-0.3122553825378418,-0.03249053657054901
1772648276241873700,5.703873779296875,0.3067958950996399,-0.3458111584186554,-0.026631588116288185
1772648276251878700,5.713878662109375,0.3121222257614136,-0.37137749791145325,-0.02503369376063347
1772648276261883600,5.723883544921875,0.329166442155838,-0.3793669641017914,-0.021305270493030548
1772648276271888400,5.733888427734375,0.3243727385997772,-0.37137749791145325,-0.03249053657054901
1772648276281893400,5.743893310546875,0.33715590834617615,-0.38149750232696533,-0.047936856746673584
1772648276291898400,5.7538984375,0.36059170961380005,-0.3553985357284546,-0.06551370769739151
1772648276301903000,5.763903076171875,0.34248220920562744,-0.3085269629955292,-0.08522108197212219
1772648276311908000,5.773908203125,0.28921905159950256,-0.3490069508552551,-0.0990695059299469
1772648276321912800,5.783912841796875,0.24234744906425476,-0.38043224811553955,-0.08681897819042206
1772648276331917800,5.793917724609375,0.1549958437681198,-0.3836280405521393,-0.08788423985242844
1772648276341922600,5.803922607421875,0.05805686116218567,-0.3868238031864166,-0.09853687882423401
1772648276351927600,5.813927490234375,-0.052197910845279694,-0.30107009410858154,-0.08149266242980957
1772648276361932500,5.8239326171875,-0.1693768948316574,-0.17004269361495972,-0.03195790573954582
1772648276371937300,5.833937255859375,-0.2977411448955536,0.0014647373463958502,0.014913689345121384
1772648276391947300,5.853947265625,-0.5896233320236206,0.29441219568252563,0.011717898771166801
1772648276401952000,5.863951904296875,-0.7297055125236511,0.3199785351753235,0.03834948688745499
1772648276411957000,5.87395703125,-0.8335686922073364,0.23688797652721405,0.12410320341587067
1772648276421961700,5.883961669921875,-0.9070718884468079,0.04354264587163925,0.2407495528459549
1772648276431966700,5.893966796875,-0.9422255754470825,-0.18602164089679718,0.3579285442829132
1772648276441971700,5.9039716796875,-0.9843034744262695,-0.48003438115119934,0.4474106729030609
1772648276451976400,5.9139765625,-0.9656614065170288,-0.6914891600608826,0.5006738305091858
1772648276461981400,5.9239814453125,-0.9347687363624573,-0.8539418578147888,0.5219791531562805
1772648276471986400,5.933986328125,-0.8639287352561951,-0.9524787664413452,0.5342296361923218
1772648276481991200,5.9439912109375,-0.7749792337417603,-0.9908282160758972,0.5134570002555847
1772648276491996200,5.95399609375,-0.6535391807556152,-0.9482176899909973,0.449008584022522
1772648276502001000,5.9640009765625,-0.5214464664459229,-0.8454197645187378,0.35526537895202637
1772648276512006000,5.974005859375,-0.4005391001701355,-0.7080007791519165,0.2508695721626282
1772648276522011000,5.984010986328125,-0.2721748352050781,-0.5247754454612732,0.1549958437681198
1772648276532015600,5.994015625,-0.15925689041614532,-0.3452785313129425,0.0846884474158287
1772648276542020600,6.0040205078125,-0.07297055423259735,-0.2462090253829956,0.06711160391569138
1772648276552025600,6.014025634765625,-0.027164220809936523,-0.18602164089679718,0.09800424426794052
1772648276562030000,6.024030029296875,-0.042610540986061096,-0.09227845072746277,0.17736637592315674
1772648276572034300,6.034034423828125,-0.09321055561304092,-0.007057370617985725,0.2780337929725647
1772648276582038300,6.044038330078125,-0.1651158481836319,0.03502053767442703,0.35526537895202637
1772648276592042500,6.05404248046875,-0.21944428980350494,0.07656581699848175,0.3968106508255005
1772648276602046700,6.064046630859375,-0.2535327076911926,0.1830921620130539,0.40213698148727417
1772648276612051000,6.074051025390625,-0.272707462310791,0.3332943320274353,0.40266960859298706
1772648276622055200,6.08405517578125,-0.2961432635784149,0.4504733085632324,0.4149201512336731
1772648276632059400,6.094059326171875,-0.30839377641677856,0.5367596745491028,0.4447475075721741
1772648276642063400,6.1040634765625,-0.2972085177898407,0.5980123281478882,0.4990759491920471
1772648276652067600,6.114067626953125,-0.26738113164901733,0.6688523292541504,0.5603286027908325
1772648276662071800,6.12407177734375,-0.20932428538799286,0.716789186000824,0.5965476036071777
1772648276672076000,6.134075927734375,-0.16724637150764465,0.741290271282196,0.5992107391357422
1772648276682080300,6.144080322265625,-0.15020215511322021,0.7418228983879089,0.5699160099029541
1772648276692084500,6.15408447265625,-0.14008215069770813,0.7029407620429993,0.516120195388794
1772648276702088400,6.16408837890625,-0.13582110404968262,0.616121768951416,0.4532696306705475
1772648276712092700,6.1740927734375,-0.13369056582450867,0.4829638600349426,0.37497276067733765
1772648276722097000,6.184096923828125,-0.12303793430328369,0.3151848316192627,0.29028430581092834
1772648276732101000,6.19410107421875,-0.1086568832397461,0.1591237336397171,0.2071937620639801
1772648276742105300,6.204105224609375,-0.09640634804964066,0.057923704385757446,0.13102741539478302
1772648276752109600,6.214109619140625,-0.07243791967630386,0.00519315991550684,0.06338317692279816
1772648276762113500,6.224113525390625,-0.051665280014276505,-0.007590002380311489,0.009587371721863747
1772648276772117800,6.23411767578125,-0.04900212213397026,-0.024634219706058502,-0.04207791015505791
1772648276782122000,6.2441220703125,-0.05006738752126694,-0.04540685936808586,-0.07882949709892273
1772648276792126200,6.254126220703125,-0.04420843720436096,-0.05978791415691376,-0.10918951034545898
1772648276802130400,6.26413037109375,-0.05326317623257637,-0.048070017248392105,-0.14753900468349457
1772648276812134700,6.274134765625,-0.05326317623257637,-0.039547909051179886,-0.19228006899356842
1772648276822139000,6.284138916015625,-0.043675802648067474,0.008921582251787186,-0.23755376040935516
1772648276832142800,6.294142822265625,-0.02503369376063347,0.06697844713926315,-0.26738113164901733
1772648276842147000,6.30414697265625,0.0026631588116288185,0.1303616166114807,-0.2924148440361023
1772648276852151300,6.3141513671875,0.03834948688745499,0.21291954815387726,-0.3158506453037262
1772648276862155500,6.324155517578125,0.08202528953552246,0.2922816872596741,-0.3307643234729767
1772648276872159700,6.33415966796875,0.12410320341587067,0.3561974763870239,-0.3355579972267151
1772648276882164000,6.3441640625,0.1693768948316574,0.389220654964447,-0.3446127474308014
1772648276892168000,6.35416796875,0.20453059673309326,0.399873286485672,-0.3542001247406006
1772648276902172200,6.364172119140625,0.22423797845840454,0.389220654964447,-0.3536674976348877
1772648276912176400,6.37417626953125,0.22477060556411743,0.36791539192199707,-0.33182957768440247
1772648276922180600,6.3841806640625,0.21358533203601837,0.3343595862388611,-0.29081693291664124
1772648276932184800,6.394184814453125,0.1885516494512558,0.3226417005062103,-0.2354232370853424
1772648276942189000,6.40418896484375,0.15925689041614532,0.3434143364429474,-0.17257268726825714
1772648276952193000,6.414193115234375,0.11717899143695831,0.3817638158798218,-0.10918951034545898
1772648276962197200,6.424197265625,0.06231791526079178,0.40093857049942017,-0.05805686116218567
1772648276972201500,6.434201416015625,0.006924212910234928,0.3657848536968231,-0.018642112612724304
1772648276982205700,6.444205810546875,-0.052197910845279694,0.2805637717247009,0.018642112612724304
1772648276992210000,6.4542099609375,-0.10546109080314636,0.16977638006210327,0.042610540986061096
1772648277002214100,6.464214111328125,-0.14061477780342102,0.07230476289987564,0.047936856746673584
1772648277012218400,6.47421826171875,-0.17789900302886963,0.022770008072257042,0.04633896425366402
1772648277032226600,6.4942265625,-0.25726112723350525,0.04514054208993912,0.05752423033118248
1772648277042230800,6.504230712890625,-0.2737727165222168,0.13622057437896729,0.058589495718479156
1772648277052235000,6.514235107421875,-0.2593916654586792,0.23369218409061432,0.05699159950017929
1772648277062239500,6.524239501953125,-0.27537062764167786,0.2954774796962738,0.07829686999320984
1772648277072244200,6.534244140625,-0.29081693291664124,0.2922816872596741,0.1038631945848465
1772648277082248700,6.544248779296875,-0.29507800936698914,0.24274691939353943,0.13582110404968262
1772648277092253400,6.55425341796875,-0.26152220368385315,0.1820269078016281,0.1693768948316574
1772648277102258200,6.564258056640625,-0.2311621904373169,0.10213214159011841,0.16671374440193176
1772648277112263000,6.574262939453125,-0.22477060556411743,-0.02197105996310711,0.1134505644440651
1772648277122267600,6.584267578125,-0.21358533203601837,-0.1098553016781807,0.01438105758279562
1772648277132272000,6.594272216796875,-0.19014954566955566,-0.1849563866853714,-0.06444844603538513
1772648277142276900,6.60427685546875,-0.2071937620639801,-0.2920153737068176,-0.08894950151443481
1772648277152281600,6.614281494140625,-0.22849902510643005,-0.4150533080101013,-0.07350318133831024
1772648277162286300,6.624286376953125,-0.19547586143016815,-0.43742382526397705,-0.043143171817064285
1772648277172291000,6.634291015625,-0.17736637592315674,-0.34847432374954224,-0.019707374274730682
1772648277182295800,6.6442958984375,-0.12410320341587067,-0.22490376234054565,-0.004793685860931873
1772648277192300500,6.654300537109375,-0.06391581147909164,-0.13062794506549835,0.060187388211488724
1772648277202305000,6.664304931640625,-0.007456844672560692,-0.048602648079395294,0.1363537311553955
1772648277212309800,6.674309814453125,0.04527369886636734,0.025965798646211624,0.19068217277526855
1772648277222314500,6.684314453125,0.10705898702144623,0.13249215483665466,0.2173137664794922
1772648277232319200,6.6943193359375,0.19494321942329407,0.29867327213287354,0.23702113330364227
1772648277242324000,6.704323974609375,0.3099916875362396,0.5314333438873291,0.2583264112472534
1772648277252328700,6.71432861328125,0.4335622489452362,0.7407576441764832,0.27483800053596497
1772648277262333200,6.724333251953125,0.5384907126426697,0.816923975944519,0.24873903393745422
1772648277272338000,6.734337890625,0.5826991200447083,0.7354313135147095,0.14008215069770813
1772648277282342700,6.7443427734375,0.5571328401565552,0.5745764970779419,-0.023435797542333603
1772648277292347400,6.754347412109375,0.5230444073677063,0.39188382029533386,-0.17523585259914398
1772648277302352100,6.76435205078125,0.524642288684845,0.17883111536502838,-0.29401272535324097
1772648277312356600,6.774356689453125,0.5432844161987305,-0.09813740104436874,-0.38349485397338867
1772648277322361300,6.784361328125,0.5592633485794067,-0.341017484664917,-0.4623243808746338
1772648277332366000,6.794365966796875,0.5587307214736938,-0.44647857546806335,-0.5235770344734192
1772648277342370800,6.804370849609375,0.5070654153823853,-0.43263015151023865,-0.5736443996429443
1772648277352375600,6.81437548828125,0.38828855752944946,-0.3649859130382538,-0.5981454849243164
1772648277362380300,6.82438037109375,0.24181482195854187,-0.33249539136886597,-0.5885580778121948
1772648277372385000,6.834385009765625,0.11238530278205872,-0.3553985357284546,-0.5406212210655212
1772648277382389500,6.844389404296875,0.006391581147909164,-0.37191012501716614,-0.47350963950157166
1772648277392394200,6.854394287109375,-0.054861072450876236,-0.3729753792285919,-0.3877559304237366
1772648277402399000,6.86439892578125,-0.08149266242980957,-0.3447459042072296,-0.2886864244937897
1772648277412403700,6.87440380859375,-0.08149266242980957,-0.2984069585800171,-0.18961690366268158
1772648277422408400,6.884408447265625,-0.05273054540157318,-0.2185121774673462,-0.13741900026798248
1772648277432413200,6.8944130859375,0.013848425820469856,-0.12476898729801178,-0.15659373998641968
1772648277452422400,6.91442236328125,0.18535585701465607,0.04087948799133301,-0.3536674976348877
1772648277472431900,6.934431884765625,0.34621065855026245,0.11970898509025574,-0.4958801567554474
1772648277482436600,6.9444365234375,0.4101264476776123,0.1356879472732544,-0.49747806787490845
1772648277492441000,6.954441162109375,0.42663803696632385,0.07283739000558853,-0.45912858843803406
1772648277502445800,6.96444580078125,0.4090611934661865,-0.056059494614601135,-0.40266960859298706
1772648277512450600,6.974450439453125,0.373374879360199,-0.18442374467849731,-0.35100433230400085
1772648277522455300,6.984455322265625,0.33182957768440247,-0.2557964026927948,-0.3051980137825012
1772648277532460000,6.9944599609375,0.295610636472702,-0.28615641593933105,-0.26525062322616577
1772648277542464800,7.00446484375,0.28016430139541626,-0.27337324619293213,-0.25140219926834106
1772648277552469500,7.014469482421875,0.2721748352050781,-0.24035008251667023,-0.25619587302207947
1772648277562474000,7.024473876953125,0.27963167428970337,-0.22064270079135895,-0.2631200850009918
1772648277572478500,7.034478515625,0.306263267993927,-0.19294585287570953,-0.26738113164901733
1772648277582483000,7.04448291015625,0.33715590834617615,-0.15406373143196106,-0.2577937841415405
1772648277592487700,7.05448779296875,0.3691138029098511,-0.13169319927692413,-0.23702113330364227
1772648277602492200,7.0644921875,0.38189697265625,-0.14500899612903595,-0.21411797404289246
1772648277612496600,7.07449658203125,0.3824295997619629,-0.19134795665740967,-0.18642111122608185
1772648277622501000,7.084501220703125,0.3723095953464508,-0.2605900764465332,-0.15339794754981995
1772648277632505900,7.094505859375,0.36005908250808716,-0.30160272121429443,-0.11930951476097107
1772648277642510300,7.10451025390625,0.3440801203250885,-0.3596596121788025,-0.0942758247256279
1772648277652514800,7.114514892578125,0.33715590834617615,-0.3772364556789398,-0.07829686999320984
1772648277662519300,7.124519287109375,0.32863378524780273,-0.39481329917907715,-0.07350318133831024
1772648277672523800,7.134523681640625,0.3206443190574646,-0.4054659307003021,-0.08255792409181595
1772648277682528500,7.144528564453125,0.31372010707855225,-0.39534592628479004,-0.08522108197212219
1772648277692533000,7.154532958984375,0.30360010266304016,-0.3404848575592041,-0.08788423985242844
1772648277702537500,7.164537353515625,0.3121222257614136,-0.2978743016719818,-0.08415582031011581
1772648277712542000,7.1745419921875,0.29454535245895386,-0.26751428842544556,-0.09161266684532166
1772648277722546400,7.18454638671875,0.30466535687446594,-0.2563290297985077,-0.1129179298877716
1772648277732551200,7.19455126953125,0.316915899515152,-0.19720691442489624,-0.13315793871879578
1772648277742555600,7.2045556640625,0.3078611493110657,-0.16471637785434723,-0.15765899419784546
1772648277752560000,7.21456005859375,0.30040431022644043,-0.1428784728050232,-0.15765899419784546
1772648277762564600,7.224564697265625,0.260456919670105,-0.16418373584747314,-0.14753900468349457
1772648277772569300,7.2345693359375,0.20399796962738037,-0.23875218629837036,-0.16777899861335754
1772648277782573800,7.24457373046875,0.13954952359199524,-0.22170796990394592,-0.18588848412036896
1772648277792578300,7.254578369140625,0.07882949709892273,-0.1524658352136612,-0.16351795196533203
1772648277802582800,7.264582763671875,-0.050600018352270126,-0.10559424757957458,-0.12303793430328369
1772648277812587300,7.274587158203125,-0.16777899861335754,-0.008122634142637253,-0.10333056002855301
1772648277822592000,7.284592041015625,-0.3020022213459015,0.09946898370981216,-0.10279793292284012
1772648277832596500,7.294596435546875,-0.4346275329589844,0.1687111109495163,-0.09214529395103455
1772648277842601000,7.30460107421875,-0.5507412552833557,0.1596563756465912,-0.047404225915670395
1772648277852605400,7.31460546875,-0.6194507479667664,0.08934897929430008,0.03408843278884888
1772648277862610000,7.32460986328125,-0.6178528666496277,0.02383527159690857,0.13795162737369537
1772648277872614700,7.33461474609375,-0.6748444437980652,-0.3159838020801544,0.2173137664794922
1772648277882619100,7.344619140625,-0.6908233761787415,-0.5833649635314941,0.2780337929725647
1772648277892623600,7.35462353515625,-0.688160240650177,-0.7846997380256653,0.329166442155838
1772648277902628000,7.364628173828125,-0.6812360286712646,-0.932238757610321,0.37390750646591187
1772648277912632600,7.374632568359375,-0.6679202318191528,-1.032906174659729,0.4282359480857849
1772648277922637300,7.38463720703125,-0.650875985622406,-1.0829734802246094,0.4751075208187103
1772648277932641800,7.394641845703125,-0.587492823600769,-1.0861693620681763,0.49801069498062134
1772648277942646300,7.404646240234375,-0.48416227102279663,-1.0286450386047363,0.4799012243747711
1772648277952650800,7.414650634765625,-0.3728422224521637,-0.9040092825889587,0.4293012022972107
1772648277962655500,7.424655517578125,-0.26418536901474,-0.7500786781311035,0.36005908250808716
1772648277972660000,7.434659912109375,-0.17363795638084412,-0.6089312434196472,0.2732400894165039
1772648277982664400,7.44466455078125,-0.10599371790885925,-0.47470805048942566,0.19867165386676788
1772648277992669000,7.4546689453125,-0.07190528512001038,-0.38096487522125244,0.17523585259914398
1772648278002673400,7.46467333984375,-0.0942758247256279,-0.3127880096435547,0.20825901627540588
1772648278012678100,7.47467822265625,-0.15712636709213257,-0.23981745541095734,0.26631587743759155
1772648278022682600,7.4846826171875,-0.23915165662765503,-0.15086795389652252,0.32810115814208984
1772648278032687000,7.49468701171875,-0.3121222257614136,-0.06831002235412598,0.3771032989025116
1772648278042691600,7.504691650390625,-0.33822116255760193,0.020639481022953987,0.40852856636047363
1772648278052696000,7.514696044921875,-0.33768853545188904,0.1585911065340042,0.43089908361434937
1772648278062700800,7.52470068359375,-0.3302316963672638,0.30186906456947327,0.4580633044242859
1772648278072705300,7.534705322265625,-0.3201116919517517,0.42650488018989563,0.4820317327976227
1772648278082710000,7.5447099609375,-0.2972085177898407,0.5111933350563049,0.5129243731498718
1772648278092714500,7.554714599609375,-0.27110958099365234,0.5591301918029785,0.549143373966217
1772648278102719200,7.56471923828125,-0.22956429421901703,0.565521776676178,0.5906886458396912
1772648278112723700,7.5747236328125,-0.1885516494512558,0.5543364882469177,0.6130591630935669
1772648278122728400,7.584728515625,-0.15393057465553284,0.506932258605957,0.6082654595375061
1772648278132733000,7.59473291015625,-0.12090741097927094,0.4190480411052704,0.5683180689811707
1772648278142737700,7.604737548828125,-0.09108003228902817,0.2954774796962738,0.49694544076919556
1772648278152742100,7.6147421875,-0.06711160391569138,0.13409005105495453,0.40213698148727417
1772648278162747000,7.624746826171875,-0.04207791015505791,-0.07416897267103195,0.3009369373321533
1772648278172751400,7.63475146484375,-0.027164220809936523,-0.288286954164505,0.2034653276205063
1772648278182756000,7.644756103515625,-0.019174743443727493,-0.4544680416584015,0.1267663538455963
1772648278192760600,7.654760498046875,-0.009054739959537983,-0.5444828271865845,0.08149266242980957
1772648278202765300,7.664765380859375,-0.01012000348418951,-0.5732449293136597,0.04900212213397026
1772648278212769800,7.674769775390625,-0.012783162295818329,-0.5519396662712097,0.02450106106698513
1772648278222774500,7.6847744140625,-0.018109479919075966,-0.4858933389186859,0.0026631588116288185
1772648278232779000,7.694779052734375,-0.019174743443727493,-0.4065311849117279,-0.022370534017682076
1772648278242783700,7.70478369140625,-0.019707374274730682,-0.32344064116477966,-0.04633896425366402
1772648278252788200,7.714788330078125,-0.029827378690242767,-0.25792694091796875,-0.07776423543691635
1772648278262793000,7.72479296875,-0.02024000696837902,-0.19667427241802216,-0.1086568832397461
1772648278272797400,7.73479736328125,-0.010652635246515274,-0.14554162323474884,-0.12942951917648315
1772648278282802200,7.74480224609375,0.012250530533492565,-0.09014792740345001,-0.1507347822189331
1772648278292806700,7.754806640625,0.0378168560564518,-0.027297377586364746,-0.16351795196533203
1772648278302811400,7.764811279296875,0.06924212723970413,0.03129211440682411,-0.16245268285274506
1772648278312816000,7.774816162109375,0.10226529836654663,0.08668582141399384,-0.18002954125404358
1772648278322820600,7.784820556640625,0.13795162737369537,0.12876373529434204,-0.20879164338111877
1772648278332825300,7.794825439453125,0.16618111729621887,0.15805847942829132,-0.21837902069091797
1772648278342829800,7.804829833984375,0.1832253336906433,0.1729721575975418,-0.20506322383880615
1772648278352834600,7.81483447265625,0.19228006899356842,0.1782984882593155,-0.18695375323295593
1772648278362839000,7.824839111328125,0.19441059231758118,0.18469005823135376,-0.16884426772594452
1772648278372843800,7.83484375,0.18961690366268158,0.1873532235622406,-0.14913690090179443
1772648278382848300,7.84484814453125,0.17257268726825714,0.1639174222946167,-0.14327794313430786
1772648278392853000,7.85485302734375,0.14381057024002075,0.13888372480869293,-0.14061477780342102
1772648278402857500,7.864857421875,0.0990695059299469,0.12929636240005493,-0.12037477642297745
1772648278412862200,7.8748623046875,0.05432844161987305,0.13249215483665466,-0.07616633921861649
1772648278422866700,7.88486669921875,0.018642112612724304,0.13675320148468018,-0.026631588116288185
1772648278432871400,7.894871337890625,-0.02077263966202736,0.13195951282978058,0.01438105758279562
1772648278442876000,7.9048759765625,-0.06924212723970413,0.11544793099164963,0.03834948688745499
1772648278452880600,7.914880615234375,-0.12623372673988342,0.0696416050195694,0.04900212213397026
1772648278462885000,7.924885009765625,-0.1789642721414566,0.007856318727135658,0.050600018352270126
1772648278472889900,7.934889892578125,-0.23702113330364227,-0.02516685053706169,0.06391581147909164
1772648278482894300,7.944894287109375,-0.26205483078956604,-0.044874224811792374,0.09534108638763428
1772648278492899000,7.954899169921875,-0.2636527121067047,-0.031025800853967667,0.1597895324230194
1772648278502903600,7.964903564453125,-0.2498043030500412,0.001997369108721614,0.22743375599384308
1772648278512908300,7.974908203125,-0.23169481754302979,0.0318247489631176,0.2822948396205902
1772648278522912800,7.984912841796875,-0.21571587026119232,0.041944749653339386,0.3249053657054901
1772648278532917500,7.99491748046875,-0.1837579607963562,0.05685843899846077,0.34621065855026245
1772648278542922000,8.004921875,-0.11984214931726456,0.13355740904808044,0.329166442155838
1772648278552926700,8.0149267578125,-0.026098955422639847,0.2294311374425888,0.3073285222053528
1772648278562931500,8.024931396484375,0.051665280014276505,0.2640521824359894,0.2924148440361023
1772648278572936400,8.0349365234375,0.08841687440872192,0.16764584183692932,0.2876211404800415
1772648278582941400,8.04494140625,0.07456845045089722,-0.004394211806356907,0.28495800495147705
1772648278592946400,8.054946533203125,0.01704421639442444,-0.1806953251361847,0.28495800495147705
1772648278602951400,8.064951416015624,-0.0378168560564518,-0.24833956360816956,0.21411797404289246
1772648278612956400,8.074956298828125,-0.09587371349334717,-0.2227732390165329,0.1081242486834526
1772648278622961400,8.08496142578125,-0.15180005133152008,-0.18389111757278442,0.023435797542333603
1772648278632966400,8.09496630859375,-0.19600848853588104,-0.10612688213586807,-0.04633896425366402
1772648278642971100,8.10497119140625,-0.21784639358520508,-0.009720529429614544,-0.09693898260593414
1772648278652976400,8.114976318359375,-0.20612849295139313,0.08455529063940048,-0.12037477642297745
1772648278662981000,8.124981201171876,-0.15393057465553284,0.1585911065340042,-0.10333056002855301
1772648278672986000,8.134986083984375,-0.08255792409181595,0.216115340590477,-0.052197910845279694
