time,seconds_elapsed,z,y,x
1772642836390623700,0.327623779296875,0.001846611499786377,-0.11561393737792969,-0.016641616821289062
1772642836410635500,0.347635498046875,-0.0011005997657775879,-0.08211612701416016,-0.04045259952545166
1772642836430647300,0.367647216796875,0.016319453716278076,-0.07720661163330078,-0.07091057300567627
1772642836450658800,0.387658935546875,0.007585585117340088,-0.093505859375,-0.09647887945175171
1772642836470670600,0.407670654296875,-0.019791603088378906,-0.1169748306274414,-0.07819461822509766
1772642836490682000,0.42768212890625,0.0020620226860046387,-0.1047983169555664,-0.05949962139129639
1772642836510694000,0.44769384765625,-0.039389073848724365,-0.12129783630371094,-0.0662684440612793
1772642836530705400,0.467705322265625,-0.016926109790802002,-0.15210819244384766,-0.024247705936431885
1772642836550717200,0.48771728515625,-0.008251667022705078,-0.05831336975097656,-0.042338430881500244
1772642836570726000,0.507725830078125,0.015137732028961182,-0.12506389617919922,-0.01329725980758667
1772642836590734300,0.527734375,0.003882884979248047,-0.1320171356201172,-0.00807732343673706
1772642836610742500,0.547742431640625,0.011670947074890137,-0.11743640899658203,0.020832598209381104
1772642836630750700,0.567750732421875,0.004464983940124512,-0.14608001708984375,0.024997174739837646
1772642836650759200,0.58775927734375,0.024059712886810303,-0.15347957611083984,0.040915489196777344
1772642836670767600,0.607767578125,0.005380690097808838,-0.12254714965820312,0.0280877947807312
1772642836690775800,0.62777587890625,0.031430959701538086,-0.1344890594482422,0.009961307048797607
1772642836710784300,0.6477841796875,0.013413071632385254,-0.1201639175415039,0.0014178752899169922
1772642836730792400,0.66779248046875,0.021566808223724365,-0.10585880279541016,-0.004805028438568115
1772642836750800600,0.687800537109375,0.037625014781951904,-0.08670330047607422,-0.05682259798049927
1772642836770809000,0.70780908203125,0.043362975120544434,-0.08653831481933594,-0.04799860715866089
1772642836790817300,0.7278173828125,0.06172323226928711,-0.12224388122558594,-0.039335429668426514
1772642836810825700,0.74782568359375,0.033702194690704346,-0.13646888732910156,-0.025926709175109863
1772642836830834000,0.767833984375,0.01646578311920166,-0.13639163970947266,-0.03587305545806885
1772642836850842400,0.78784228515625,0.011061251163482666,-0.14829730987548828,-0.01244264841079712
1772642836870850600,0.8078505859375,0.022671639919281006,-0.13866710662841797,-0.02815037965774536
1772642836890859000,0.82785888671875,0.038332223892211914,-0.11237907409667969,-0.03470122814178467
1772642836910867200,0.8478671875,0.014937818050384521,-0.08376407623291016,-0.036563992500305176
1772642836930875600,0.867875732421875,0.040332019329071045,-0.08619308471679688,-0.021756768226623535
1772642836950883800,0.8878837890625,0.01364445686340332,-0.10301971435546875,-0.019414424896240234
1772642836970892300,0.907892333984375,0.007888615131378174,-0.11988258361816406,-0.009993314743041992
1772642836990900500,0.927900390625,0.009345948696136475,-0.10314559936523438,-0.011520206928253174
1772642837010909000,0.947908935546875,-0.015142083168029785,-0.09354877471923828,-0.027185499668121338
1772642837030917000,0.967917236328125,0.0062406063079833984,-0.1006784439086914,-0.045107364654541016
1772642837050925300,0.98792529296875,0.005864083766937256,-0.1171274185180664,-0.0398445725440979
1772642837070934000,1.00793408203125,-0.011321544647216797,-0.09769439697265625,-0.030593276023864746
1772642837090942500,1.0279423828125,-0.01201707124710083,-0.10256576538085938,-0.03333544731140137
1772642837110951200,1.047951171875,0.01597428321838379,-0.12658405303955078,-0.021589457988739014
1772642837130959600,1.067959716796875,0.010934293270111084,-0.11460685729980469,-0.047856688499450684
1772642837150968300,1.08796826171875,-0.003152906894683838,-0.10494232177734375,-0.037284016609191895
1772642837170976800,1.107976806640625,0.040540456771850586,-0.11439704895019531,-0.04549908638000488
1772642837190985200,1.127985107421875,0.015183091163635254,-0.13579368591308594,-0.039458632469177246
1772642837210994000,1.147993896484375,0.04221159219741821,-0.11890792846679688,-0.021642744541168213
1772642837231002400,1.16800244140625,0.006242334842681885,-0.10685253143310547,0.0088043212890625
1772642837251011000,1.188010986328125,0.03055429458618164,-0.10672187805175781,-0.010990262031555176
1772642837271019500,1.20801953125,0.04613137245178223,-0.13286399841308594,0.0006612539291381836
1772642837291028200,1.2280283203125,0.05221402645111084,-0.12067317962646484,0.007233023643493652
1772642837311036700,1.24803662109375,0.05068099498748779,-0.10131359100341797,-0.012225985527038574
1772642837331045400,1.26804541015625,0.03929382562637329,-0.12030410766601562,-0.02444148063659668
1772642837351053800,1.2880537109375,0.033169567584991455,-0.12970733642578125,-0.006143808364868164
1772642837371062500,1.3080625,0.021831095218658447,-0.14873504638671875,-0.014232635498046875
1772642837391071000,1.328071044921875,0.014246642589569092,-0.11757755279541016,-0.025311052799224854
1772642837411079700,1.34807958984375,0.00888746976852417,-0.1271991729736328,-0.0462113618850708
1772642837431088000,1.368088134765625,0.022551536560058594,-0.1104421615600586,-0.0074214935302734375
1772642837451096800,1.388096923828125,0.007810652256011963,-0.11762619018554688,-0.02626347541809082
1772642837471105300,1.408105224609375,-0.00027686357498168945,-0.11046886444091797,-0.013687968254089355
1772642837491114000,1.428114013671875,0.01173466444015503,-0.07449054718017578,-0.027569472789764404
1772642837511122400,1.448122314453125,0.028400421142578125,-0.1080160140991211,-0.017351865768432617
1772642837531131000,1.468130859375,0.033288419246673584,-0.11037635803222656,-0.02029740810394287
1772642837551139600,1.4881396484375,0.02160567045211792,-0.11270618438720703,-0.010033667087554932
1772642837571148500,1.5081484375,-0.008892536163330078,-0.10303592681884766,-0.018566012382507324
1772642837591157800,1.52815771484375,-0.012710869312286377,-0.10048484802246094,-0.02685922384262085
1772642837611166700,1.548166748046875,-0.01902252435684204,-0.10275840759277344,-0.03562161326408386
1772642837631176000,1.568176025390625,-0.006632328033447266,-0.13619613647460938,-0.03016442060470581
1772642837651185000,1.588184814453125,-0.027063071727752686,-0.14327239990234375,-0.023584723472595215
1772642837671194000,1.608194091796875,-0.011616885662078857,-0.11678409576416016,-0.04360145330429077
1772642837691203000,1.628203125,-0.0008216500282287598,-0.0926666259765625,-0.05478483438491821
1772642837711212300,1.64821240234375,-0.014172673225402832,-0.11441802978515625,-0.05418485403060913
1772642837731221200,1.66822119140625,-0.04525405168533325,-0.124298095703125,-0.05903834104537964
1772642837751230500,1.68823046875,-0.03145909309387207,-0.12673282623291016,-0.03217467665672302
1772642837771239700,1.70823974609375,-0.000431060791015625,-0.13632869720458984,-0.0226898193359375
1772642837791248600,1.72824853515625,0.006546914577484131,-0.10283279418945312,-0.04225969314575195
1772642837811257900,1.7482578125,-0.023902833461761475,-0.11235713958740234,-0.02553725242614746
1772642837831266800,1.768266845703125,0.013142943382263184,-0.11224937438964844,-0.04211384057998657
1772642837851276000,1.788276123046875,0.02809089422225952,-0.14782428741455078,-0.018812239170074463
1772642837871285000,1.808284912109375,0.01124793291091919,-0.13080310821533203,0.003613770008087158
1772642837891294200,1.828294189453125,-0.019931375980377197,-0.1188955307006836,-0.019131362438201904
1772642837911303200,1.84830322265625,0.01072603464126587,-0.14531326293945312,-0.0028243660926818848
1772642837931312400,1.8683125,0.029297173023223877,-0.1405801773071289,-0.019728362560272217
1772642837951321600,1.888321533203125,0.011966943740844727,-0.1214599609375,-0.010056376457214355
1772642837971330600,1.90833056640625,-0.00023114681243896484,-0.09034538269042969,-0.05091056227684021
1772642837991339800,1.92833984375,-0.009739100933074951,-0.09273910522460938,-0.046192675828933716
1772642838011348700,1.9483486328125,-0.0023874640464782715,-0.12148284912109375,-0.032073020935058594
1772642838031358000,1.96835791015625,-0.009828269481658936,-0.13110065460205078,-0.044281601905822754
1772642838051367000,1.988366943359375,0.020938396453857422,-0.1047677993774414,-0.07065534591674805
1772642838071376000,2.0083759765625,0.016490697860717773,-0.0879812240600586,-0.07594862580299377
1772642838091385000,2.028385009765625,0.022171854972839355,-0.09987449645996094,-0.03719058632850647
1772642838111394000,2.04839404296875,0.026755809783935547,-0.135772705078125,-0.029844582080841064
1772642838131402800,2.06840283203125,-0.016563117504119873,-0.16211605072021484,-0.0142592191696167
1772642838151411700,2.08841162109375,0.025904715061187744,-0.12139034271240234,-0.00866842269897461
1772642838171421000,2.1084208984375,0.008464932441711426,-0.10462760925292969,-0.026869535446166992
1772642838191430000,2.128429931640625,0.006305336952209473,-0.10936260223388672,-0.023814737796783447
1772642838211438800,2.14843896484375,0.014406859874725342,-0.13083839416503906,-0.03570762276649475
1772642838231447800,2.16844775390625,0.04761606454849243,-0.10206317901611328,-0.03323495388031006
1772642838251456800,2.188456787109375,-0.007744491100311279,-0.13808536529541016,-0.018791615962982178
1772642838271465700,2.2084658203125,0.005914509296417236,-0.13338565826416016,-0.016643047332763672
1772642838291474700,2.228474609375,0.016855955123901367,-0.1143636703491211,-0.036750078201293945
1772642838311483600,2.248483642578125,0.013501346111297607,-0.12645721435546875,-0.027737081050872803
1772642838331492600,2.26849267578125,-0.013046562671661377,-0.0977487564086914,-0.030521154403686523
1772642838351501600,2.28850146484375,0.018105685710906982,-0.08579826354980469,-0.031051218509674072
1772642838371510500,2.308510498046875,-0.02239924669265747,-0.06664371490478516,-0.007575571537017822
1772642838391519500,2.32851953125,-0.02201598882675171,-0.11693191528320312,-0.017506003379821777
1772642838411528400,2.348528564453125,-0.007203459739685059,-0.11690521240234375,-0.012920856475830078
1772642838431537400,2.368537353515625,-0.0019583702087402344,-0.1192941665649414,-0.013539493083953857
1772642838451546400,2.38854638671875,0.024196982383728027,-0.09276294708251953,0.010219693183898926
1772642838471555300,2.408555419921875,0.009768366813659668,-0.13570499420166016,0.01211172342300415
1772642838491564300,2.428564208984375,-0.012949228286743164,-0.14760780334472656,0.018707573413848877
1772642838511573200,2.4485732421875,0.016925930976867676,-0.12836551666259766,0.032711803913116455
1772642838531582500,2.46858251953125,0.04120469093322754,-0.1019906997680664,0.010601997375488281
1772642838551591400,2.48859130859375,0.03288835287094116,-0.12350940704345703,-0.012029767036437988
1772642838571601400,2.508601318359375,0.016585826873779297,-0.1498403549194336,-0.015104711055755615
1772642838591611600,2.528611572265625,0.014950752258300781,-0.12345027923583984,-0.013198912143707275
1772642838611622000,2.548621826171875,0.005486667156219482,-0.09471702575683594,-0.039959996938705444
1772642838631632100,2.568632080078125,0.020287752151489258,-0.094696044921875,-0.06947636604309082
1772642838651642400,2.588642333984375,0.05477166175842285,-0.11860370635986328,-0.06501749157905579
1772642838671652400,2.60865234375,0.027936995029449463,-0.11165142059326172,-0.05283713340759277
1772642838691662600,2.62866259765625,0.024362027645111084,-0.10466766357421875,-0.06226515769958496
1772642838711672800,2.6486728515625,0.014169156551361084,-0.11650276184082031,-0.055289268493652344
1772642838731683000,2.66868310546875,0.013105332851409912,-0.14757537841796875,-0.04891732335090637
1772642838751693300,2.688693359375,-0.03700524568557739,-0.14996719360351562,-0.061125367879867554
1772642838771703600,2.70870361328125,-0.1257663369178772,-0.1927957534790039,-0.11387962102890015
1772642838791713800,2.7287138671875,0.021338343620300293,0.004534721374511719,0.008226215839385986
1772642838811724000,2.74872412109375,0.16549211740493774,-0.07349967956542969,0.07946109771728516
1772642838831734300,2.768734375,0.08116883039474487,-0.13054466247558594,0.09151691198348999
1772642838851744500,2.78874462890625,-0.052014052867889404,-0.1185150146484375,-0.01188570261001587
1772642838871754800,2.808754638671875,-0.12599432468414307,-0.16884708404541016,-0.01120227575302124
1772642838891764700,2.8287646484375,-0.009154558181762695,-0.1474132537841797,-0.03308132290840149
1772642838911775000,2.84877490234375,0.06682562828063965,-0.09719562530517578,-0.008216500282287598
1772642838931785200,2.86878515625,0.019825637340545654,-0.12383842468261719,-0.046263664960861206
1772642838951795500,2.88879541015625,-0.020881295204162598,-0.10976409912109375,-0.06478878855705261
1772642838971805700,2.9088056640625,-0.024908483028411865,-0.10039329528808594,-0.04217332601547241
1772642838991816000,2.92881591796875,-0.019877731800079346,-0.10518360137939453,-0.0643925666809082
1772642839011826200,2.948826171875,0.033073484897613525,-0.11229324340820312,-0.052032411098480225
1772642839031836400,2.96883642578125,0.009859204292297363,-0.11640357971191406,-0.02725052833557129
1772642839051846700,2.9888466796875,0.00956493616104126,-0.10466575622558594,-0.044889986515045166
1772642839071856400,3.0088564453125,0.023921191692352295,-0.11211872100830078,-0.011794745922088623
1772642839091866000,3.0288662109375,-0.0020038485527038574,-0.1288928985595703,0.024606168270111084
1772642839111875800,3.048875732421875,-0.009503781795501709,-0.11695289611816406,0.036372482776641846
1772642839131885600,3.068885498046875,0.01381772756576538,-0.11223697662353516,0.01928192377090454
1772642839151895600,3.0888955078125,-0.010311543941497803,-0.1099081039428711,0.013524115085601807
1772642839171905300,3.1089052734375,0.036232590675354004,-0.1339435577392578,0.008435249328613281
1772642839191915000,3.1289150390625,0.03671133518218994,-0.1075897216796875,0.015902340412139893
1772642839211924700,3.1489248046875,0.024966537952423096,-0.09107017517089844,-0.010370135307312012
1772642839231934700,3.168934814453125,0.006361484527587891,-0.10094165802001953,-0.03456491231918335
1772642839251944400,3.1889443359375,-0.005379319190979004,-0.1293773651123047,-0.013183653354644775
1772642839271954200,3.2089541015625,-0.033908188343048096,-0.1026763916015625,-0.020043671131134033
1772642839291964000,3.2289638671875,-0.009798765182495117,-0.12417221069335938,0.009892404079437256
1772642839311973600,3.2489736328125,0.02104896306991577,-0.11458778381347656,-0.011176049709320068
1772642839331983400,3.2689833984375,0.04384380578994751,-0.12420272827148438,-0.003688216209411621
1772642839351993000,3.2889931640625,0.022726058959960938,-0.1050424575805664,-0.0063599348068237305
1772642839372003000,3.309003173828125,0.03460407257080078,-0.08823776245117188,-0.0036452412605285645
1772642839392012800,3.3290126953125,0.016442418098449707,-0.11213874816894531,-0.003260791301727295
1772642839412022500,3.3490224609375,0.03608214855194092,-0.10486221313476562,-0.009997844696044922
1772642839432032300,3.3690322265625,0.03841191530227661,-0.1335926055908203,-0.002427220344543457
1772642839452042000,3.3890419921875,0.03461921215057373,-0.1672382354736328,-0.04359310865402222
1772642839472051700,3.4090517578125,0.03260272741317749,-0.10511493682861328,-0.03423720598220825
1772642839492061700,3.429061767578125,-0.004774212837219238,-0.09324932098388672,-0.04123595356941223
1772642839512071400,3.449071533203125,0.01608043909072876,-0.09808349609375,-0.012184977531433105
1772642839532081200,3.4690810546875,0.023141443729400635,-0.09329032897949219,-0.024219155311584473
1772642839552091000,3.4890908203125,0.03273040056228638,-0.0717010498046875,-0.04075103998184204
1772642839572100000,3.50910009765625,0.010885775089263916,-0.1172027587890625,0.008435726165771484
1772642839592109300,3.529109375,-0.013117611408233643,-0.1339435577392578,-0.0035830140113830566
1772642839612118500,3.549118408203125,0.0003218650817871094,-0.10045433044433594,-0.007760345935821533
1772642839632127700,3.569127685546875,-0.017554819583892822,-0.12685012817382812,-0.009241044521331787
1772642839652136700,3.58913671875,0.020211100578308105,-0.1436004638671875,0.0018624067306518555
1772642839672146000,3.60914599609375,-0.009077847003936768,-0.10770606994628906,-0.029128849506378174
1772642839692155100,3.629155029296875,0.01948690414428711,-0.05741596221923828,-0.02191340923309326
1772642839712164400,3.649164306640625,0.016865253448486328,-0.08617115020751953,-0.028909265995025635
1772642839732173600,3.669173583984375,0.03399550914764404,-0.11728668212890625,-0.017034828662872314
1772642839752182500,3.6891826171875,0.008717358112335205,-0.1339883804321289,0.0019396543502807617
1772642839772191700,3.709191650390625,0.004521608352661133,-0.1315479278564453,-0.017905473709106445
1772642839792201000,3.729200927734375,0.023643016815185547,-0.10755634307861328,-0.019289076328277588
1772642839812210200,3.749210205078125,0.034999191761016846,-0.09318351745605469,-0.02578526735305786
1772642839832219400,3.769219482421875,0.06951916217803955,-0.10278797149658203,-0.01769840717315674
1772642839852228400,3.789228271484375,0.005133092403411865,-0.10759449005126953,-0.029502391815185547
1772642839872237600,3.809237548828125,-0.011227190494537354,-0.10242462158203125,-0.029134929180145264
1772642839892246800,3.829246826171875,0.001270890235900879,-0.12357521057128906,-0.028431475162506104
1772642839912256000,3.849256103515625,-0.0029625892639160156,-0.11630916595458984,-0.03320851922035217
1772642839932265200,3.86926513671875,-0.005185484886169434,-0.10187911987304688,-0.03479886054992676
1772642839952274200,3.889274169921875,0.009451627731323242,-0.10661602020263672,-0.015072524547576904
1772642839972283400,3.909283447265625,0.010025203227996826,-0.10413837432861328,-0.021635890007019043
1772642839992292600,3.929292724609375,0.013049900531768799,-0.12563514709472656,-0.028659820556640625
1772642840012301800,3.9493017578125,0.013465344905853271,-0.10883045196533203,-0.0022768378257751465
1772642840032311000,3.96931103515625,0.031253159046173096,-0.12550640106201172,-0.030908256769180298
1772642840052320000,3.989320068359375,-0.01992851495742798,-0.12811565399169922,-0.037379175424575806
1772642840072329200,4.0093291015625,-0.012005805969238281,-0.11644554138183594,-0.03236532211303711
1772642840092338200,4.029338134765625,-0.012046992778778076,-0.10930633544921875,-0.02328440546989441
1772642840112347400,4.049347412109375,0.003542780876159668,-0.12382984161376953,0.0024150609970092773
1772642840132356400,4.0693564453125,0.004295229911804199,-0.12880420684814453,0.011215507984161377
1772642840152365600,4.089365478515625,-0.004108250141143799,-0.11278724670410156,0.0007129311561584473
1772642840172374500,4.10937451171875,0.010113716125488281,-0.10329246520996094,-0.01502370834350586
1772642840192383700,4.1293837890625,-0.011463046073913574,-0.10817241668701172,-0.011855721473693848
1772642840212392700,4.149392822265625,0.0005502104759216309,-0.09148120880126953,-0.03729918599128723
1772642840232402000,4.16940185546875,0.002919137477874756,-0.10830402374267578,-0.02389901876449585
1772642840252411000,4.189410888671875,-0.0007779598236083984,-0.15124130249023438,-0.049026280641555786
1772642840272420000,4.209420166015625,0.014565587043762207,-0.11990547180175781,-0.05505490303039551
1772642840292429000,4.229428955078125,0.022823035717010498,-0.1032867431640625,-0.05858969688415527
1772642840312438300,4.249438232421875,-0.0016853809356689453,-0.09383106231689453,-0.06256437301635742
1772642840332447200,4.269447265625,0.0209963321685791,-0.09128761291503906,-0.053935736417770386
1772642840352456400,4.28945654296875,0.0032541751861572266,-0.10791492462158203,-0.045956939458847046
1772642840372465400,4.30946533203125,-0.006818056106567383,-0.11520671844482422,-0.010590314865112305
1772642840392474600,4.329474609375,0.02388399839401245,-0.1273040771484375,-0.0147935152053833
1772642840412483600,4.349483642578125,0.0020870566368103027,-0.12022781372070312,-0.014334678649902344
1772642840432492800,4.369492919921875,0.0011500120162963867,-0.09404659271240234,-0.020723164081573486
1772642840452501800,4.389501708984375,0.0195084810256958,-0.1089010238647461,0.007099747657775879
1772642840472511000,4.409510986328125,0.0100058913230896,-0.12369441986083984,0.015410304069519043
1772642840492520000,4.42952001953125,-0.02138596773147583,-0.12141990661621094,-0.0007445216178894043
1772642840512529200,4.449529052734375,-0.002855360507965088,-0.12157154083251953,0.011943459510803223
1772642840532538000,4.4695380859375,0.04635506868362427,-0.09780597686767578,-0.0017129182815551758
1772642840552547300,4.48954736328125,0.00011795759201049805,-0.12672042846679688,-0.017933309078216553
1772642840572556000,4.50955615234375,0.016569793224334717,-0.09811592102050781,-0.015179157257080078
1772642840592564700,4.529564697265625,0.016358256340026855,-0.1078176498413086,-0.012167870998382568
1772642840612573700,4.54957373046875,0.004341185092926025,-0.11270427703857422,-0.018567919731140137
1772642840632582400,4.56958251953125,0.008823394775390625,-0.12239933013916016,-0.0009305477142333984
1772642840652591400,4.58959130859375,0.039453327655792236,-0.1488504409790039,0.00529932975769043
1772642840672600000,4.60960009765625,-0.0014917850494384766,-0.11776161193847656,-0.014437556266784668
1772642840692609000,4.629609130859375,0.03365159034729004,-0.09392929077148438,-0.03454715013504028
1772642840712617700,4.64961767578125,0.006671309471130371,-0.10125160217285156,-0.023993253707885742
1772642840732626700,4.669626708984375,0.01398169994354248,-0.13964557647705078,-0.01573657989501953
1772642840752635400,4.689635498046875,0.01175469160079956,-0.118133544921875,0.01193934679031372
1772642840772644400,4.709644287109375,0.018471240997314453,-0.13742351531982422,-0.0038850903511047363
1772642840792653000,4.729653076171875,-0.006529271602630615,-0.11129379272460938,-0.010916709899902344
1772642840812662000,4.749662109375,-0.009808838367462158,-0.12345314025878906,0.001664578914642334
1772642840832670700,4.769670654296875,0.010765254497528076,-0.09969425201416016,-0.019376516342163086
1772642840852679400,4.789679443359375,0.016119062900543213,-0.10234642028808594,-0.03375446796417236
1772642840872688400,4.8096884765625,0.0027858614921569824,-0.09776592254638672,-0.05041015148162842
1772642840892697000,4.829697021484375,-0.01446998119354248,-0.0979623794555664,-0.06168925762176514
1772642840912706000,4.8497060546875,-0.0036041736602783203,-0.10048103332519531,-0.055393338203430176
1772642840932714800,4.86971484375,0.012633144855499268,-0.1125335693359375,-0.04908221960067749
1772642840952723700,4.8897236328125,-0.015887141227722168,-0.1030130386352539,-0.05001634359359741
1772642840972732400,4.909732421875,0.005044460296630859,-0.1246347427368164,-0.007478654384613037
1772642840992741400,4.929741455078125,-0.007411837577819824,-0.1391143798828125,0.013321459293365479
1772642841012750000,4.94975,0.022662580013275146,-0.12459659576416016,0.007507801055908203
1772642841032759000,4.969759033203125,0.040532052516937256,-0.11996841430664062,0.015993595123291016
1772642841052767700,4.989767822265625,0.05406564474105835,-0.1057138442993164,0.010725021362304688
1772642841072777200,5.009777099609375,0.00611037015914917,-0.0869150161743164,0.005232751369476318
1772642841092787000,5.029786865234375,0.016027629375457764,-0.09411430358886719,0.014114737510681152
1772642841112796400,5.04979638671875,0.0015416741371154785,-0.11572837829589844,0.015743672847747803
1772642841132806000,5.069805908203125,-0.008424043655395508,-0.14700031280517578,-0.006985962390899658
1772642841152815600,5.089815673828125,-0.008944988250732422,-0.1423501968383789,-0.023228228092193604
1772642841172825000,5.1098251953125,0.033036231994628906,-0.11856842041015625,-0.010170340538024902
1772642841192834800,5.129834716796875,0.017584562301635742,-0.08283424377441406,-0.038794755935668945
1772642841212844300,5.14984423828125,0.012395977973937988,-0.08778667449951172,-0.038159191608428955
1772642841232854000,5.16985400390625,-0.00898677110671997,-0.10467243194580078,-0.04980438947677612
1772642841252863500,5.189863525390625,0.03126567602157593,-0.11196708679199219,-0.04143714904785156
1772642841272873000,5.209873046875,0.02859652042388916,-0.12883853912353516,-0.03523153066635132
1772642841292882700,5.229882568359375,-0.002349257469177246,-0.12897872924804688,-0.042140066623687744
1772642841312892200,5.24989208984375,0.009697556495666504,-0.11952590942382812,-0.016009807586669922
1772642841332902000,5.26990185546875,-0.01596987247467041,-0.14365577697753906,-0.002158939838409424
1772642841352911400,5.289911376953125,-0.007022380828857422,-0.14386940002441406,-0.011869847774505615
1772642841372920800,5.3099208984375,-0.05855971574783325,-0.16340923309326172,-0.020932257175445557
1772642841392930600,5.3299306640625,0.03967553377151489,-0.211700439453125,-0.09275960922241211
1772642841412940000,5.34993994140625,0.14840912818908691,-0.22400951385498047,-0.22089409828186035
1772642841432949800,5.36994970703125,0.206284761428833,-0.18371295928955078,-0.2949179410934448
1772642841452959200,5.389959228515625,0.07979345321655273,-0.16983413696289062,-0.2693713307380676
1772642841472969000,5.409968994140625,-0.05718034505844116,-0.2593116760253906,-0.15327584743499756
1772642841492978400,5.429978515625,-0.07510584592819214,-0.1596994400024414,-0.07839977741241455
1772642841512988200,5.44998828125,-0.07251524925231934,0.007029533386230469,-0.0173223614692688
1772642841532997600,5.46999755859375,0.04651159048080444,0.05921459197998047,0.04020202159881592
1772642841553007000,5.490007080078125,0.12292224168777466,0.03293323516845703,0.10472917556762695
1772642841573015800,5.510015869140625,0.07166832685470581,0.04774284362792969,0.13552796840667725
1772642841593024300,5.530024169921875,-0.040396153926849365,-0.023537635803222656,0.20391559600830078
1772642841613032700,5.55003271484375,-0.09635889530181885,-0.08290386199951172,0.20207315683364868
1772642841633041400,5.57004150390625,-0.057272255420684814,-0.0704183578491211,0.19665813446044922
1772642841653049900,5.5900498046875,-0.03631329536437988,-0.04833507537841797,0.20466560125350952
1772642841673058300,5.610058349609375,-0.008244156837463379,-0.11464881896972656,0.20443981885910034
1772642841693067000,5.63006689453125,-0.007838070392608643,-0.1235809326171875,0.1781272292137146
1772642841713075500,5.650075439453125,-0.003917276859283447,-0.1208810806274414,0.15197789669036865
1772642841733084000,5.670083984375,-0.031343817710876465,-0.10391426086425781,0.15324616432189941
1772642841753092600,5.690092529296875,-0.0012579560279846191,-0.12295150756835938,0.06652730703353882
1772642841773101000,5.71010107421875,-0.0068735480308532715,-0.14920902252197266,0.017593562602996826
1772642841793109800,5.73010986328125,-0.0007912516593933105,-0.1155710220336914,-0.023645639419555664
1772642841813118200,5.7501181640625,-0.010273993015289307,-0.12516307830810547,-0.09400314092636108
1772642841833126700,5.770126708984375,0.02093881368637085,-0.1300373077392578,-0.18194806575775146
1772642841853135400,5.79013525390625,0.038154423236846924,-0.12567138671875,-0.18460500240325928
1772642841873143800,5.810143798828125,0.018659651279449463,-0.11881256103515625,-0.17206308245658875
1772642841893152300,5.83015234375,0.03872555494308472,-0.13559532165527344,-0.1643429398536682
1772642841913161000,5.850160888671875,0.02835744619369507,-0.12834644317626953,-0.1169542670249939
1772642841933169400,5.87016943359375,0.0074256062507629395,-0.1283111572265625,-0.07104629278182983
1772642841953177900,5.890177734375,0.009108006954193115,-0.13783836364746094,-0.021336674690246582
1772642841973186600,5.9101865234375,0.04108309745788574,-0.128173828125,-0.013256847858428955
1772642841993195000,5.930195068359375,0.01157289743423462,-0.08494377136230469,-0.002579331398010254
1772642842013203500,5.950203369140625,0.03475433588027954,-0.11595344543457031,0.046035826206207275
1772642842033212200,5.970212158203125,0.029434263706207275,-0.11342048645019531,0.03215217590332031
1772642842053220600,5.990220703125,0.029098927974700928,-0.12767791748046875,0.046427249908447266
1772642842073230000,6.01022998046875,0.006682395935058594,-0.1348743438720703,-0.0052678585052490234
1772642842093239300,6.0302392578125,0.019653737545013428,-0.10863494873046875,-0.012229442596435547
1772642842113248800,6.050248779296875,0.020811855792999268,-0.1303081512451172,-0.007478833198547363
1772642842133258200,6.07025830078125,-0.006560087203979492,-0.09685707092285156,-0.02894747257232666
1772642842153267700,6.090267822265625,0.01664215326309204,-0.1064767837524414,-0.014162123203277588
1772642842173277200,6.110277099609375,0.01505434513092041,-0.11615657806396484,-0.018216311931610107
1772642842193286400,6.130286376953125,0.02023106813430786,-0.1354236602783203,-0.031403958797454834
1772642842213295900,6.1502958984375,0.04534846544265747,-0.06356620788574219,-0.03931063413619995
1772642842233305300,6.170305419921875,0.016435742378234863,-0.0730752944946289,-0.01400744915008545
1772642842253314800,6.190314697265625,-0.01994413137435913,-0.1328868865966797,0.0062836408615112305
1772642842273324300,6.21032421875,-0.03256499767303467,-0.1112833023071289,0.016769468784332275
1772642842293333800,6.230333740234375,-0.0374985933303833,-0.12738704681396484,0.015304744243621826
1772642842313343000,6.250343017578125,-0.013702571392059326,-0.13937759399414062,0.012929797172546387
1772642842333352400,6.2703525390625,0.00293654203414917,-0.1250438690185547,-0.011744260787963867
1772642842353362000,6.29036181640625,-0.0013595223426818848,-0.08906745910644531,-0.021339893341064453
1772642842373371400,6.310371337890625,-0.022249281406402588,-0.09373188018798828,-0.010702550411224365
1772642842393380900,6.330380859375,-0.006935060024261475,-0.0911264419555664,-0.020651578903198242
1772642842413390300,6.350390380859375,-0.02503734827041626,-0.09084129333496094,-0.02744966745376587
1772642842433399600,6.370399658203125,0.030696749687194824,-0.1072854995727539,-0.026726603507995605
1772642842453409000,6.390408935546875,0.03558832406997681,-0.09999656677246094,-0.0271264910697937
1772642842473418500,6.41041845703125,0.0022977590560913086,-0.10466480255126953,0.01632559299468994
1772642842493428000,6.430427978515625,-0.015244901180267334,-0.1234445571899414,0.00830066204071045
1772642842513437400,6.4504375,-0.014103829860687256,-0.12789344787597656,0.0314633846282959
1772642842533447000,6.470447021484375,-0.015587210655212402,-0.0844583511352539,0.035426318645477295
1772642842553456000,6.4904560546875,-0.01221609115600586,-0.10331916809082031,0.02951180934906006
1772642842573465900,6.5104658203125,0.009753942489624023,-0.11029434204101562,0.015673518180847168
1772642842593475300,6.530475341796875,0.015259504318237305,-0.10292625427246094,0.0272674560546875
1772642842613485000,6.550485107421875,0.0005612969398498535,-0.09610843658447266,0.023742616176605225
1772642842633494800,6.570494873046875,-0.02678436040878296,-0.11240673065185547,0.014855623245239258
1772642842653504500,6.59050439453125,-0.010309219360351562,-0.0925140380859375,0.025505900382995605
1772642842673514000,6.610513916015625,0.02906644344329834,-0.12286376953125,0.032909095287323
1772642842693523700,6.630523681640625,0.0425640344619751,-0.10555553436279297,0.04481637477874756
1772642842713533200,6.650533203125,0.0030531883239746094,-0.11948299407958984,-0.025918185710906982
1772642842733543000,6.67054296875,-0.012009620666503906,-0.12865829467773438,-0.030884623527526855
1772642842753552600,6.690552734375,-0.02039504051208496,-0.11616802215576172,0.0063288211822509766
1772642842773562000,6.71056201171875,0.016523301601409912,-0.10821342468261719,-0.017300426959991455
1772642842793571800,6.73057177734375,-0.012694299221038818,-0.14358806610107422,-0.06126624345779419
1772642842813581600,6.75058154296875,0.0439944863319397,-0.09075260162353516,-0.014515876770019531
1772642842833591000,6.770591064453125,0.025265395641326904,-0.1360759735107422,-0.055103302001953125
1772642842853600800,6.790600830078125,0.02370738983154297,-0.14573955535888672,-0.05402284860610962
1772642842873610500,6.810610595703125,-0.001778721809387207,-0.10988426208496094,-0.06485223770141602
1772642842893620000,6.830619873046875,0.01708751916885376,-0.11687660217285156,-0.0654592514038086
1772642842913629700,6.850629638671875,0.0003980398178100586,-0.1312246322631836,-0.054075390100479126
1772642842933639400,6.870639404296875,0.019222676753997803,-0.13843441009521484,-0.04995277523994446
1772642842953649000,6.89064892578125,0.024022221565246582,-0.13127708435058594,-0.03697916865348816
1772642842973658600,6.91065869140625,0.003430783748626709,-0.12165260314941406,-0.018769830465316772
1772642842993668400,6.93066845703125,0.005672812461853027,-0.13829421997070312,0.005533874034881592
1772642843013677800,6.950677734375,0.016222715377807617,-0.12132644653320312,0.026957958936691284
1772642843033687600,6.9706875,-0.009451985359191895,-0.12115287780761719,0.01482275128364563
1772642843053697000,6.990697021484375,0.020715653896331787,-0.12589359283447266,0.023888766765594482
1772642843073705700,7.010705810546875,0.03374218940734863,-0.10432815551757812,0.020725607872009277
1772642843093714700,7.030714599609375,0.052206993103027344,-0.08031940460205078,0.01347261667251587
1772642843113723400,7.050723388671875,0.0536767840385437,-0.10903644561767578,0.03481012582778931
1772642843133732000,7.070732177734375,0.019124746322631836,-0.14016342163085938,0.04644441604614258
1772642843153740800,7.09074072265625,0.005211949348449707,-0.1016988754272461,0.036470890045166016
1772642843173749500,7.11074951171875,0.016486644744873047,-0.09187602996826172,0.004477500915527344
1772642843193758200,7.13075830078125,0.019966840744018555,-0.13181209564208984,-0.015434712171554565
1772642843213767000,7.150766845703125,0.02526479959487915,-0.09096622467041016,-0.013830810785293579
1772642843233775600,7.170775634765625,0.02079916000366211,-0.11484622955322266,-0.01765495538711548
1772642843253784300,7.190784423828125,0.02025771141052246,-0.14120197296142578,-0.00720059871673584
1772642843273793000,7.21079296875,0.034455835819244385,-0.11543560028076172,-0.018563449382781982
1772642843293801700,7.2308017578125,0.015353381633758545,-0.10103225708007812,-0.02524206042289734
1772642843313810700,7.250810791015625,0.003500521183013916,-0.13633346557617188,-0.029582202434539795
1772642843333819400,7.2708193359375,-0.003480970859527588,-0.1290884017944336,-0.021533578634262085
1772642843353828000,7.290828125,0.013970911502838135,-0.10743045806884766,-0.02311307191848755
1772642843373836800,7.3108369140625,0.00717771053314209,-0.11211013793945312,-0.014311343431472778
1772642843393845500,7.330845458984375,-0.018306851387023926,-0.10238170623779297,-0.022417157888412476
1772642843413854200,7.350854248046875,0.004634678363800049,-0.08780384063720703,-0.00628662109375
1772642843433863000,7.37086279296875,0.006247043609619141,-0.10193824768066406,-0.00416642427444458
1772642843453871600,7.39087158203125,0.029815256595611572,-0.13550758361816406,-0.03726324439048767
1772642843473880300,7.41088037109375,0.007560551166534424,-0.1595287322998047,-0.02737325429916382
1772642843493889000,7.430888916015625,-0.0052304863929748535,-0.11858367919921875,-0.056182026863098145
1772642843513898000,7.45089794921875,0.012134194374084473,-0.13997554779052734,-0.05183941125869751
1772642843533906700,7.47090673828125,0.014046430587768555,-0.16868972778320312,-0.05742722749710083
1772642843553915400,7.490915283203125,0.011011898517608643,-0.12079620361328125,-0.05333131551742554
1772642843573924000,7.510924072265625,-0.0037755370140075684,-0.0896615982055664,-0.04947367310523987
1772642843593932800,7.530932861328125,0.022011637687683105,-0.10403060913085938,-0.0273284912109375
1772642843613941500,7.55094140625,0.018664300441741943,-0.1136770248413086,-0.026408135890960693
1772642843633950500,7.570950439453125,0.014870703220367432,-0.10682868957519531,-0.03900611400604248
1772642843653959200,7.590959228515625,0.025605440139770508,-0.09722042083740234,-0.030609995126724243
1772642843673967900,7.6109677734375,-0.0046822428703308105,-0.12088203430175781,0.015970557928085327
1772642843693976800,7.630976806640625,-0.012594163417816162,-0.11099624633789062,0.022211581468582153
1772642843713985500,7.650985595703125,-0.01793086528778076,-0.13223743438720703,0.014128923416137695
1772642843733994200,7.670994140625,0.01006019115447998,-0.11788654327392578,-0.0017015337944030762
1772642843754003200,7.691003173828125,-0.00012475252151489258,-0.10593223571777344,-0.008246272802352905
1772642843774012000,7.711011962890625,0.014336347579956055,-0.08675861358642578,0.02294173836708069
1772642843794020600,7.7310205078125,-0.02850741147994995,-0.12266826629638672,0.003748685121536255
1772642843814029300,7.751029296875,0.026466429233551025,-0.12029361724853516,0.001106172800064087
1772642843834038300,7.771038330078125,-0.031788766384124756,-0.11077690124511719,-0.016196459531784058
1772642843854047000,7.791046875,-0.0050162672996521,-0.1110687255859375,-0.018088102340698242
1772642843874055700,7.8110556640625,0.0026862621307373047,-0.1065816879272461,-0.017971038818359375
1772642843894064400,7.831064453125,0.004851937294006348,-0.12100505828857422,-0.016308486461639404
1772642843914073300,7.8510732421875,-0.002324223518371582,-0.11624622344970703,-0.021809875965118408
1772642843934081800,7.871081787109375,0.0028072595596313477,-0.10187435150146484,-0.02247852087020874
1772642843954090200,7.89109033203125,0.005459189414978027,-0.11149787902832031,-0.00952330231666565
1772642843974098700,7.9110986328125,0.015819072723388672,-0.12109375,-0.01371416449546814
1772642843994107100,7.931107177734375,-0.016763150691986084,-0.09230709075927734,-0.021801352500915527
1772642844014115600,7.951115478515625,0.009421229362487793,-0.11370277404785156,-0.0128345787525177
1772642844034124000,7.9711240234375,-0.0021997690200805664,-0.13045120239257812,-0.022981077432632446
1772642844054132500,7.991132568359375,0.019388794898986816,-0.12087631225585938,-0.03037130832672119
1772642844074145500,8.0111455078125,0.00994110107421875,-0.1185007095336914,-0.04330098628997803
1772642844094158800,8.031158935546875,0.027134478092193604,-0.10172176361083984,-0.03910118341445923
1772642844114172200,8.051172119140626,0.01601308584213257,-0.1184377670288086,-0.03204566240310669
1772642844134185200,8.071185302734374,0.031009972095489502,-0.12557601928710938,-0.04148745536804199
1772642844154198500,8.091198486328125,0.02154439687728882,-0.15673446655273438,-0.03246426582336426
1772642844174211600,8.111211669921875,-0.005999565124511719,-0.1281270980834961,-0.03564709424972534
1772642844194225000,8.131224853515626,0.007061123847961426,-0.11870861053466797,-0.04393628239631653
1772642844214238000,8.151238037109374,-0.017965316772460938,-0.11890316009521484,-0.023765355348587036
1772642844234251300,8.171251220703125,0.035340964794158936,-0.1095428466796875,-0.00147169828414917
1772642844254264300,8.191264404296875,0.021963834762573242,-0.09303855895996094,0.00985303521156311
1772642844274277600,8.211277587890624,-0.007998466491699219,-0.09328269958496094,0.011682957410812378
1772642844294291000,8.231291015625,0.015335440635681152,-0.10541725158691406,0.03346753120422363
1772642844314304000,8.251303955078125,0.0010865330696105957,-0.09354496002197266,0.02438017725944519
1772642844334317300,8.2713173828125,0.010803401470184326,-0.11993408203125,0.022196710109710693
1772642844354330400,8.291330322265624,-0.00399625301361084,-0.1415996551513672,0.027930408716201782
1772642844374343700,8.31134375,-0.01675659418106079,-0.1058034896850586,0.038497716188430786
1772642844394356700,8.331356689453125,0.00015586614608764648,-0.10107612609863281,0.01530998945236206
1772642844414370000,8.3513701171875,0.016445159912109375,-0.1371164321899414,0.015274763107299805
1772642844434383400,8.37138330078125,-0.0024993419647216797,-0.13726329803466797,-0.0067185163497924805
1772642844454396400,8.391396484375,0.006198704242706299,-0.1278514862060547,-0.009184002876281738
1772642844474409700,8.41140966796875,-0.0013201236724853516,-0.10400104522705078,-0.0107136070728302
1772642844494422800,8.4314228515625,0.02004188299179077,-0.10413169860839844,-0.023203790187835693
1772642844514436000,8.45143603515625,0.03438723087310791,-0.10184764862060547,-0.013146549463272095
1772642844534449400,8.471449462890625,-0.004212558269500732,-0.10680007934570312,-0.007883191108703613
1772642844554462500,8.49146240234375,-0.013795554637908936,-0.1476421356201172,-0.027313262224197388
1772642844574472000,8.511471923828125,3.5762786865234375e-7,-0.09986400604248047,-0.01242530345916748
1772642844594481400,8.5314814453125,-0.012645602226257324,-0.08566093444824219,-0.022421151399612427
1772642844614491000,8.551490966796875,0.022750556468963623,-0.10258007049560547,-0.04602932929992676
1772642844634500400,8.571500244140625,0.027346014976501465,-0.11677932739257812,-0.016728460788726807
1772642844654509800,8.591509765625,-0.015211820602416992,-0.111724853515625,-0.013589352369308472
1772642844674519300,8.611519287109376,-0.012326300144195557,-0.10455036163330078,0.000034868717193603516
1772642844694528800,8.63152880859375,-0.014307558536529541,-0.12854480743408203,0.0006412863731384277
1772642844714538200,8.651538330078125,0.00800102949142456,-0.11178207397460938,0.0016413331031799316
1772642844734547700,8.671547607421875,0.04677337408065796,-0.10762310028076172,-0.006625860929489136
1772642844754557200,8.69155712890625,0.02579319477081299,-0.11963272094726562,-0.015386998653411865
1772642844774566700,8.711566650390624,0.03242480754852295,-0.1389617919921875,-0.01524236798286438
1772642844794576400,8.731576416015624,-0.0010983943939208984,-0.11511802673339844,0.014726519584655762
1772642844814585900,8.7515859375,0.038162291049957275,-0.11052131652832031,-0.02584916353225708
1772642844834595300,8.77159521484375,0.02561861276626587,-0.10107421875,-0.010206401348114014
1772642844854604800,8.791604736328125,0.044525980949401855,-0.08438682556152344,-0.026204198598861694
1772642844874614300,8.8116142578125,0.01616513729095459,-0.11803817749023438,-0.006474494934082031
1772642844894623700,8.831623779296875,-0.013689577579498291,-0.12060165405273438,-0.012614965438842773
1772642844914633200,8.85163330078125,0.012949168682098389,-0.1184844970703125,-0.000006854534149169922
1772642844934642700,8.871642578125,0.018517494201660156,-0.08212661743164062,0.0002484917640686035
1772642844954652200,8.891652099609376,0.04615741968154907,-0.1204071044921875,-0.008657634258270264
1772642844974661600,8.91166162109375,0.020132720470428467,-0.1203451156616211,-0.03302270174026489
1772642844994671000,8.931671142578125,-0.01274949312210083,-0.1179952621459961,-0.0037543773651123047
