time,seconds_elapsed,z,y,x
1772642836248039400,0.185039306640625,0.008788423612713814,-0.017576847225427628,-0.004127896390855312
1772642836258045200,0.195045166015625,0.009321056306362152,-0.01704421639442444,-0.0030626326333731413
1772642836268051000,0.205051025390625,0.00719052879139781,-0.014913689345121384,-0.0025300008710473776
1772642836278057000,0.215056884765625,0.005592633504420519,-0.014913689345121384,-0.0025300008710473776
1772642836288062700,0.225062744140625,0.0023968429304659367,-0.009054739959537983,-0.003595264395698905
1772642836298068500,0.235068359375,0.0029294746927917004,-0.007456844672560692,-0.003595264395698905
1772642836308074200,0.24507421875,-0.0007989476434886456,-0.007989476434886456,-0.004127896390855312
1772642836318080300,0.255080322265625,-0.0007989476434886456,-0.0026631588116288185,-0.003595264395698905
1772642836328086000,0.2650859375,-0.0029294746927917004,0.0010652635246515274,-0.004660528153181076
1772642836338091800,0.275091796875,-0.00026631588116288185,0.005858949385583401,-0.0030626326333731413
1772642836348097800,0.285097900390625,-0.0029294746927917004,0.006391581147909164,-0.0009321055840700865
1772642836358103600,0.295103515625,-0.003994738217443228,0.009587371721863747,0.0011984214652329683
1772642836368109300,0.305109375,-0.0023968429304659367,0.010652635246515274,0.0027963167522102594
1772642836378115000,0.315114990234375,-0.0029294746927917004,0.009587371721863747,0.003328948514536023
1772642836388120800,0.325120849609375,-0.0023968429304659367,0.009054739959537983,0.004926843568682671
1772642836398126800,0.335126953125,-0.0013315794058144093,0.006924212910234928,0.003328948514536023
1772642836408132600,0.345132568359375,-0.0007989476434886456,0.009587371721863747,0.0022636849898844957
1772642836418138400,0.355138427734375,0.0023968429304659367,0.012250530533492565,0.00013315794058144093
1772642836428144400,0.365144287109375,0.0045273699797689915,0.012250530533492565,-0.004660528153181076
1772642836438150100,0.375150146484375,0.0029294746927917004,0.009587371721863747,-0.00519315991550684
1772642836448156000,0.385156005859375,0.006125265266746283,0.005858949385583401,-0.006258423440158367
1772642836458161700,0.39516162109375,0.005592633504420519,0.0010652635246515274,-0.006791055202484131
1772642836468167700,0.405167724609375,0.009321056306362152,-0.00426105409860611,-0.00519315991550684
1772642836478173400,0.41517333984375,0.009321056306362152,-0.012783162295818329,-0.004127896390855312
1772642836488179200,0.42517919921875,0.011451583355665207,-0.02077263966202736,-0.004660528153181076
1772642836498185000,0.43518505859375,0.01411474123597145,-0.027164220809936523,-0.0009321055840700865
1772642836508191000,0.44519091796875,0.016777900978922844,-0.025566324591636658,-0.00519315991550684
1772642836518196700,0.45519677734375,0.01837579533457756,-0.026098955422639847,-0.003595264395698905
1772642836528202500,0.465202392578125,0.019973691552877426,-0.019707374274730682,-0.004127896390855312
1772642836538208500,0.47520849609375,0.023702112957835197,-0.017576847225427628,-0.008388950489461422
1772642836548214300,0.48521435546875,0.0189084280282259,-0.022903166711330414,-0.006791055202484131
1772642836558219800,0.4952197265625,0.017310531809926033,-0.022370534017682076,-0.009986845776438713
1772642836568223700,0.5052236328125,0.015712637454271317,-0.02077263966202736,-0.008388950489461422
1772642836578228000,0.51522802734375,0.015712637454271317,-0.02077263966202736,-0.003595264395698905
1772642836588232200,0.525232177734375,0.016245268285274506,-0.021305270493030548,-0.0025300008710473776
1772642836598236400,0.535236328125,0.015180004760622978,-0.014913689345121384,-0.0025300008710473776
1772642836608240400,0.545240478515625,0.014647373929619789,-0.015446321107447147,-0.001997369108721614
1772642836618244600,0.55524462890625,0.013049477711319923,-0.010652635246515274,-0.001997369108721614
1772642836628248800,0.565248779296875,0.009853687137365341,-0.00426105409860611,0.001731053227558732
1772642836638253000,0.575253173828125,0.007723160553723574,-0.001597895286977291,-0.0003994738217443228
1772642836648257000,0.585257080078125,0.006125265266746283,0.004793685860931873,-0.0003994738217443228
1772642836658261200,0.59526123046875,0.0045273699797689915,0.007989476434886456,-0.0030626326333731413
1772642836668265500,0.605265380859375,0.005060001742094755,0.012783162295818329,-0.0009321055840700865
1772642836678269400,0.61526953125,0.005060001742094755,0.01597895286977291,-0.001997369108721614
1772642836688273700,0.625273681640625,0.003462106455117464,0.018642112612724304,0.00013315794058144093
1772642836698278000,0.63527783203125,0.003994738217443228,0.021305270493030548,0.004926843568682671
1772642836708282000,0.6452822265625,0.0023968429304659367,0.02503369376063347,0.003861580276861787
1772642836718286300,0.655286376953125,0.0029294746927917004,0.026631588116288185,0.005459475331008434
1772642836728290300,0.665290283203125,0.0029294746927917004,0.026098955422639847,0.005459475331008434
1772642836738294500,0.67529443359375,0.0023968429304659367,0.0282294824719429,0.005992107093334198
1772642836748298800,0.685298828125,0.0029294746927917004,0.026098955422639847,0.001731053227558732
1772642836758302700,0.695302734375,0.003994738217443228,0.026098955422639847,-0.001997369108721614
1772642836768307000,0.705306884765625,0.0045273699797689915,0.023968428373336792,-0.006791055202484131
1772642836778311200,0.715311279296875,0.0045273699797689915,0.02024000696837902,-0.008388950489461422
1772642836788315400,0.7253154296875,0.006657897029072046,0.015446321107447147,-0.008921582251787186
1772642836798319400,0.7353193359375,0.006657897029072046,0.01438105758279562,-0.008921582251787186
1772642836808323600,0.745323486328125,0.00719052879139781,0.01012000348418951,-0.004660528153181076
1772642836818327800,0.755327880859375,0.00719052879139781,0.009054739959537983,0.00013315794058144093
1772642836828331800,0.765331787109375,0.009853687137365341,0.006391581147909164,0.0022636849898844957
1772642836838336000,0.7753359375,0.01038631983101368,0.00426105409860611,0.0027963167522102594
1772642836848340200,0.78534033203125,0.011984214186668396,0.006391581147909164,0.0027963167522102594
1772642836858344400,0.795344482421875,0.008255792781710625,0.006391581147909164,0.0022636849898844957
1772642836868348700,0.8053486328125,0.006125265266746283,0.006391581147909164,0.0006657897029072046
1772642836878352600,0.8153525390625,0.005060001742094755,0.006924212910234928,0.004926843568682671
1772642836888356900,0.82535693359375,0.0029294746927917004,0.007989476434886456,0.007057370617985725
1772642836898361000,0.835361083984375,0.0029294746927917004,0.003728422336280346,0.00918789766728878
1772642836908365000,0.845364990234375,0.0013315794058144093,0.003728422336280346,0.005992107093334198
1772642836918369300,0.855369384765625,0.0013315794058144093,0.004793685860931873,0.004926843568682671
1772642836928373500,0.86537353515625,0.001864211168140173,0.004793685860931873,0.0022636849898844957
1772642836938377700,0.875377685546875,0.0013315794058144093,0.003195790573954582,0.003861580276861787
1772642836948381700,0.885381591796875,0.00026631588116288185,0.003195790573954582,0.003328948514536023
1772642836958386000,0.895385986328125,-0.0029294746927917004,0.0010652635246515274,0.003328948514536023
1772642836968390100,0.90539013671875,-0.0007989476434886456,-0.0010652635246515274,0.004394211806356907
1772642836978394400,0.915394287109375,0.001864211168140173,0.001597895286977291,0.005459475331008434
1772642836988398300,0.9253984375,0.005060001742094755,0.002130527049303055,0.004926843568682671
1772642836998402600,0.935402587890625,0.003994738217443228,0.00426105409860611,0.004394211806356907
1772642837008406800,0.94540673828125,0.006125265266746283,0.003195790573954582,0.001731053227558732
1772642837018411000,0.955410888671875,0.006125265266746283,0.004793685860931873,0.0011984214652329683
1772642837028415000,0.9654150390625,0.005592633504420519,0.00852210819721222,0.00013315794058144093
1772642837038419200,0.975419189453125,0.0023968429304659367,0.011185267008841038,0.0006657897029072046
1772642837048423400,0.98542333984375,0.0023968429304659367,0.009587371721863747,-0.0003994738217443228
1772642837058427400,0.995427490234375,0.00026631588116288185,0.00426105409860611,-0.0009321055840700865
1772642837068432000,1.005431884765625,-0.0013315794058144093,-0.002130527049303055,0.0006657897029072046
1772642837078436000,1.01543603515625,-0.0023968429304659367,-0.003728422336280346,0.003861580276861787
1772642837088440300,1.0254404296875,-0.001864211168140173,-0.004793685860931873,0.0022636849898844957
1772642837098444500,1.035444580078125,-0.00026631588116288185,-0.005326317623257637,0.004926843568682671
1772642837108449000,1.045448974609375,0.0007989476434886456,-0.00426105409860611,0.003861580276861787
1772642837118453200,1.055453369140625,0.0029294746927917004,-0.006924212910234928,0.003861580276861787
1772642837128457500,1.06545751953125,0.0023968429304659367,-0.009054739959537983,0.0011984214652329683
1772642837138461700,1.075461669921875,0.0029294746927917004,-0.006924212910234928,0.001731053227558732
1772642837148466200,1.085466064453125,0.005592633504420519,-0.01012000348418951,-0.001997369108721614
1772642837158470400,1.095470458984375,0.00719052879139781,-0.009054739959537983,-0.001997369108721614
1772642837168474600,1.105474609375,0.007723160553723574,-0.009587371721863747,-0.0025300008710473776
1772642837178478800,1.115478759765625,0.008788423612713814,-0.009054739959537983,-0.0025300008710473776
1772642837188483000,1.125483154296875,0.008255792781710625,-0.011717898771166801,-0.0057257916778326035
1772642837198487600,1.135487548828125,0.003994738217443228,-0.012783162295818329,-0.0025300008710473776
1772642837208491800,1.14549169921875,0.00719052879139781,-0.006924212910234928,-0.004660528153181076
1772642837218496000,1.15549609375,0.007723160553723574,-0.00852210819721222,-0.0009321055840700865
1772642837228500200,1.165500244140625,0.007723160553723574,-0.009054739959537983,0.0011984214652329683
1772642837238504700,1.175504638671875,0.008788423612713814,-0.006391581147909164,-0.0003994738217443228
1772642837248509000,1.185509033203125,0.009853687137365341,-0.0026631588116288185,-0.0014647373463958502
1772642837258513200,1.19551318359375,0.008255792781710625,-0.0010652635246515274,-0.003595264395698905
1772642837268517400,1.205517333984375,0.008255792781710625,0.0010652635246515274,-0.006791055202484131
1772642837278521900,1.21552197265625,0.010918950662016869,0.0010652635246515274,-0.0073236869648098946
1772642837288526000,1.225526123046875,0.007723160553723574,0.002130527049303055,-0.006258423440158367
1772642837298530300,1.2355302734375,0.009853687137365341,0.001597895286977291,-0.006258423440158367
1772642837308534500,1.245534423828125,0.01038631983101368,0.007989476434886456,-0.004660528153181076
1772642837318538800,1.255538818359375,0.01038631983101368,0.011717898771166801,-0.003595264395698905
1772642837328543200,1.265543212890625,0.010918950662016869,0.013848425820469856,-0.004660528153181076
1772642837338547500,1.27554736328125,0.00719052879139781,0.014913689345121384,-0.004660528153181076
1772642837348551700,1.2855517578125,0.00719052879139781,0.012783162295818329,-0.006791055202484131
1772642837358556000,1.295555908203125,0.005592633504420519,0.013848425820469856,-0.00519315991550684
1772642837368560400,1.305560302734375,0.006657897029072046,0.014913689345121384,-0.00519315991550684
1772642837378564600,1.315564697265625,0.006125265266746283,0.011185267008841038,-0.0009321055840700865
1772642837388568800,1.32556884765625,0.0029294746927917004,0.010652635246515274,0.0011984214652329683
1772642837398573000,1.335572998046875,0.003462106455117464,0.009587371721863747,0.004926843568682671
1772642837408577500,1.34557763671875,0.001864211168140173,0.01012000348418951,0.003328948514536023
1772642837418581800,1.355581787109375,0.001864211168140173,0.009587371721863747,0.0027963167522102594
1772642837428586000,1.3655859375,0.0013315794058144093,0.005858949385583401,0.0022636849898844957
1772642837438590200,1.375590087890625,0.0029294746927917004,0.0026631588116288185,-0.0009321055840700865
1772642837448594400,1.385594482421875,0.0023968429304659367,0.0026631588116288185,0.0022636849898844957
1772642837458599000,1.395598876953125,0.003994738217443228,0.003728422336280346,0.004394211806356907
1772642837468603100,1.40560302734375,0.0045273699797689915,0.00426105409860611,0.005459475331008434
1772642837478607400,1.415607421875,0.0045273699797689915,0.003195790573954582,0.0006657897029072046
1772642837488611600,1.425611572265625,0.0029294746927917004,0.00426105409860611,-0.0009321055840700865
1772642837498616000,1.435615966796875,0.0029294746927917004,0.001597895286977291,0.0006657897029072046
1772642837508620300,1.445620361328125,0.0023968429304659367,0.0010652635246515274,0.0006657897029072046
1772642837518624500,1.45562451171875,0.00026631588116288185,0.0026631588116288185,0.00013315794058144093
1772642837528628700,1.465628662109375,-0.00026631588116288185,0.0026631588116288185,-0.001997369108721614
1772642837538633200,1.47563330078125,0.0007989476434886456,0.0026631588116288185,-0.004127896390855312
1772642837548637400,1.485637451171875,0.0029294746927917004,0.002130527049303055,-0.0009321055840700865
1772642837558641700,1.4956416015625,0.0045273699797689915,0.006924212910234928,-0.0025300008710473776
1772642837568646400,1.505646484375,0.005592633504420519,0.00852210819721222,-0.0014647373463958502
1772642837578651000,1.51565087890625,0.003994738217443228,0.013848425820469856,-0.004660528153181076
1772642837588655400,1.5256552734375,0.005060001742094755,0.013848425820469856,-0.0057257916778326035
1772642837598659800,1.535659912109375,0.005592633504420519,0.014913689345121384,-0.0057257916778326035
1772642837608664600,1.54566455078125,0.0029294746927917004,0.013848425820469856,-0.00519315991550684
1772642837618669000,1.5556689453125,0.00026631588116288185,0.013315794058144093,-0.004660528153181076
1772642837628673500,1.565673583984375,0.0023968429304659367,0.013848425820469856,-0.004660528153181076
1772642837638678000,1.575677978515625,0.003994738217443228,0.014913689345121384,-0.0030626326333731413
1772642837648682800,1.585682861328125,0.005060001742094755,0.018109479919075966,-0.004127896390855312
1772642837658687200,1.595687255859375,0.0045273699797689915,0.02024000696837902,-0.0030626326333731413
1772642837668691700,1.605691650390625,0.0045273699797689915,0.023435797542333603,-0.0057257916778326035
1772642837678696400,1.615696533203125,0.003462106455117464,0.023435797542333603,-0.0073236869648098946
1772642837688701000,1.625700927734375,0.003994738217443228,0.02077263966202736,-0.006791055202484131
1772642837698705400,1.635705322265625,0.0023968429304659367,0.01597895286977291,-0.006791055202484131
1772642837708710000,1.6457099609375,0.0007989476434886456,0.01012000348418951,-0.006258423440158367
1772642837718714600,1.655714599609375,-0.0007989476434886456,0.005326317623257637,-0.004127896390855312
1772642837728719000,1.665718994140625,-0.0013315794058144093,0.003728422336280346,-0.0003994738217443228
1772642837738723600,1.6757236328125,0.00026631588116288185,0.0026631588116288185,0.0027963167522102594
1772642837748728300,1.685728271484375,0.001864211168140173,-0.0005326317623257637,0.003861580276861787
1772642837758732800,1.69573291015625,-0.00026631588116288185,-0.003195790573954582,0.0022636849898844957
1772642837768737300,1.7057373046875,-0.0007989476434886456,-0.005858949385583401,0.001731053227558732
1772642837778741800,1.71574169921875,0.0007989476434886456,-0.009054739959537983,-0.0009321055840700865
1772642837788746500,1.72574658203125,-0.0007989476434886456,-0.012250530533492565,0.001731053227558732
1772642837798751000,1.7357509765625,-0.0023968429304659367,-0.01438105758279562,0.0011984214652329683
1772642837808755500,1.74575537109375,0.0023968429304659367,-0.013315794058144093,-0.0030626326333731413
1772642837818760200,1.75576025390625,0.0007989476434886456,-0.006924212910234928,-0.004660528153181076
1772642837828764700,1.7657646484375,0.001864211168140173,-0.004793685860931873,-0.006258423440158367
1772642837838769200,1.77576904296875,0.0007989476434886456,-0.005858949385583401,-0.00519315991550684
1772642837848773600,1.785773681640625,-0.001864211168140173,-0.001597895286977291,-0.00519315991550684
1772642837858778400,1.7957783203125,-0.0045273699797689915,-0.003195790573954582,-0.001997369108721614
1772642837868782800,1.805782958984375,-0.005592633504420519,-0.00426105409860611,-0.0014647373463958502
1772642837878787300,1.815787353515625,-0.008255792781710625,-0.004793685860931873,0.0011984214652329683
1772642837888791800,1.825791748046875,-0.005592633504420519,-0.0026631588116288185,0.00013315794058144093
1772642837898796500,1.835796630859375,-0.0029294746927917004,-0.0005326317623257637,0.0011984214652329683
1772642837908801000,1.845801025390625,-0.003462106455117464,0.003728422336280346,0.0022636849898844957
1772642837918805500,1.855805419921875,-0.001864211168140173,0.00852210819721222,0.001731053227558732
1772642837928810200,1.865810302734375,-0.001864211168140173,0.011717898771166801,0.0022636849898844957
1772642837938814700,1.875814697265625,-0.00026631588116288185,0.019707374274730682,0.003861580276861787
1772642837948819200,1.885819091796875,-0.0013315794058144093,0.021837901324033737,0.001731053227558732
1772642837958823700,1.89582373046875,-0.0029294746927917004,0.019174743443727493,0.0006657897029072046
1772642837968828400,1.905828369140625,-0.0029294746927917004,0.017576847225427628,-0.0009321055840700865
1772642837978833000,1.9158330078125,-0.0007989476434886456,0.01651158556342125,0.00013315794058144093
1772642837988837400,1.92583740234375,-0.001864211168140173,0.01597895286977291,-0.0014647373463958502
1772642837998841900,1.935841796875,-0.0029294746927917004,0.01438105758279562,-0.0025300008710473776
1772642838008846600,1.9458466796875,-0.001864211168140173,0.011717898771166801,-0.0014647373463958502
1772642838018851000,1.95585107421875,-0.0023968429304659367,0.011185267008841038,0.0006657897029072046
1772642838028855600,1.96585546875,-0.0029294746927917004,0.011717898771166801,-0.0003994738217443228
1772642838038860300,1.9758603515625,-0.0007989476434886456,0.01597895286977291,0.001731053227558732
1772642838048864800,1.98586474609375,-0.00026631588116288185,0.018109479919075966,0.0011984214652329683
1772642838058869200,1.995869140625,-0.0013315794058144093,0.014913689345121384,-0.0003994738217443228
1772642838068873700,2.005873779296875,-0.0023968429304659367,0.012783162295818329,-0.0025300008710473776
1772642838078878200,2.015878173828125,-0.001864211168140173,0.01012000348418951,-0.003595264395698905
1772642838088882700,2.025882568359375,0.0007989476434886456,0,-0.00519315991550684
1772642838098887200,2.03588720703125,0.0023968429304659367,-0.006391581147909164,-0.004127896390855312
1772642838108891600,2.0458916015625,0.0029294746927917004,-0.007456844672560692,0.0011984214652329683
1772642838118896000,2.055896240234375,0.003994738217443228,-0.009054739959537983,0.0006657897029072046
1772642838128900600,2.065900634765625,0.005592633504420519,-0.007989476434886456,0.003328948514536023
1772642838138905000,2.075905029296875,0.005592633504420519,-0.003195790573954582,0.004926843568682671
1772642838148909600,2.08590966796875,0.005060001742094755,0.003728422336280346,0.0022636849898844957
1772642838158914000,2.0959140625,0.005060001742094755,0.007989476434886456,0.0027963167522102594
1772642838168918500,2.10591845703125,0.0045273699797689915,0.006391581147909164,0.003328948514536023
1772642838178923000,2.115923095703125,0.003462106455117464,0.006391581147909164,0.001731053227558732
1772642838188927500,2.125927490234375,0.0023968429304659367,0.005326317623257637,-0.0009321055840700865
1772642838198932000,2.135931884765625,0.0029294746927917004,0.0010652635246515274,-0.00519315991550684
1772642838208936400,2.1459365234375,-0.0007989476434886456,0.00426105409860611,-0.004660528153181076
1772642838218941000,2.15594091796875,-0.00026631588116288185,0.005858949385583401,-0.004127896390855312
1772642838228945400,2.1659453125,-0.0007989476434886456,0.003195790573954582,-0.0009321055840700865
1772642838238950000,2.175949951171875,0.00026631588116288185,0.0010652635246515274,0.0006657897029072046
1772642838248954400,2.185954345703125,-0.0013315794058144093,0.0005326317623257637,0.004926843568682671
1772642838258958800,2.195958740234375,-0.0023968429304659367,0.002130527049303055,0.005459475331008434
1772642838268963300,2.20596337890625,-0.0029294746927917004,0.002130527049303055,0.0027963167522102594
1772642838278967800,2.2159677734375,-0.0045273699797689915,0.0005326317623257637,0.003861580276861787
1772642838288972300,2.22597216796875,-0.005592633504420519,0.001597895286977291,0.005459475331008434
1772642838298976800,2.235976806640625,-0.003994738217443228,0,0.004926843568682671
1772642838308981500,2.2459814453125,-0.0023968429304659367,-0.0010652635246515274,0.005459475331008434
1772642838318986000,2.255986083984375,-0.0029294746927917004,-0.0010652635246515274,0.003328948514536023
1772642838328990500,2.265990478515625,-0.0013315794058144093,-0.002130527049303055,0.0006657897029072046
1772642838338995000,2.275994873046875,-0.0007989476434886456,-0.00426105409860611,0.0011984214652329683
1772642838348999400,2.28599951171875,-0.0029294746927917004,-0.004793685860931873,0.00013315794058144093
1772642838359004000,2.29600390625,-0.003994738217443228,-0.003728422336280346,-0.001997369108721614
1772642838369008400,2.30600830078125,-0.001864211168140173,-0.006391581147909164,-0.0003994738217443228
1772642838379012900,2.316012939453125,-0.00026631588116288185,-0.009587371721863747,-0.0003994738217443228
1772642838389017300,2.326017333984375,-0.0013315794058144093,-0.012783162295818329,-0.0003994738217443228
1772642838399021800,2.336021728515625,0.00026631588116288185,-0.014913689345121384,-0.0014647373463958502
1772642838409026300,2.3460263671875,0.0007989476434886456,-0.019174743443727493,-0.0014647373463958502
1772642838419030800,2.35603076171875,-0.00026631588116288185,-0.017576847225427628,-0.0014647373463958502
1772642838429035300,2.36603515625,-0.0013315794058144093,-0.014913689345121384,-0.0009321055840700865
1772642838439039700,2.376039794921875,-0.001864211168140173,-0.011185267008841038,-0.00519315991550684
1772642838449044200,2.386044189453125,0.00026631588116288185,-0.011717898771166801,-0.01105210930109024
1772642838459048700,2.396048583984375,0.00026631588116288185,-0.010652635246515274,-0.013182636350393295
1772642838469053200,2.40605322265625,-0.001864211168140173,-0.006391581147909164,-0.011584741063416004
1772642838479057700,2.4160576171875,-0.003994738217443228,-0.005326317623257637,-0.008921582251787186
1772642838489062100,2.426062255859375,-0.0029294746927917004,-0.0005326317623257637,-0.00519315991550684
1772642838499066600,2.436066650390625,-0.0029294746927917004,0.004793685860931873,-0.006791055202484131
1772642838509071000,2.446071044921875,-0.0013315794058144093,0.00852210819721222,-0.0073236869648098946
1772642838519075600,2.45607568359375,-0.0045273699797689915,0.01012000348418951,-0.003595264395698905
1772642838529080000,2.466080078125,-0.0023968429304659367,0.014913689345121384,-0.003595264395698905
1772642838539084500,2.47608447265625,-0.006125265266746283,0.017576847225427628,-0.006791055202484131
1772642838549089000,2.486089111328125,-0.005060001742094755,0.022370534017682076,-0.006258423440158367
1772642838559093800,2.49609375,-0.005060001742094755,0.023968428373336792,-0.004660528153181076
1772642838569098800,2.5060986328125,-0.005060001742094755,0.026631588116288185,-0.003595264395698905
1772642838579104000,2.51610400390625,-0.003994738217443228,0.026098955422639847,-0.00519315991550684
1772642838589109000,2.52610888671875,-0.0045273699797689915,0.022903166711330414,-0.00519315991550684
1772642838599114200,2.5361142578125,-0.003994738217443228,0.02024000696837902,-0.003595264395698905
1772642838609119200,2.546119140625,-0.003994738217443228,0.02077263966202736,-0.0009321055840700865
1772642838619124500,2.55612451171875,-0.005060001742094755,0.018642112612724304,-0.0025300008710473776
1772642838629129500,2.56612939453125,-0.006125265266746283,0.015446321107447147,-0.00519315991550684
1772642838639134700,2.576134765625,-0.0045273699797689915,0.012783162295818329,-0.0057257916778326035
1772642838649139700,2.5861396484375,-0.005060001742094755,0.013315794058144093,-0.0057257916778326035
1772642838659144700,2.596144775390625,-0.003994738217443228,0.009054739959537983,-0.004660528153181076
1772642838669150000,2.60614990234375,-0.0029294746927917004,0.007989476434886456,-0.0057257916778326035
1772642838679155000,2.616155029296875,-0.001864211168140173,0.005858949385583401,-0.006258423440158367
1772642838689160200,2.62616015625,-0.0013315794058144093,0.00426105409860611,-0.006791055202484131
1772642838699165200,2.636165283203125,-0.00026631588116288185,0.002130527049303055,-0.0073236869648098946
1772642838709170400,2.64617041015625,-0.0007989476434886456,0.0005326317623257637,-0.010519477538764477
1772642838719175400,2.656175537109375,-0.003462106455117464,-0.005858949385583401,-0.007856318727135658
1772642838729180400,2.666180419921875,-0.003462106455117464,-0.009587371721863747,-0.0073236869648098946
1772642838739185700,2.676185546875,-0.0045273699797689915,-0.01597895286977291,-0.0025300008710473776
1772642838749191000,2.68619091796875,0.00026631588116288185,-0.017576847225427628,0.0011984214652329683
1772642838759196000,2.69619580078125,0.006657897029072046,-0.019174743443727493,0.001731053227558732
1772642838769201000,2.706200927734375,0.014647373929619789,-0.042610540986061096,-0.004127896390855312
1772642838779206100,2.7162060546875,0.029028430581092834,-0.025566324591636658,-0.021704744547605515
1772642838789211100,2.726211181640625,0.032756853848695755,-0.004793685860931873,-0.030226852744817734
1772642838799216400,2.73621630859375,0.03914843499660492,0.002130527049303055,-0.045673172920942307
1772642838809221400,2.746221435546875,0.0306263267993927,-0.007989476434886456,-0.04301001504063606
1772642838819226600,2.7562265625,0.02316948212683201,-0.007456844672560692,-0.03502053767442703
1772642838829231600,2.766231689453125,0.01411474123597145,-0.005326317623257637,-0.01957421749830246
1772642838839236600,2.776236572265625,0.001864211168140173,-0.00852210819721222,-0.0009321055840700865
1772642838849241900,2.786241943359375,-0.009321056306362152,-0.022903166711330414,0.011318424716591835
1772642838859246800,2.796246826171875,-0.013049477711319923,-0.023968428373336792,0.015579478815197945
1772642838869252000,2.806252197265625,-0.015712637454271317,-0.015446321107447147,0.011318424716591835
1772642838879257000,2.816257080078125,-0.014647373929619789,-0.005858949385583401,0.005459475331008434
1772642838889262300,2.826262451171875,-0.012516846880316734,0.003728422336280346,-0.0014647373463958502
1772642838899267300,2.836267333984375,-0.009853687137365341,0.010652635246515274,-0.0030626326333731413
1772642838909272600,2.8462724609375,-0.009321056306362152,0.013848425820469856,-0.0009321055840700865
1772642838919277600,2.856277587890625,-0.010918950662016869,0.015446321107447147,0.003328948514536023
1772642838929282800,2.86628271484375,-0.011451583355665207,0.01012000348418951,0.011851056478917599
1772642838939287800,2.876287841796875,-0.010918950662016869,0.007989476434886456,0.010785792954266071
1772642838949293000,2.88629296875,-0.01038631983101368,0.003195790573954582,0.01344895176589489
1772642838959298000,2.896298095703125,-0.008255792781710625,-0.002130527049303055,0.012383688241243362
1772642838979308300,2.916308349609375,-0.003994738217443228,-0.012783162295818329,0.004926843568682671
1772642838989313300,2.926313232421875,-0.0007989476434886456,-0.013315794058144093,-0.0009321055840700865
1772642838999318500,2.936318603515625,0.0013315794058144093,-0.012250530533492565,-0.0057257916778326035
1772642839009323500,2.946323486328125,0.0007989476434886456,-0.01012000348418951,-0.004127896390855312
1772642839019328800,2.956328857421875,0.0023968429304659367,-0.009587371721863747,-0.0014647373463958502
1772642839029333800,2.966333740234375,0.005060001742094755,-0.01012000348418951,-0.0030626326333731413
1772642839039339000,2.976339111328125,0.007723160553723574,-0.013315794058144093,0.0027963167522102594
1772642839049344000,2.986343994140625,0.008255792781710625,-0.013315794058144093,0.0011984214652329683
1772642839059349000,2.996348876953125,0.008788423612713814,-0.01704421639442444,0.0027963167522102594
1772642839069354000,3.00635400390625,0.00719052879139781,-0.018109479919075966,0.0027963167522102594
1772642839079358700,3.016358642578125,0.005060001742094755,-0.019707374274730682,0.0022636849898844957
1772642839089363700,3.02636376953125,0.001864211168140173,-0.019707374274730682,0.0022636849898844957
1772642839099368700,3.03636865234375,0.0013315794058144093,-0.017576847225427628,0.0022636849898844957
1772642839109373400,3.04637353515625,0.00026631588116288185,-0.010652635246515274,0.0022636849898844957
1772642839119378400,3.05637841796875,-0.00026631588116288185,-0.0026631588116288185,0.001731053227558732
1772642839129383200,3.066383056640625,-0.001864211168140173,-0.002130527049303055,0.004394211806356907
1772642839139388200,3.07638818359375,-0.0023968429304659367,-0.003728422336280346,0.0022636849898844957
1772642839149393200,3.08639306640625,-0.005060001742094755,-0.003195790573954582,0.0006657897029072046
1772642839159398000,3.09639794921875,-0.005060001742094755,-0.005858949385583401,0.0027963167522102594
1772642839169403000,3.10640283203125,-0.00026631588116288185,-0.0010652635246515274,0.003861580276861787
1772642839179407600,3.11640771484375,0.00026631588116288185,0.0026631588116288185,0.003328948514536023
1772642839189412600,3.12641259765625,0.0007989476434886456,0.006391581147909164,0.00013315794058144093
1772642839199417300,3.136417236328125,0.001864211168140173,0.004793685860931873,-0.003595264395698905
1772642839209422300,3.14642236328125,-0.00026631588116288185,0.005326317623257637,-0.001997369108721614
1772642839219427300,3.15642724609375,-0.001864211168140173,0.0026631588116288185,-0.0025300008710473776
1772642839229432000,3.16643212890625,-0.0007989476434886456,0.003195790573954582,-0.001997369108721614
1772642839239437000,3.17643701171875,-0.001864211168140173,-0.0005326317623257637,-0.0009321055840700865
1772642839249441800,3.18644189453125,-0.0013315794058144093,0.0005326317623257637,-0.0009321055840700865
1772642839259446800,3.19644677734375,0.0007989476434886456,0.00426105409860611,-0.0009321055840700865
1772642839269451800,3.20645166015625,0.0029294746927917004,0.00426105409860611,-0.0014647373463958502
1772642839279456500,3.21645654296875,0.0045273699797689915,0.006924212910234928,-0.0009321055840700865
1772642839289461500,3.22646142578125,0.003994738217443228,0.00426105409860611,-0.0009321055840700865
1772642839299466200,3.23646630859375,0.0023968429304659367,0.0026631588116288185,-0.0003994738217443228
1772642839309471200,3.24647119140625,0.0023968429304659367,0.004793685860931873,0.0006657897029072046
1772642839319476200,3.256476318359375,0.0023968429304659367,0.00426105409860611,0.003328948514536023
1772642839329481000,3.26648095703125,0.0007989476434886456,0.0026631588116288185,0.0027963167522102594
1772642839339486000,3.27648583984375,-0.00026631588116288185,0,0.001731053227558732
1772642839349490700,3.28649072265625,-0.001864211168140173,0.0026631588116288185,-0.0014647373463958502
1772642839359495700,3.29649560546875,-0.0007989476434886456,0.002130527049303055,-0.0030626326333731413
1772642839369500400,3.30650048828125,0.00026631588116288185,0.00852210819721222,-0.001997369108721614
1772642839379505400,3.31650537109375,0.001864211168140173,0.013848425820469856,-0.0003994738217443228
1772642839389510400,3.326510498046875,0.0007989476434886456,0.006391581147909164,-0.0014647373463958502
1772642839399515100,3.33651513671875,0.001864211168140173,0.011717898771166801,-0.0057257916778326035
1772642839409520000,3.34652001953125,0.0013315794058144093,0.013315794058144093,-0.004660528153181076
1772642839419524900,3.35652490234375,0.00026631588116288185,0.017576847225427628,-0.00519315991550684
1772642839429529900,3.36652978515625,0.0007989476434886456,0.019707374274730682,-0.0014647373463958502
1772642839439534800,3.376534912109375,-0.0007989476434886456,0.02077263966202736,0.004394211806356907
1772642839449539600,3.38653955078125,-0.00026631588116288185,0.02024000696837902,0.005992107093334198
1772642839459544600,3.396544677734375,-0.0029294746927917004,0.01438105758279562,0.007590002380311489
1772642839469549300,3.40654931640625,-0.0023968429304659367,0.009054739959537983,0.00918789766728878
1772642839479554300,3.41655419921875,0.00026631588116288185,0.003728422336280346,0.007590002380311489
1772642839489559300,3.426559326171875,0.00026631588116288185,0.0026631588116288185,0.007057370617985725
1772642839499564000,3.43656396484375,0.0013315794058144093,0.0010652635246515274,0.004926843568682671
1772642839509569000,3.446569091796875,0.0013315794058144093,-0.001597895286977291,0.003328948514536023
1772642839519573800,3.45657373046875,0.0007989476434886456,-0.0010652635246515274,0.003328948514536023
1772642839529578800,3.466578857421875,0.0013315794058144093,-0.0026631588116288185,-0.0009321055840700865
1772642839539583500,3.47658349609375,0.0029294746927917004,-0.003195790573954582,0.0011984214652329683
1772642839549588500,3.48658837890625,0.001864211168140173,-0.0026631588116288185,-0.0009321055840700865
1772642839559593200,3.49659326171875,0.0045273699797689915,0.0005326317623257637,0.001731053227558732
1772642839569598000,3.506597900390625,0.003994738217443228,-0.005858949385583401,0.001731053227558732
1772642839579602400,3.5166025390625,0.003994738217443228,-0.009587371721863747,0.0006657897029072046
1772642839589607000,3.52660693359375,0.003462106455117464,-0.009587371721863747,0.00013315794058144093
1772642839599611600,3.536611572265625,0.001864211168140173,-0.01012000348418951,0.003328948514536023
1772642839609616100,3.5466162109375,0.003994738217443228,-0.007456844672560692,0.005459475331008434
1772642839619620900,3.556620849609375,0.006657897029072046,-0.006924212910234928,0.007057370617985725
1772642839629625300,3.566625244140625,0.0045273699797689915,-0.00852210819721222,0.005992107093334198
1772642839639629800,3.5766298828125,0.005592633504420519,-0.005858949385583401,0.003861580276861787
1772642839649634600,3.586634521484375,0.007723160553723574,-0.00426105409860611,0.0027963167522102594
1772642839659639000,3.59663916015625,0.003994738217443228,-0.006391581147909164,0.004926843568682671
1772642839669643800,3.606643798828125,0.0013315794058144093,-0.007456844672560692,0.0022636849898844957
1772642839679648300,3.616648193359375,0.00026631588116288185,-0.01012000348418951,0.001731053227558732
1772642839689652700,3.62665283203125,0.0007989476434886456,-0.012250530533492565,0.001731053227558732
1772642839699657500,3.636657470703125,0.0013315794058144093,-0.01438105758279562,0.0011984214652329683
1772642839709662000,3.646661865234375,0.001864211168140173,-0.011717898771166801,0.0022636849898844957
1772642839719666700,3.656666748046875,0.0023968429304659367,-0.011185267008841038,0.0011984214652329683
1772642839729671200,3.666671142578125,-0.00026631588116288185,-0.009054739959537983,-0.0014647373463958502
1772642839739675600,3.676675537109375,-0.0007989476434886456,-0.011717898771166801,-0.004127896390855312
1772642839749680400,3.686680419921875,-0.001864211168140173,-0.009054739959537983,-0.004660528153181076
1772642839759684900,3.696684814453125,-0.0007989476434886456,-0.011717898771166801,-0.0057257916778326035
1772642839769689600,3.706689697265625,-0.00026631588116288185,-0.009587371721863747,-0.001997369108721614
1772642839779694000,3.716694091796875,0.0023968429304659367,-0.005326317623257637,-0.0003994738217443228
1772642839789698600,3.726698486328125,0.0045273699797689915,-0.005858949385583401,0.00013315794058144093
1772642839799703300,3.736703369140625,0.003994738217443228,-0.00426105409860611,0.0022636849898844957
1772642839809707800,3.746707763671875,0.005060001742094755,-0.001597895286977291,0.0027963167522102594
1772642839819712500,3.75671240234375,0.006125265266746283,0.0005326317623257637,0.004394211806356907
1772642839829717000,3.766717041015625,0.005060001742094755,0.003728422336280346,0.003861580276861787
1772642839839721500,3.776721435546875,0.0013315794058144093,0.003728422336280346,0.0022636849898844957
1772642839849726200,3.786726318359375,0.00026631588116288185,0.001597895286977291,0.0022636849898844957
1772642839859730700,3.796730712890625,0.00026631588116288185,0.0010652635246515274,-0.001997369108721614
1772642839869735400,3.8067353515625,0.0013315794058144093,0.001597895286977291,-0.004127896390855312
1772642839879740000,3.816739990234375,0.003462106455117464,0.0005326317623257637,-0.003595264395698905
1772642839889744400,3.826744384765625,0.0045273699797689915,0,-0.004127896390855312
1772642839899749000,3.8367490234375,0.0023968429304659367,-0.001597895286977291,-0.004127896390855312
1772642839909753600,3.846753662109375,0.0029294746927917004,-0.0005326317623257637,-0.003595264395698905
1772642839919758300,3.85675830078125,0.0023968429304659367,0.001597895286977291,-0.0009321055840700865
1772642839929762800,3.8667626953125,0.003994738217443228,0.003195790573954582,-0.0003994738217443228
1772642839939767300,3.876767333984375,0.003462106455117464,0.002130527049303055,-0.0014647373463958502
1772642839949772000,3.88677197265625,0.0029294746927917004,0.0010652635246515274,-0.0003994738217443228
1772642839959776500,3.896776611328125,0.0029294746927917004,0.001597895286977291,-0.003595264395698905
1772642839969781200,3.90678125,0.003994738217443228,0.002130527049303055,-0.0025300008710473776
1772642839979785700,3.91678564453125,0.00026631588116288185,0.0010652635246515274,-0.004127896390855312
1772642839989790200,3.926790283203125,0.0007989476434886456,0.001597895286977291,-0.0025300008710473776
1772642839999795000,3.936794921875,-0.00026631588116288185,0,-0.001997369108721614
1772642840009799400,3.94679931640625,-0.00026631588116288185,0.003195790573954582,-0.0014647373463958502
1772642840019804200,3.95680419921875,0.0007989476434886456,0.001597895286977291,-0.0057257916778326035
1772642840029808600,3.96680859375,0.00026631588116288185,0.0010652635246515274,-0.006258423440158367
1772642840039813000,3.976813232421875,-0.00026631588116288185,-0.0005326317623257637,-0.00519315991550684
1772642840049817900,3.98681787109375,0.0007989476434886456,-0.003195790573954582,-0.003595264395698905
1772642840059822300,3.996822265625,0.00026631588116288185,0,-0.0030626326333731413
1772642840069826800,4.006826904296875,-0.0023968429304659367,-0.003728422336280346,0.0006657897029072046
1772642840079831600,4.01683154296875,-0.0023968429304659367,-0.005858949385583401,-0.0014647373463958502
1772642840089836000,4.0268359375,-0.003994738217443228,-0.005326317623257637,-0.0003994738217443228
1772642840099840500,4.036840576171875,-0.005060001742094755,-0.006391581147909164,0.005992107093334198
1772642840109845000,4.046844970703125,-0.003462106455117464,-0.003728422336280346,0.004926843568682671
1772642840119849700,4.056849609375,-0.005060001742094755,-0.001597895286977291,0.009720529429614544
1772642840129854200,4.066854248046875,-0.003462106455117464,0.0010652635246515274,0.008122634142637253
1772642840139858700,4.076858642578125,-0.0045273699797689915,0.001597895286977291,0.007057370617985725
1772642840149863200,4.08686328125,-0.0045273699797689915,0.002130527049303055,0.007590002380311489
1772642840159868000,4.096867919921875,-0.006125265266746283,0.0005326317623257637,0.003328948514536023
1772642840169872400,4.106872314453125,-0.00719052879139781,0.0010652635246515274,0.0006657897029072046
1772642840179876900,4.116876953125,-0.007723160553723574,0.001597895286977291,-0.0009321055840700865
1772642840189881300,4.12688134765625,-0.008788423612713814,0.0005326317623257637,0.00013315794058144093
1772642840199886000,4.136885986328125,-0.009321056306362152,0.003728422336280346,0.00013315794058144093
1772642840209890600,4.146890625,-0.008788423612713814,0.005326317623257637,-0.0003994738217443228
1772642840219895000,4.15689501953125,-0.0045273699797689915,0.00426105409860611,-0.001997369108721614
1772642840229899500,4.1668994140625,-0.006125265266746283,0.005858949385583401,0.00013315794058144093
1772642840239904300,4.176904296875,-0.005592633504420519,0.004793685860931873,0.0027963167522102594
1772642840249908700,4.18690869140625,-0.003994738217443228,0.005858949385583401,0.005992107093334198
1772642840259913200,4.196913330078125,-0.0029294746927917004,0.0026631588116288185,0.003861580276861787
1772642840269917700,4.206917724609375,-0.003462106455117464,0.0005326317623257637,0.004394211806356907
1772642840279922400,4.21692236328125,-0.005592633504420519,0,0.003861580276861787
1772642840289927000,4.226927001953125,-0.006125265266746283,-0.001597895286977291,0.005459475331008434
1772642840299931400,4.236931396484375,-0.0045273699797689915,-0.002130527049303055,0.005459475331008434
1772642840309935900,4.246935791015625,-0.005060001742094755,-0.005326317623257637,0.004926843568682671
1772642840319940600,4.256940673828125,-0.006125265266746283,-0.006924212910234928,0.004394211806356907
1772642840329945000,4.266945068359375,-0.005592633504420519,-0.011185267008841038,0.004926843568682671
1772642840339949600,4.276949462890625,-0.005060001742094755,-0.011717898771166801,0.007590002380311489
1772642840349954000,4.2869541015625,-0.00719052879139781,-0.013848425820469856,0.004926843568682671
1772642840359958800,4.296958740234375,-0.003994738217443228,-0.014913689345121384,0.004394211806356907
1772642840369963300,4.30696337890625,-0.005060001742094755,-0.018642112612724304,0.003328948514536023
1772642840379967700,4.3169677734375,-0.006125265266746283,-0.018109479919075966,0.003861580276861787
1772642840389972200,4.32697216796875,-0.006125265266746283,-0.01651158556342125,0.0027963167522102594
1772642840399977000,4.33697705078125,-0.005592633504420519,-0.01597895286977291,0.0027963167522102594
1772642840409981400,4.3469814453125,-0.006657897029072046,-0.019174743443727493,0.0006657897029072046
1772642840419986000,4.35698583984375,-0.008788423612713814,-0.017576847225427628,0.004394211806356907
1772642840429990400,4.366990478515625,-0.006657897029072046,-0.01597895286977291,0.006524738855659962
1772642840439995000,4.376994873046875,-0.007723160553723574,-0.013848425820469856,0.006524738855659962
1772642840449999600,4.38699951171875,-0.005592633504420519,-0.012783162295818329,0.006524738855659962
1772642840460004000,4.397004150390625,-0.007723160553723574,-0.013315794058144093,0.003861580276861787
1772642840470008600,4.407008544921875,-0.008255792781710625,-0.011717898771166801,0.0022636849898844957
1772642840480013000,4.417012939453125,-0.008255792781710625,-0.005326317623257637,-0.0003994738217443228
1772642840490017800,4.427017822265625,-0.009321056306362152,-0.004793685860931873,0.0027963167522102594
1772642840500022300,4.437022216796875,-0.008788423612713814,-0.001597895286977291,0.001731053227558732
1772642840510026800,4.44702685546875,-0.008788423612713814,-0.0005326317623257637,0.003328948514536023
1772642840520031200,4.45703125,-0.008788423612713814,0.0005326317623257637,0.005459475331008434
1772642840530036000,4.467035888671875,-0.008788423612713814,0.0026631588116288185,0.004926843568682671
1772642840540040400,4.47704052734375,-0.008788423612713814,0.0026631588116288185,0.004394211806356907
1772642840550045000,4.487044921875,-0.009853687137365341,0.003195790573954582,0.003861580276861787
1772642840560049400,4.49704931640625,-0.01038631983101368,0.001597895286977291,0.0027963167522102594
1772642840570054000,4.507053955078125,-0.01038631983101368,0.001597895286977291,0.001731053227558732
1772642840580058400,4.517058349609375,-0.009853687137365341,0.002130527049303055,-0.0003994738217443228
1772642840590062600,4.5270625,-0.009321056306362152,0.0010652635246515274,0.0011984214652329683
1772642840600067000,4.537067138671875,-0.008788423612713814,0.0026631588116288185,0.0011984214652329683
1772642840610071600,4.547071533203125,-0.008788423612713814,0.0005326317623257637,0.0006657897029072046
1772642840620075800,4.55707568359375,-0.008788423612713814,0.001597895286977291,0.00013315794058144093
1772642840630080300,4.567080322265625,-0.007723160553723574,0.0026631588116288185,0.0011984214652329683
1772642840640084700,4.577084716796875,-0.00719052879139781,0.0005326317623257637,0.001731053227558732
1772642840650089200,4.587089111328125,-0.005060001742094755,0.002130527049303055,0.0027963167522102594
1772642840660093400,4.597093505859375,-0.003462106455117464,0.003728422336280346,0.0011984214652329683
1772642840670098000,4.607097900390625,-0.003994738217443228,0.004793685860931873,0.0011984214652329683
1772642840680102400,4.617102294921875,-0.0029294746927917004,0.002130527049303055,0.0011984214652329683
1772642840690106600,4.627106689453125,-0.005592633504420519,0.001597895286977291,0.004394211806356907
1772642840700111000,4.637111083984375,-0.005592633504420519,-0.003728422336280346,0.004926843568682671
1772642840710115600,4.647115478515625,-0.00719052879139781,-0.006924212910234928,0.0027963167522102594
1772642840720120000,4.6571201171875,-0.007723160553723574,-0.005858949385583401,0.0022636849898844957
1772642840730124300,4.667124267578125,-0.00719052879139781,-0.0005326317623257637,-0.0009321055840700865
1772642840740128800,4.677128662109375,-0.005592633504420519,0.003728422336280346,-0.0009321055840700865
1772642840750133200,4.68713330078125,-0.005060001742094755,0.004793685860931873,-0.0009321055840700865
1772642840760137700,4.6971376953125,-0.007723160553723574,0.009587371721863747,-0.001997369108721614
1772642840770142000,4.707141845703125,-0.00719052879139781,0.005326317623257637,0.0027963167522102594
1772642840780146400,4.717146484375,-0.011451583355665207,0.003728422336280346,0.003861580276861787
1772642840790151000,4.72715087890625,-0.011451583355665207,0.003728422336280346,0.006524738855659962
1772642840800155400,4.7371552734375,-0.010918950662016869,0.005858949385583401,0.004394211806356907
1772642840810159600,4.74715966796875,-0.009321056306362152,0.005326317623257637,0.004926843568682671
1772642840820164000,4.7571640625,-0.009853687137365341,0.001597895286977291,0.0027963167522102594
1772642840830168600,4.76716845703125,-0.009853687137365341,0.001597895286977291,0.004394211806356907
1772642840840173000,4.777173095703125,-0.009853687137365341,0.001597895286977291,0.008122634142637253
1772642840850177300,4.78717724609375,-0.010918950662016869,-0.002130527049303055,0.007590002380311489
1772642840860181800,4.797181640625,-0.011451583355665207,-0.003195790573954582,0.007590002380311489
1772642840870186200,4.807186279296875,-0.009853687137365341,-0.005326317623257637,0.004926843568682671
1772642840880190500,4.8171904296875,-0.009853687137365341,-0.005326317623257637,0.006524738855659962
1772642840890195000,4.82719482421875,-0.009321056306362152,-0.005858949385583401,0.005992107093334198
1772642840900199400,4.837199462890625,-0.005592633504420519,-0.0026631588116288185,0.005459475331008434
1772642840910204000,4.847203857421875,-0.005592633504420519,-0.001597895286977291,0.004394211806356907
1772642840920208100,4.8572080078125,-0.003994738217443228,-0.00426105409860611,0.0027963167522102594
1772642840930212600,4.867212646484375,-0.003462106455117464,-0.010652635246515274,0.0022636849898844957
1772642840940217000,4.877217041015625,-0.0045273699797689915,-0.014913689345121384,0.00013315794058144093
1772642840950221300,4.88722119140625,-0.003462106455117464,-0.021305270493030548,0.0011984214652329683
1772642840960225800,4.897225830078125,-0.0013315794058144093,-0.02024000696837902,0.004394211806356907
1772642840970230300,4.907230224609375,-0.0007989476434886456,-0.022903166711330414,0.003328948514536023
1772642840980234800,4.91723486328125,-0.0023968429304659367,-0.023435797542333603,0.0011984214652329683
1772642840990239000,4.927239013671875,-0.003994738217443228,-0.021305270493030548,0.004394211806356907
1772642841000243500,4.937243408203125,-0.005060001742094755,-0.017576847225427628,0.005992107093334198
1772642841010248000,4.947248046875,-0.003462106455117464,-0.01012000348418951,0.005992107093334198
1772642841020252400,4.95725244140625,-0.003462106455117464,-0.005858949385583401,0.005992107093334198
1772642841030256600,4.967256591796875,-0.003994738217443228,-0.0026631588116288185,0.007057370617985725
1772642841040261000,4.97726123046875,-0.0023968429304659367,-0.0005326317623257637,0.005459475331008434
1772642841050265600,4.987265625,-0.0045273699797689915,0.0005326317623257637,0.003861580276861787
1772642841060270000,4.99727001953125,-0.006125265266746283,0.0026631588116288185,0.0011984214652329683
1772642841070274800,5.00727490234375,-0.0045273699797689915,0.006391581147909164,0.00013315794058144093
1772642841080279800,5.01727978515625,-0.005060001742094755,0.009587371721863747,-0.0014647373463958502
1772642841090284500,5.027284423828125,-0.0045273699797689915,0.011185267008841038,-0.003595264395698905
1772642841100289300,5.037289306640625,-0.005060001742094755,0.015446321107447147,-0.0014647373463958502
1772642841110294000,5.0472939453125,-0.006125265266746283,0.01704421639442444,-0.0003994738217443228
1772642841120298800,5.057298828125,-0.005060001742094755,0.018109479919075966,0.0011984214652329683
1772642841130303500,5.067303466796875,-0.007723160553723574,0.019174743443727493,0.0027963167522102594
1772642841140308500,5.07730859375,-0.010918950662016869,0.018642112612724304,0.0022636849898844957
1772642841150313200,5.087313232421875,-0.008255792781710625,0.017576847225427628,0.0022636849898844957
1772642841160318000,5.09731787109375,-0.011451583355665207,0.018109479919075966,0.001731053227558732
1772642841170322700,5.10732275390625,-0.008788423612713814,0.01704421639442444,0.0027963167522102594
1772642841180327700,5.11732763671875,-0.009321056306362152,0.017576847225427628,0.003861580276861787
1772642841190332400,5.12733251953125,-0.01038631983101368,0.01597895286977291,0.004926843568682671
1772642841200337200,5.137337158203125,-0.011984214186668396,0.01651158556342125,0.003328948514536023
1772642841210342000,5.147341796875,-0.012516846880316734,0.011185267008841038,0.0006657897029072046
1772642841220346600,5.1573466796875,-0.01038631983101368,0.011717898771166801,0.0006657897029072046
1772642841230351600,5.1673515625,-0.010918950662016869,0.010652635246515274,0.00013315794058144093
1772642841240356400,5.1773564453125,-0.01038631983101368,0.006924212910234928,-0.0003994738217443228
1772642841250361000,5.187361083984375,-0.00719052879139781,0.003728422336280346,0.0006657897029072046
1772642841260365800,5.19736572265625,-0.008255792781710625,0.0026631588116288185,0.0011984214652329683
1772642841270370800,5.207370849609375,-0.006657897029072046,0.0005326317623257637,0.001731053227558732
1772642841280375600,5.21737548828125,-0.008255792781710625,0,-0.0003994738217443228
1772642841290380300,5.22738037109375,-0.011451583355665207,-0.001597895286977291,0.0011984214652329683
1772642841300385000,5.237385009765625,-0.011451583355665207,0.002130527049303055,-0.0003994738217443228
1772642841310389800,5.2473896484375,-0.013582110404968262,-0.003195790573954582,-0.0014647373463958502
1772642841320394500,5.25739453125,-0.015180004760622978,-0.009054739959537983,-0.001997369108721614
1772642841330399500,5.2673994140625,-0.01411474123597145,-0.01012000348418951,0.0006657897029072046
1772642841340404200,5.277404296875,-0.012516846880316734,-0.006391581147909164,0.001731053227558732
1772642841350409000,5.287408935546875,-0.011984214186668396,-0.00426105409860611,0.003861580276861787
1772642841360413700,5.29741357421875,-0.016777900978922844,0.001597895286977291,0.005992107093334198
1772642841370418400,5.30741845703125,-0.023702112957835197,0.01597895286977291,0.004926843568682671
1772642841380423400,5.31742333984375,-0.030093694105744362,0.026631588116288185,0.005459475331008434
1772642841390428200,5.32742822265625,-0.03914843499660492,0.03355580195784569,-0.0073236869648098946
1772642841400433000,5.337432861328125,-0.04767054319381714,0.03568632900714874,-0.014247899875044823
1772642841410437600,5.347437744140625,-0.057257913053035736,0.03142527490854263,-0.021704744547605515
1772642841420442600,5.357442626953125,-0.06578002125024796,0.017576847225427628,-0.02703106217086315
1772642841430447400,5.367447265625,-0.0732368677854538,-0.0010652635246515274,-0.029161589220166206
1772642841440452000,5.3774521484375,-0.07536739110946655,-0.01704421639442444,-0.03129211440682411
1772642841450456800,5.387456787109375,-0.06631265580654144,-0.026631588116288185,-0.021704744547605515
1772642841460461600,5.397461669921875,-0.061518967151641846,-0.0330231711268425,-0.008388950489461422
1772642841470466600,5.407466552734375,-0.05992107465863228,-0.04527369886636734,0.008655265904963017
1772642841480471300,5.41747119140625,-0.04340948909521103,-0.047936856746673584,0.02090579643845558
1772642841490476000,5.42747607421875,-0.032224223017692566,-0.055926334112882614,0.03475422412157059
1772642841500480800,5.437480712890625,-0.015712637454271317,-0.054861072450876236,0.048070017248392105
1772642841510485800,5.44748583984375,-0.006125265266746283,-0.051665280014276505,0.05392896756529808
1772642841520490500,5.457490478515625,0.008788423612713814,-0.04953475296497345,0.05126580595970154
1772642841530495200,5.4674951171875,0.016245268285274506,-0.043143171817064285,0.04221106693148613
1772642841540500000,5.4775,0.02263684943318367,-0.03675159066915512,0.027830010280013084
1772642841550504700,5.487504638671875,0.025300009176135063,-0.0330231711268425,0.012916320003569126
1772642841560509400,5.497509521484375,0.024767376482486725,-0.0330231711268425,0.0006657897029072046
1772642841570513700,5.507513671875,0.027963167056441307,-0.03142527490854263,-0.006258423440158367
1772642841580518000,5.517517822265625,0.028495799750089645,-0.02450106106698513,-0.010519477538764477
1772642841590522000,5.527522216796875,0.03169158846139908,-0.01438105758279562,-0.010519477538764477
1772642841600526300,5.5375263671875,0.03169158846139908,-0.007456844672560692,-0.008921582251787186
1772642841610530800,5.54753076171875,0.03115895763039589,-0.002130527049303055,-0.006791055202484131
1772642841620535000,5.55753515625,0.03169158846139908,0.004793685860931873,-0.00519315991550684
1772642841630539300,5.567539306640625,0.033289484679698944,0.011717898771166801,-0.004660528153181076
1772642841640543500,5.57754345703125,0.03968106582760811,0.021305270493030548,-0.0025300008710473776
1772642841650547700,5.587547607421875,0.04234422370791435,0.027164220809936523,0.0006657897029072046
1772642841660552000,5.597552001953125,0.04181159287691116,0.030360009521245956,0.001731053227558732
1772642841670556200,5.60755615234375,0.03808316960930824,0.03355580195784569,-0.0003994738217443228
1772642841680560600,5.617560546875,0.030093694105744362,0.038882117718458176,-0.001997369108721614
1772642841690564900,5.62756494140625,0.02210421860218048,0.05006738752126694,-0.00519315991550684
1772642841700569000,5.637569091796875,0.01411474123597145,0.06231791526079178,-0.008921582251787186
1772642841710573300,5.6475732421875,0.007723160553723574,0.06817686557769775,-0.012650004588067532
1772642841720577500,5.65757763671875,0.005060001742094755,0.07456845045089722,-0.012650004588067532
1772642841730582000,5.66758203125,0.0013315794058144093,0.07669897377490997,-0.01105210930109024
1772642841740586200,5.677586181640625,-0.003462106455117464,0.07669897377490997,-0.01105210930109024
1772642841750590500,5.687590576171875,-0.005592633504420519,0.07936213165521622,-0.011584741063416004
1772642841760594700,5.6975947265625,-0.008788423612713814,0.0804273933172226,-0.012650004588067532
1772642841770599000,5.707598876953125,-0.01038631983101368,0.08149266242980957,-0.013182636350393295
1772642841780603100,5.71760302734375,-0.013049477711319923,0.08628634363412857,-0.013182636350393295
1772642841790607600,5.727607666015625,-0.007723160553723574,0.08735160529613495,-0.013182636350393295
1772642841800611800,5.73761181640625,-0.008255792781710625,0.08522108197212219,-0.00945421401411295
1772642841810616000,5.747615966796875,-0.009321056306362152,0.07456845045089722,-0.004660528153181076
1772642841820620300,5.757620361328125,-0.01038631983101368,0.06711160391569138,-0.0030626326333731413
1772642841830624500,5.76762451171875,-0.013582110404968262,0.05273054540157318,-0.004127896390855312
1772642841840629000,5.77762890625,-0.016245268285274506,0.03408843278884888,-0.003595264395698905
1772642841850633200,5.78763330078125,-0.01837579533457756,0.01597895286977291,-0.006258423440158367
1772642841860637400,5.797637451171875,-0.017310531809926033,0.002130527049303055,-0.00519315991550684
1772642841870641700,5.8076416015625,-0.013049477711319923,-0.009587371721863747,-0.007856318727135658
1772642841880646000,5.81764599609375,-0.011451583355665207,-0.01597895286977291,-0.006258423440158367
1772642841900654600,5.837654541015625,-0.005060001742094755,-0.027164220809936523,-0.0057257916778326035
1772642841910658800,5.847658935546875,-0.0023968429304659367,-0.030360009521245956,-0.00519315991550684
1772642841920663000,5.8576630859375,-0.0013315794058144093,-0.03195790573954582,-0.0030626326333731413
1772642841930667300,5.867667236328125,0.0029294746927917004,-0.03621895983815193,0.001731053227558732
1772642841940671500,5.87767138671875,0.008255792781710625,-0.03834948688745499,0.0027963167522102594
1772642841950675700,5.88767578125,0.012516846880316734,-0.038882117718458176,0.007057370617985725
1772642841960680200,5.89768017578125,0.016245268285274506,-0.04207791015505791,0.007590002380311489
1772642841970684400,5.907684326171875,0.0189084280282259,-0.042610540986061096,0.00918789766728878
1772642841980688600,5.917688720703125,0.019441058859229088,-0.042610540986061096,0.00918789766728878
1772642841990692900,5.92769287109375,0.020506322383880615,-0.03728422522544861,0.007590002380311489
1772642842000697000,5.937697021484375,0.021038955077528954,-0.03728422522544861,0.006524738855659962
1772642842010701300,5.947701416015625,0.0189084280282259,-0.03568632900714874,0.005992107093334198
1772642842020705800,5.957705810546875,0.017310531809926033,-0.030892642214894295,0.005459475331008434
1772642842030710000,5.9677099609375,0.017310531809926033,-0.02450106106698513,0.004926843568682671
1772642842040714200,5.97771435546875,0.016777900978922844,-0.02077263966202736,0.001731053227558732
1772642842050718500,5.987718505859375,0.013582110404968262,-0.013848425820469856,0.0027963167522102594
1772642842060723000,5.997722900390625,0.009853687137365341,-0.014913689345121384,0.003328948514536023
1772642842070727700,6.007727783203125,0.006657897029072046,-0.011717898771166801,0.005992107093334198
1772642842080732400,6.017732421875,0.0029294746927917004,-0.011185267008841038,0.005459475331008434
1772642842090737200,6.027737060546875,0.0023968429304659367,-0.013315794058144093,0.008122634142637253
1772642842100741600,6.03774169921875,-0.00026631588116288185,-0.012783162295818329,0.00918789766728878
1772642842110746400,6.047746337890625,0.0013315794058144093,-0.013848425820469856,0.00918789766728878
1772642842120751000,6.057751220703125,0.0013315794058144093,-0.01651158556342125,0.006524738855659962
1772642842130755800,6.067755859375,0.0013315794058144093,-0.01704421639442444,0.004926843568682671
1772642842140760600,6.077760498046875,0.0029294746927917004,-0.01651158556342125,0.004394211806356907
1772642842150765300,6.087765380859375,0.0023968429304659367,-0.013848425820469856,0.003861580276861787
1772642842160770000,6.09777001953125,0.005060001742094755,-0.012250530533492565,0.006524738855659962
1772642842170774800,6.10777490234375,0.0045273699797689915,-0.01438105758279562,0.009720529429614544
1772642842180779500,6.117779541015625,0.0045273699797689915,-0.012783162295818329,0.00918789766728878
1772642842190784300,6.1277841796875,0.007723160553723574,-0.013848425820469856,0.011851056478917599
1772642842200789000,6.1377890625,0.008788423612713814,-0.014913689345121384,0.010785792954266071
1772642842210793700,6.147793701171875,0.009321056306362152,-0.017576847225427628,0.007590002380311489
1772642842220798200,6.157798095703125,0.010918950662016869,-0.022903166711330414,0.003328948514536023
1772642842230803000,6.167802978515625,0.009321056306362152,-0.029294747859239578,0.0027963167522102594
1772642842240807700,6.1778076171875,0.009321056306362152,-0.029827378690242767,0.0011984214652329683
1772642842250812400,6.1878125,0.01038631983101368,-0.0282294824719429,0.003328948514536023
1772642842260817200,6.197817138671875,0.00719052879139781,-0.023968428373336792,0.0027963167522102594
1772642842270822000,6.20782177734375,0.008255792781710625,-0.019707374274730682,0.003861580276861787
1772642842280826600,6.21782666015625,0.009321056306362152,-0.011717898771166801,0.003861580276861787
1772642842290831400,6.227831298828125,0.007723160553723574,-0.007989476434886456,0.0011984214652329683
1772642842300836000,6.237836181640625,0.003462106455117464,-0.007456844672560692,0.00013315794058144093
1772642842310840800,6.2478408203125,0.00026631588116288185,-0.006391581147909164,0.001731053227558732
1772642842320845300,6.25784521484375,-0.0013315794058144093,-0.005858949385583401,0.001731053227558732
1772642842330850000,6.26785009765625,-0.0007989476434886456,-0.00852210819721222,0.0006657897029072046
1772642842340854800,6.277854736328125,-0.0013315794058144093,-0.006924212910234928,0.0006657897029072046
1772642842350859500,6.287859619140625,-0.00026631588116288185,-0.0026631588116288185,-0.001997369108721614
1772642842360864300,6.2978642578125,0.0029294746927917004,-0.001597895286977291,-0.004127896390855312
1772642842370869000,6.307868896484375,0.005060001742094755,0.003728422336280346,-0.0030626326333731413
1772642842380873700,6.317873779296875,0.006125265266746283,0.003728422336280346,-0.00519315991550684
1772642842390878500,6.32787841796875,0.01038631983101368,0.00426105409860611,-0.004127896390855312
1772642842400883200,6.33788330078125,0.011984214186668396,0.0026631588116288185,-0.004660528153181076
1772642842410888000,6.347887939453125,0.015712637454271317,0.0005326317623257637,-0.00519315991550684
1772642842420892700,6.357892578125,0.017310531809926033,-0.0005326317623257637,-0.0057257916778326035
1772642842430897400,6.3678974609375,0.01784316450357437,-0.001597895286977291,-0.006791055202484131
1772642842440902000,6.37790185546875,0.017310531809926033,0.0005326317623257637,-0.0073236869648098946
1772642842450906600,6.38790673828125,0.019441058859229088,0,-0.009986845776438713
1772642842460911400,6.397911376953125,0.019973691552877426,-0.002130527049303055,-0.011584741063416004
1772642842470916000,6.407916015625,0.020506322383880615,-0.003195790573954582,-0.01105210930109024
1772642842480920800,6.4179208984375,0.020506322383880615,-0.0005326317623257637,-0.008388950489461422
1772642842490925600,6.427925537109375,0.019973691552877426,0.0005326317623257637,-0.008388950489461422
1772642842500930300,6.437930419921875,0.020506322383880615,0.003195790573954582,-0.006258423440158367
1772642842510935000,6.44793505859375,0.019973691552877426,0.006391581147909164,-0.006791055202484131
1772642842520939800,6.457939697265625,0.021038955077528954,0.007456844672560692,-0.004660528153181076
1772642842530944500,6.467944580078125,0.019973691552877426,0.006924212910234928,-0.004660528153181076
1772642842540949200,6.47794921875,0.019441058859229088,0.009054739959537983,-0.00519315991550684
1772642842550953700,6.48795361328125,0.01784316450357437,0.011185267008841038,-0.006258423440158367
1772642842560958500,6.49795849609375,0.016245268285274506,0.012783162295818329,-0.003595264395698905
1772642842570963500,6.50796337890625,0.01411474123597145,0.011717898771166801,-0.0030626326333731413
1772642842580968200,6.51796826171875,0.01038631983101368,0.011185267008841038,-0.003595264395698905
1772642842590973000,6.527972900390625,0.01038631983101368,0.012250530533492565,-0.0030626326333731413
1772642842600978000,6.53797802734375,0.009321056306362152,0.00852210819721222,-0.007856318727135658
1772642842610982700,6.547982666015625,0.007723160553723574,0.007456844672560692,-0.014247899875044823
1772642842620987400,6.5579873046875,0.008255792781710625,0.006924212910234928,-0.014247899875044823
1772642842630992400,6.567992431640625,0.010918950662016869,0.013315794058144093,-0.014780531637370586
1772642842640997000,6.5779970703125,0.014647373929619789,0.013848425820469856,-0.013715268112719059
1772642842651001900,6.588001953125,0.01837579533457756,0.013848425820469856,-0.012650004588067532
1772642842661006800,6.5980068359375,0.02263684943318367,0.012783162295818329,-0.013182636350393295
1772642842671011600,6.608011474609375,0.028495799750089645,0.01597895286977291,-0.011584741063416004
1772642842681016300,6.618016357421875,0.0306263267993927,0.01438105758279562,-0.008388950489461422
1772642842691021300,6.628021240234375,0.035420011729002,0.014913689345121384,-0.009986845776438713
1772642842701026000,6.638026123046875,0.03914843499660492,0.009587371721863747,-0.006258423440158367
1772642842711030800,6.64803076171875,0.03115895763039589,0.010652635246515274,-0.004660528153181076
1772642842721035800,6.658035888671875,0.027963167056441307,0.012783162295818329,-0.006258423440158367
1772642842731040500,6.66804052734375,0.021038955077528954,0.018109479919075966,-0.009986845776438713
1772642842741045200,6.678045166015625,0.019441058859229088,0.01597895286977291,-0.014780531637370586
1772642842751050200,6.68805029296875,0.017310531809926033,0.013315794058144093,-0.018508953973650932
1772642842761055000,6.698054931640625,0.015180004760622978,0.005858949385583401,-0.02010684832930565
1772642842771059700,6.708059814453125,0.013582110404968262,0.001597895286977291,-0.01957421749830246
1772642842781064700,6.718064697265625,0.013049477711319923,-0.0010652635246515274,-0.014780531637370586
1772642842791069400,6.7280693359375,0.008255792781710625,0.005858949385583401,-0.00945421401411295
1772642842801074200,6.73807421875,0.011984214186668396,0.007456844672560692,-0.0014647373463958502
1772642842811079200,6.7480791015625,0.01837579533457756,-0.003195790573954582,0.003328948514536023
1772642842821084000,6.758083984375,0.016777900978922844,-0.003195790573954582,0.0011984214652329683
1772642842831088600,6.768088623046875,0.01411474123597145,-0.002130527049303055,-0.001997369108721614
1772642842841093600,6.77809375,0.013582110404968262,-0.0026631588116288185,-0.003595264395698905
1772642842851098400,6.788098388671875,0.017310531809926033,-0.006924212910234928,-0.001997369108721614
1772642842861103000,6.79810302734375,0.015712637454271317,-0.01012000348418951,-0.003595264395698905
1772642842871108000,6.808108154296875,0.016245268285274506,-0.007989476434886456,-0.001997369108721614
1772642842881112800,6.81811279296875,0.019973691552877426,-0.012783162295818329,-0.001997369108721614
1772642842891117600,6.82811767578125,0.02263684943318367,-0.015446321107447147,0.0027963167522102594
1772642842901122600,6.83812255859375,0.02263684943318367,-0.02024000696837902,0.007590002380311489
1772642842911127300,6.848127197265625,0.02316948212683201,-0.023968428373336792,0.012916320003569126
1772642842921132000,6.858132080078125,0.02210421860218048,-0.025566324591636658,0.016644742339849472
1772642842931136800,6.86813671875,0.023702112957835197,-0.027164220809936523,0.015046847052872181
1772642842941141800,6.878141845703125,0.021571585908532143,-0.02876211516559124,0.014514215290546417
1772642842951146500,6.888146484375,0.0189084280282259,-0.03195790573954582,0.013981583528220654
1772642842961151500,6.8981513671875,0.019441058859229088,-0.034621063619852066,0.012383688241243362
1772642842971156200,6.90815625,0.020506322383880615,-0.03621895983815193,0.009720529429614544
1772642842981161000,6.918160888671875,0.017310531809926033,-0.03195790573954582,0.004926843568682671
1772642842991166000,6.928166015625,0.016245268285274506,-0.027696851640939713,0.0022636849898844957
1772642843001170700,6.938170654296875,0.016245268285274506,-0.02503369376063347,-0.0009321055840700865
1772642843011175400,6.948175537109375,0.013582110404968262,-0.023435797542333603,-0.004660528153181076
1772642843021180200,6.95818017578125,0.012516846880316734,-0.02077263966202736,-0.003595264395698905
1772642843031185200,6.96818505859375,0.014647373929619789,-0.019707374274730682,-0.001997369108721614
1772642843041190000,6.97818994140625,0.011984214186668396,-0.017576847225427628,0.0006657897029072046
1772642843051195000,6.98819482421875,0.013049477711319923,-0.01597895286977291,0.004394211806356907
1772642843061199400,6.998199462890625,0.011451583355665207,-0.01651158556342125,0.005459475331008434
1772642843071203600,7.00820361328125,0.011451583355665207,-0.012250530533492565,0.005459475331008434
1772642843081208000,7.0182080078125,0.011984214186668396,-0.007989476434886456,0.004926843568682671
1772642843091212300,7.02821240234375,0.011984214186668396,-0.005858949385583401,0.0027963167522102594
1772642843101216800,7.038216796875,0.012516846880316734,-0.003195790573954582,0.003861580276861787
1772642843111221000,7.048220947265625,0.012516846880316734,-0.003195790573954582,0.003861580276861787
1772642843121225500,7.0582255859375,0.009853687137365341,0.0010652635246515274,0.005459475331008434
1772642843131230000,7.06822998046875,0.01038631983101368,0.003195790573954582,0.005459475331008434
1772642843141234200,7.078234130859375,0.010918950662016869,0.006391581147909164,0.0027963167522102594
1772642843151238700,7.08823876953125,0.009853687137365341,0.009587371721863747,-0.0030626326333731413
1772642843161243000,7.098242919921875,0.01038631983101368,0.011717898771166801,-0.0073236869648098946
1772642843171247400,7.108247314453125,0.008255792781710625,0.01438105758279562,-0.00945421401411295
1772642843181251600,7.11825146484375,0.00719052879139781,0.015446321107447147,-0.00945421401411295
1772642843191256000,7.128256103515625,0.008788423612713814,0.017576847225427628,-0.0057257916778326035
1772642843201260300,7.13826025390625,0.007723160553723574,0.017576847225427628,-0.0057257916778326035
1772642843211264800,7.1482646484375,0.006657897029072046,0.01651158556342125,-0.003595264395698905
1772642843221269200,7.158269287109375,0.003994738217443228,0.015446321107447147,-0.0030626326333731413
1772642843231273500,7.1682734375,0.0029294746927917004,0.015446321107447147,-0.001997369108721614
1772642843241278000,7.17827783203125,0.003994738217443228,0.013315794058144093,-0.0009321055840700865
1772642843251282200,7.1882822265625,0.003462106455117464,0.012783162295818329,0.003328948514536023
1772642843261286700,7.19828662109375,0.0029294746927917004,0.01597895286977291,0.0006657897029072046
1772642843271291000,7.208290771484375,0.0007989476434886456,0.01597895286977291,-0.0003994738217443228
1772642843281295400,7.21829541015625,0.001864211168140173,0.01012000348418951,0.00013315794058144093
1772642843291299600,7.228299560546875,0.0013315794058144093,0.004793685860931873,-0.0014647373463958502
1772642843301304000,7.238303955078125,0.0013315794058144093,0.005326317623257637,-0.0009321055840700865
1772642843311308300,7.248308349609375,0.0007989476434886456,0.007456844672560692,-0.0003994738217443228
1772642843321312800,7.258312744140625,0.003994738217443228,0.007989476434886456,-0.001997369108721614
1772642843331317200,7.268317138671875,0.0023968429304659367,0.013315794058144093,-0.0009321055840700865
1772642843341321500,7.278321533203125,0.0029294746927917004,0.010652635246515274,-0.001997369108721614
1772642843351326000,7.288325927734375,0.0029294746927917004,0.012250530533492565,-0.00519315991550684
1772642843361330200,7.298330078125,0.005060001742094755,0.01012000348418951,-0.0030626326333731413
1772642843371334700,7.308334716796875,0.007723160553723574,0.012250530533492565,-0.0025300008710473776
1772642843381339000,7.3183388671875,0.007723160553723574,0.009587371721863747,-0.0025300008710473776
1772642843391343400,7.32834326171875,0.005592633504420519,0.010652635246515274,-0.00519315991550684
1772642843401347600,7.33834765625,0.006657897029072046,0.011185267008841038,-0.006258423440158367
1772642843411352000,7.34835205078125,0.008788423612713814,0.01012000348418951,-0.0073236869648098946
1772642843421356500,7.3583564453125,0.008255792781710625,0.012783162295818329,-0.008921582251787186
1772642843431360800,7.36836083984375,0.008255792781710625,0.014913689345121384,-0.008388950489461422
1772642843441365000,7.378364990234375,0.012516846880316734,0.014913689345121384,-0.010519477538764477
1772642843451369500,7.388369384765625,0.010918950662016869,0.01651158556342125,-0.009986845776438713
1772642843461374000,7.3983740234375,0.011451583355665207,0.015446321107447147,-0.007856318727135658
1772642843471378200,7.408378173828125,0.01038631983101368,0.015446321107447147,-0.007856318727135658
1772642843481382700,7.418382568359375,0.009853687137365341,0.01597895286977291,-0.006258423440158367
1772642843491387000,7.428386962890625,0.009853687137365341,0.013848425820469856,-0.007856318727135658
1772642843501391400,7.438391357421875,0.009853687137365341,0.01012000348418951,-0.0073236869648098946
1772642843511395600,7.4483955078125,0.008788423612713814,0.006391581147909164,-0.00519315991550684
1772642843521400000,7.458400146484375,0.007723160553723574,0.005326317623257637,-0.0009321055840700865
1772642843531404300,7.468404296875,0.006657897029072046,0.00426105409860611,0.001731053227558732
1772642843541408800,7.47840869140625,0.008255792781710625,0.002130527049303055,0.003861580276861787
1772642843551413200,7.488413330078125,0.005060001742094755,0.0026631588116288185,0.004926843568682671
1772642843561417500,7.49841748046875,0.006657897029072046,0.0010652635246515274,0.004926843568682671
1772642843571422000,7.508421875,0.005592633504420519,-0.002130527049303055,0.004394211806356907
1772642843581426200,7.51842626953125,0.005060001742094755,-0.006924212910234928,0.0022636849898844957
1772642843591430700,7.5284306640625,0.003462106455117464,-0.011717898771166801,0.0011984214652329683
1772642843601435100,7.53843505859375,0.003994738217443228,-0.01597895286977291,0.003861580276861787
1772642843611439400,7.548439453125,0.005592633504420519,-0.01704421639442444,0.007057370617985725
1772642843621443800,7.55844384765625,0.007723160553723574,-0.017576847225427628,0.00918789766728878
1772642843631448000,7.568447998046875,0.01038631983101368,-0.01597895286977291,0.007590002380311489
1772642843641452500,7.57845263671875,0.01038631983101368,-0.017576847225427628,0.006524738855659962
1772642843651457000,7.58845703125,0.01038631983101368,-0.01704421639442444,0.003328948514536023
1772642843661461200,7.598461181640625,0.011451583355665207,-0.01704421639442444,0.004394211806356907
1772642843671465700,7.6084658203125,0.009853687137365341,-0.01651158556342125,0.005459475331008434
1772642843681470200,7.61847021484375,0.009321056306362152,-0.01704421639442444,0.005459475331008434
1772642843691474400,7.628474365234375,0.009321056306362152,-0.014913689345121384,0.003861580276861787
1772642843701479000,7.63847900390625,0.008788423612713814,-0.01597895286977291,0.004926843568682671
1772642843711483400,7.6484833984375,0.008788423612713814,-0.009587371721863747,0.003328948514536023
1772642843721487600,7.658487548828125,0.00719052879139781,-0.00852210819721222,0.003861580276861787
1772642843731492000,7.6684921875,0.005060001742094755,-0.005858949385583401,0.003861580276861787
1772642843741496600,7.67849658203125,0.003994738217443228,-0.005326317623257637,0.004394211806356907
1772642843751500800,7.688500732421875,0.003994738217443228,-0.003195790573954582,0.003861580276861787
1772642843761505300,7.69850537109375,0.0029294746927917004,-0.003195790573954582,0.00013315794058144093
1772642843771509800,7.708509765625,-0.00026631588116288185,-0.00426105409860611,0.00013315794058144093
1772642843781514000,7.718513916015625,0.0013315794058144093,-0.0010652635246515274,0.00013315794058144093
1772642843791518500,7.7285185546875,-0.0013315794058144093,-0.001597895286977291,-0.0025300008710473776
1772642843801523000,7.73852294921875,-0.00026631588116288185,-0.0005326317623257637,0.00013315794058144093
1772642843811527200,7.748527099609375,-0.0007989476434886456,0.002130527049303055,0.00013315794058144093
1772642843821531600,7.75853173828125,-0.0007989476434886456,0.0005326317623257637,0.0027963167522102594
1772642843831536000,7.7685361328125,0.0007989476434886456,0.005326317623257637,0.004926843568682671
1772642843841540400,7.778540283203125,-0.0029294746927917004,0.006391581147909164,0.001731053227558732
1772642843851544800,7.788544921875,-0.0007989476434886456,0.00426105409860611,-0.0009321055840700865
1772642843861549000,7.798549072265625,-0.0013315794058144093,0.00426105409860611,-0.001997369108721614
1772642843871553500,7.808553466796875,-0.003994738217443228,0.0026631588116288185,-0.0003994738217443228
1772642843881558000,7.81855810546875,-0.0023968429304659367,0.0005326317623257637,-0.0009321055840700865
1772642843891562200,7.828562255859375,-0.003994738217443228,0,0.001731053227558732
1772642843901566700,7.838566650390625,-0.005060001742094755,0.001597895286977291,0.0011984214652329683
1772642843911571200,7.8485712890625,-0.003994738217443228,0.005326317623257637,0.00013315794058144093
1772642843921575400,7.858575439453125,-0.003994738217443228,0.004793685860931873,-0.0009321055840700865
1772642843931579600,7.86857958984375,-0.003994738217443228,0.007456844672560692,-0.003595264395698905
1772642843941584000,7.878583984375,-0.005060001742094755,0.005326317623257637,-0.0009321055840700865
1772642843951588000,7.888588134765625,-0.008255792781710625,0.003195790573954582,-0.0014647373463958502
1772642843961592300,7.89859228515625,-0.007723160553723574,0.00426105409860611,-0.001997369108721614
1772642843971596500,7.908596435546875,-0.007723160553723574,0.0026631588116288185,-0.003595264395698905
1772642843981600800,7.918600830078125,-0.008255792781710625,0.0026631588116288185,-0.003595264395698905
1772642843991605000,7.92860498046875,-0.006657897029072046,0.005326317623257637,-0.00519315991550684
1772642844011613400,7.948613525390625,-0.0023968429304659367,0.004793685860931873,-0.009986845776438713
1772642844021617700,7.95861767578125,-0.0029294746927917004,0.003728422336280346,-0.008921582251787186
1772642844041626000,7.978626220703125,-0.001864211168140173,0.009587371721863747,-0.0009321055840700865
1772642844051630300,7.98863037109375,-0.001864211168140173,0.00852210819721222,0.0006657897029072046
1772642844061635800,7.9986357421875,-0.003462106455117464,0.005326317623257637,-0.0025300008710473776
1772642844071642400,8.008642333984374,-0.005060001742094755,0.004793685860931873,-0.0009321055840700865
1772642844091655400,8.028655517578125,-0.0045273699797689915,0.003195790573954582,-0.0025300008710473776
1772642844101662200,8.038662109375,-0.0029294746927917004,0.003728422336280346,-0.003595264395698905
1772642844111668700,8.048668701171875,-0.003994738217443228,0.003195790573954582,-0.004127896390855312
1772642844131682000,8.06868212890625,-0.0007989476434886456,0.003728422336280346,-0.004127896390855312
1772642844151695000,8.088695068359375,-0.0029294746927917004,0,-0.0003994738217443228
1772642844161701600,8.09870166015625,-0.003994738217443228,-0.004793685860931873,0.0011984214652329683
1772642844171708400,8.10870849609375,-0.0045273699797689915,-0.00426105409860611,0.007057370617985725
1772642844181715000,8.11871484375,-0.003462106455117464,-0.009054739959537983,0.008655265904963017
1772642844191721500,8.128721435546876,-0.003994738217443228,-0.012250530533492565,0.007590002380311489
1772642844201728300,8.138728271484375,-0.007723160553723574,-0.017576847225427628,0.006524738855659962
1772642844211734800,8.14873486328125,-0.007723160553723574,-0.01651158556342125,0.008655265904963017
1772642844221741300,8.1587412109375,-0.007723160553723574,-0.014913689345121384,0.007057370617985725
1772642844231747800,8.168747802734375,-0.008788423612713814,-0.01012000348418951,0.008122634142637253
1772642844241754600,8.178754638671874,-0.01038631983101368,-0.015446321107447147,0.008655265904963017
1772642844251761200,8.18876123046875,-0.013582110404968262,-0.018109479919075966,0.008122634142637253
1772642844261767700,8.198767578125,-0.016777900978922844,-0.021305270493030548,0.007057370617985725
1772642844271774500,8.2087744140625,-0.012516846880316734,-0.019174743443727493,0.008655265904963017
1772642844281781000,8.218781005859375,-0.010918950662016869,-0.019174743443727493,0.004394211806356907
1772642844291787500,8.22878759765625,-0.009853687137365341,-0.01597895286977291,0.004394211806356907
1772642844301794000,8.2387939453125,-0.008255792781710625,-0.01438105758279562,0.0027963167522102594
1772642844311800800,8.24880078125,-0.009321056306362152,-0.01012000348418951,0.001731053227558732
1772642844321807400,8.258807373046874,-0.006657897029072046,-0.009054739959537983,-0.0009321055840700865
1772642844331814000,8.26881396484375,-0.007723160553723574,-0.010652635246515274,-0.001997369108721614
1772642844341820400,8.2788203125,-0.005592633504420519,-0.013848425820469856,-0.0003994738217443228
1772642844351827200,8.2888271484375,-0.005592633504420519,-0.01438105758279562,0.003328948514536023
1772642844361833700,8.298833740234375,-0.006657897029072046,-0.014913689345121384,0.005459475331008434
1772642844371840300,8.30884033203125,-0.0045273699797689915,-0.01438105758279562,0.005459475331008434
1772642844381847000,8.318846923828126,-0.00719052879139781,-0.009587371721863747,0.001731053227558732
1772642844391853600,8.328853515625,-0.007723160553723574,-0.004793685860931873,-0.0009321055840700865
1772642844401860000,8.338860107421874,-0.009321056306362152,-0.0010652635246515274,-0.0003994738217443228
1772642844411867000,8.348866943359376,-0.012516846880316734,-0.0005326317623257637,0.00013315794058144093
1772642844421873400,8.358873291015625,-0.01411474123597145,-0.0010652635246515274,-0.0009321055840700865
1772642844431880000,8.3688798828125,-0.01411474123597145,-0.002130527049303055,-0.0003994738217443228
1772642844441886500,8.378886474609375,-0.013049477711319923,-0.003728422336280346,0.0022636849898844957
1772642844451893200,8.388893310546875,-0.009321056306362152,0.003195790573954582,0.0022636849898844957
1772642844461899800,8.398899658203124,-0.01038631983101368,0.0010652635246515274,0.0027963167522102594
1772642844471906300,8.40890625,-0.009853687137365341,0.0010652635246515274,0.003328948514536023
1772642844481913000,8.4189130859375,-0.011984214186668396,-0.001597895286977291,0.0006657897029072046
1772642844491919600,8.428919677734376,-0.011451583355665207,-0.0026631588116288185,0.0011984214652329683
1772642844501926100,8.438926025390625,-0.012516846880316734,-0.0005326317623257637,0.00013315794058144093
1772642844511932700,8.4489326171875,-0.011984214186668396,-0.0010652635246515274,0.0006657897029072046
1772642844521939500,8.458939453125,-0.011451583355665207,-0.0005326317623257637,0.00013315794058144093
1772642844531946000,8.468946044921875,-0.01038631983101368,-0.0005326317623257637,0.003861580276861787
1772642844541952500,8.478952392578124,-0.011451583355665207,-0.0010652635246515274,0.0027963167522102594
1772642844551959300,8.488959228515625,-0.013582110404968262,-0.002130527049303055,0.00013315794058144093
1772642844561964800,8.49896484375,-0.01038631983101368,-0.002130527049303055,-0.0009321055840700865
1772642844571969500,8.508969482421875,-0.011451583355665207,-0.005326317623257637,0.001731053227558732
1772642844581974300,8.518974365234374,-0.011451583355665207,-0.003728422336280346,0.003328948514536023
1772642844591979000,8.52897900390625,-0.01038631983101368,-0.005858949385583401,0.004394211806356907
1772642844601983700,8.538983642578126,-0.010918950662016869,-0.004793685860931873,0.003328948514536023
1772642844611988500,8.548988525390625,-0.010918950662016869,-0.003728422336280346,0.003328948514536023
1772642844621993200,8.5589931640625,-0.010918950662016869,-0.00426105409860611,0.001731053227558732
1772642844631998000,8.568998046875,-0.011451583355665207,-0.003195790573954582,0.001731053227558732
1772642844642002700,8.579002685546875,-0.009853687137365341,-0.0010652635246515274,-0.0014647373463958502
1772642844652007400,8.58900732421875,-0.008255792781710625,-0.001597895286977291,-0.0030626326333731413
1772642844662012200,8.59901220703125,-0.006657897029072046,-0.002130527049303055,-0.001997369108721614
1772642844672017000,8.609016845703126,-0.005060001742094755,-0.0005326317623257637,-0.0030626326333731413
1772642844682021600,8.619021728515625,-0.006125265266746283,0,-0.001997369108721614
1772642844692026400,8.6290263671875,-0.007723160553723574,-0.0026631588116288185,-0.001997369108721614
1772642844702031000,8.639031005859374,-0.007723160553723574,-0.0010652635246515274,-0.0014647373463958502
1772642844712035800,8.649035888671875,-0.00719052879139781,0,-0.004127896390855312
1772642844722040600,8.65904052734375,-0.008255792781710625,0.004793685860931873,-0.0030626326333731413
1772642844732045300,8.66904541015625,-0.00719052879139781,0.006924212910234928,-0.0030626326333731413
1772642844742050000,8.679050048828126,-0.007723160553723574,0.003728422336280346,-0.0030626326333731413
1772642844752054800,8.6890546875,-0.007723160553723574,0.00426105409860611,-0.004127896390855312
1772642844762059800,8.699059814453125,-0.009853687137365341,0,-0.0025300008710473776
1772642844772064500,8.709064453125,-0.009853687137365341,-0.001597895286977291,0.0011984214652329683
1772642844782069200,8.7190693359375,-0.008255792781710625,-0.003195790573954582,0.004926843568682671
1772642844792074000,8.729073974609374,-0.008255792781710625,-0.002130527049303055,0.004926843568682671
1772642844802078700,8.73907861328125,-0.007723160553723574,0.002130527049303055,0.004394211806356907
1772642844812083500,8.74908349609375,-0.009853687137365341,0.00426105409860611,0.003861580276861787
1772642844822088200,8.759088134765625,-0.01038631983101368,0.005326317623257637,0.0006657897029072046
1772642844832093000,8.769093017578125,-0.008788423612713814,0.004793685860931873,0.004926843568682671
1772642844842097700,8.77909765625,-0.007723160553723574,0.009587371721863747,0.003328948514536023
1772642844852102400,8.789102294921875,-0.009321056306362152,0.00426105409860611,-0.0009321055840700865
1772642844862107100,8.799107177734374,-0.009321056306362152,0.0005326317623257637,-0.0014647373463958502
1772642844872111900,8.80911181640625,-0.009853687137365341,0.002130527049303055,0.0011984214652329683
1772642844882116600,8.81911669921875,-0.008788423612713814,0.001597895286977291,0.0027963167522102594
1772642844892121300,8.829121337890625,-0.006657897029072046,0.004793685860931873,0.004926843568682671
1772642844902126000,8.8391259765625,-0.009321056306362152,0.006924212910234928,0.008655265904963017
1772642844912130800,8.849130859375,-0.009321056306362152,0.01012000348418951,0.010253161191940308
1772642844922135600,8.859135498046875,-0.009853687137365341,0.009587371721863747,0.010785792954266071
1772642844932140300,8.869140380859376,-0.008255792781710625,0.005858949385583401,0.004394211806356907
1772642844942145000,8.87914501953125,-0.008788423612713814,0.005326317623257637,-0.0014647373463958502
1772642844952149800,8.889149658203126,-0.00719052879139781,0.0026631588116288185,-0.008921582251787186
1772642844962154500,8.899154541015625,-0.013582110404968262,-0.005858949385583401,-0.013715268112719059
1772642844972159200,8.9091591796875,-0.01411474123597145,-0.007989476434886456,-0.012650004588067532
1772642844982164000,8.9191640625,-0.013049477711319923,-0.006391581147909164,-0.008388950489461422
1772642844992168700,8.929168701171875,-0.009853687137365341,-0.002130527049303055,-0.0025300008710473776
1772642845002173400,8.93917333984375,-0.006125265266746283,0.004793685860931873,0.001731053227558732
