time,seconds_elapsed,z,y,x
1772649669136982500,0.204982421875,0.013582110404968262,0.058589495718479156,-0.008921582251787186
1772649669156990500,0.224990478515625,0.02263684943318367,0.027696851640939713,-0.0030626326333731413
1772649669166994700,0.23499462890625,0.024767376482486725,0.013848425820469856,-0.003595264395698905
1772649669176998700,0.24499853515625,0.03115895763039589,0.0026631588116288185,-0.001997369108721614
1772649669187003000,0.2550029296875,0.03968106582760811,0.0005326317623257637,-0.0073236869648098946
1772649669197006800,0.2650068359375,0.04713791236281395,0.017576847225427628,-0.00945421401411295
1772649669207011000,0.275010986328125,0.05139896646142006,0.011717898771166801,-0.012117372825741768
1772649669217015000,0.28501513671875,0.0588558092713356,-0.005858949385583401,-0.01957421749830246
1772649669227019300,0.295019287109375,0.07057370990514755,-0.021305270493030548,-0.030759483575820923
1772649669237023200,0.305023193359375,0.0870852917432785,-0.0330231711268425,-0.045673172920942307
1772649669247027500,0.31502734375,0.10519476979970932,-0.043675802648067474,-0.04727106913924217
1772649669257031400,0.325031494140625,0.12436951696872711,-0.05805686116218567,-0.0414121188223362
1772649669267035400,0.335035400390625,0.14141373336315155,-0.07350318133831024,-0.04301001504063606
1772649669277039600,0.34503955078125,0.16112111508846283,-0.06391581147909164,-0.05952160060405731
1772649669287043600,0.355043701171875,0.18082848191261292,-0.06285054981708527,-0.08881634473800659
1772649669297047800,0.3650478515625,0.1914811134338379,-0.07616633921861649,-0.10958898812532425
1772649669307051800,0.3750517578125,0.19893796741962433,-0.09161266684532166,-0.10852371901273727
1772649669317056000,0.385055908203125,0.20160111784934998,-0.11717899143695831,-0.09041424095630646
1772649669327060000,0.39506005859375,0.19680742919445038,-0.13049478828907013,-0.07017423212528229
1772649669337064200,0.405064208984375,0.2005358636379242,-0.1267663538455963,-0.05259738489985466
1772649669347068200,0.415068115234375,0.20799270272254944,-0.10492845624685287,-0.045673172920942307
1772649669357072400,0.425072265625,0.21864533424377441,-0.06498107314109802,-0.04407527670264244
1772649669367076400,0.435076416015625,0.22929798066616058,-0.0282294824719429,-0.04407527670264244
1772649669377080300,0.445080322265625,0.23568955063819885,0.006391581147909164,-0.04034685716032982
1772649669387084500,0.45508447265625,0.23568955063819885,0.026631588116288185,-0.0318247489631176
1772649669397088500,0.465088623046875,0.22983060777187347,0.04154527932405472,-0.028628956526517868
1772649669407092700,0.4750927734375,0.22184112668037415,0.05805686116218567,-0.0318247489631176
1772649669417096700,0.4850966796875,0.21544954180717468,0.08575371652841568,-0.030226852744817734
1772649669427101000,0.495100830078125,0.20426428318023682,0.12197267264127731,-0.02703106217086315
1772649669437105000,0.50510498046875,0.1914811134338379,0.15020215511322021,-0.02756369300186634
1772649669447108900,0.51510888671875,0.17496953904628754,0.16884426772594452,-0.033955276012420654
1772649669457113000,0.525113037109375,0.15952321887016296,0.18482321500778198,-0.04301001504063606
1772649669467117000,0.535116943359375,0.14674004912376404,0.19654111564159393,-0.04780369997024536
1772649669477121300,0.545121337890625,0.1339568942785263,0.21837902069091797,-0.050466857850551605
1772649669487125200,0.555125244140625,0.12809793651103973,0.2407495528459549,-0.05366265028715134
1772649669497129500,0.56512939453125,0.12383688241243362,0.26578325033187866,-0.05579317733645439
1772649669507133400,0.575133544921875,0.11851056665182114,0.295610636472702,-0.05632580816745758
1772649669517137700,0.5851376953125,0.11691267043352127,0.3217095732688904,-0.05632580816745758
1772649669527141600,0.5951416015625,0.1153147742152214,0.34727591276168823,-0.058988966047763824
1772649669537145900,0.605145751953125,0.1062600389122963,0.3685811758041382,-0.06697844713926315
1772649669547149800,0.61514990234375,0.09347687661647797,0.38882118463516235,-0.07550055533647537
1772649669557153800,0.62515380859375,0.07962844520807266,0.41172435879707336,-0.08082687109708786
1772649669567158000,0.635157958984375,0.06098633632063866,0.4303664565086365,-0.08135949820280075
1772649669577162200,0.645162353515625,0.03968106582760811,0.4426169991493225,-0.08402266353368759
1772649669587166500,0.65516650390625,0.019441058859229088,0.4474106729030609,-0.08668582141399384
1772649669597170700,0.665170654296875,-0.005592633504420519,0.46498751640319824,-0.08295739442110062
1772649669607175000,0.6751748046875,-0.020506322383880615,0.4809664785861969,-0.07337002456188202
1772649669617179100,0.68517919921875,-0.037550538778305054,0.5097286105155945,-0.042477384209632874
1772649669627183400,0.695183349609375,-0.04447475075721741,0.52091383934021,0.0006657897029072046
1772649669637187600,0.7051875,-0.032224223017692566,0.5028043985366821,0.014514215290546417
1772649669647191600,0.715191650390625,-0.0189084280282259,0.4761728048324585,0.010253161191940308
1772649669657195800,0.72519580078125,-0.007723160553723574,0.46924859285354614,0.02996053732931614
1772649669667200000,0.735199951171875,0.021571585908532143,0.4538022577762604,0.06777739524841309
1772649669677204200,0.745204345703125,0.0402136966586113,0.44954121112823486,0.10719214379787445
1772649669687208400,0.75520849609375,0.03382211551070213,0.47297701239585876,0.13648688793182373
1772649669697212700,0.765212646484375,0.011451583355665207,0.5123917460441589,0.17377111315727234
1772649669707217000,0.775216796875,0.01837579533457756,0.48309701681137085,0.2083921730518341
1772649669717221000,0.78522119140625,-0.03488738089799881,0.4250401556491852,0.2563290297985077
1772649669727225300,0.795225341796875,-0.1105210930109024,0.4000064432621002,0.3277016878128052
1772649669737229300,0.805229248046875,-0.17390426993370056,0.4005391001701355,0.3889543414115906
1772649669747233500,0.815233642578125,-0.25539693236351013,0.37870118021965027,0.4102596044540405
1772649669757237800,0.82523779296875,-0.34434643387794495,0.38509276509284973,0.3969438076019287
1772649669767242000,0.835241943359375,-0.4684496223926544,0.4010717272758484,0.41931435465812683
1772649669777246200,0.84524609375,-0.48975491523742676,0.3387537896633148,0.47417542338371277
1772649669787250400,0.85525048828125,-0.5099949240684509,0.30466535687446594,0.49761122465133667
1772649669797254700,0.865254638671875,-0.5547359585762024,0.3243727385997772,0.5093291401863098
1772649669807259000,0.8752587890625,-0.6111949682235718,0.4197138249874115,0.5183838605880737
1772649669817263000,0.88526318359375,-0.5829654932022095,0.5017391443252563,0.496013343334198
1772649669827267000,0.89526708984375,-0.47111278772354126,0.5219791531562805,0.4448806941509247
1772649669837271300,0.905271240234375,-0.3640538156032562,0.5677854418754578,0.37670382857322693
1772649669847275500,0.915275634765625,-0.2149169147014618,0.5448822975158691,0.32876694202423096
1772649669857279700,0.92527978515625,-0.045007385313510895,0.5065327882766724,0.27124273777008057
1772649669867284000,0.935283935546875,-0.01411474123597145,0.5480780601501465,0.17749953269958496
1772649669877288200,0.9452880859375,0.036485277116298676,0.5017391443252563,0.14660689234733582
1772649669887292400,0.95529248046875,0.06524739414453506,0.46392226219177246,0.13915005326271057
1772649669897296600,0.965296630859375,0.0774979218840599,0.449008584022522,0.1002679318189621
1772649669907300600,0.975300537109375,0.09134634584188461,0.4436822533607483,0.022503692656755447
1772649669917304800,0.985304931640625,0.11797793209552765,0.4703138470649719,-0.08775108307600021
1772649669927309000,0.99530908203125,0.14460952579975128,0.46924859285354614,-0.21771323680877686
1772649669937313300,1.005313232421875,0.190948486328125,0.4181159436702728,-0.3194459080696106
1772649669947317500,1.0153173828125,0.2617885172367096,0.33768853545188904,-0.36418697237968445
1772649669957321700,1.02532177734375,0.3358243405818939,0.25619587302207947,-0.35939326882362366
1772649669967326000,1.035325927734375,0.3800327479839325,0.18642111122608185,-0.3439469635486603
1772649669977330200,1.045330078125,0.40027275681495667,0.10546109080314636,-0.34980592131614685
1772649669987334400,1.05533447265625,0.4167843461036682,0.04900212213397026,-0.3844269812107086
1772649669997338400,1.06533837890625,0.4466117322444916,0.07669897377490997,-0.4036017060279846
1772649670007342600,1.075342529296875,0.45779699087142944,0.16831164062023163,-0.40573224425315857
1772649670017346800,1.085346923828125,0.42956751585006714,0.283360093832016,-0.4328964650630951
1772649670027351000,1.09535107421875,0.3747064471244812,0.37497276067733765,-0.46698489785194397
1772649670037355300,1.105355224609375,0.3129211664199829,0.43196436762809753,-0.4946817457675934
1772649670047359500,1.115359375,0.25965797901153564,0.5070654153823853,-0.5101280808448792
1772649670057363700,1.12536376953125,0.21172112226486206,0.5826991200447083,-0.5037364959716797
1772649670067367700,1.13536767578125,0.16911058127880096,0.6157222986221313,-0.47817015647888184
1772649670077372000,1.145371826171875,0.1392832100391388,0.6103960275650024,-0.445679634809494
1772649670087376100,1.155376220703125,0.11797793209552765,0.6109286546707153,-0.3908185660839081
1772649670097380400,1.16538037109375,0.07696528732776642,0.5773728489875793,-0.33595749735832214
1772649670107384300,1.17538427734375,0.057257913053035736,0.5028043985366821,-0.2922816872596741
1772649670117388500,1.185388427734375,0.032224223017692566,0.4186485707759857,-0.2736395597457886
1772649670127392800,1.195392822265625,0.045540016144514084,0.37444013357162476,-0.32637012004852295
1772649670137397000,1.20539697265625,0.07536739110946655,0.42663803696632385,-0.4179827868938446
1772649670147401200,1.215401123046875,0.15952321887016296,0.52837073802948,-0.5255743861198425
1772649670157405200,1.2254052734375,0.2814958989620209,0.6269075870513916,-0.607599675655365
1772649670167409400,1.235409423828125,0.3933485448360443,0.738760232925415,-0.6358291506767273
1772649670177413600,1.24541357421875,0.5020054578781128,0.7526086568832397,-0.6017407178878784
1772649670187417900,1.25541796875,0.6016075611114502,0.7270423769950867,-0.523443877696991
1772649670197421800,1.265421875,0.6490117907524109,0.7893602848052979,-0.43555963039398193
1772649670207426000,1.275426025390625,0.6639254689216614,0.8026760816574097,-0.34021854400634766
1772649670217430300,1.28543017578125,0.6575338840484619,0.8250465989112854,-0.2619216740131378
1772649670227434500,1.2954345703125,0.5819001793861389,0.738760232925415,-0.2107890248298645
1772649670237438500,1.3054384765625,0.47111278772354126,0.6380928754806519,-0.18522270023822784
1772649670247442700,1.315442626953125,0.3411506414413452,0.5054675340652466,-0.15646058320999146
1772649670257447000,1.325447021484375,0.1904158592224121,0.3014695644378662,-0.09574055671691895
1772649670267451100,1.335451171875,0.05086633190512657,0.06285054981708527,-0.0057257916778326035
1772649670277455000,1.345455078125,-0.0636494979262352,-0.14753900468349457,0.09494160860776901
1772649670287459300,1.355459228515625,-0.1525990068912506,-0.33182957768440247,0.1711079478263855
1772649670297463600,1.365463623046875,-0.21065586805343628,-0.4655201733112335,0.20146796107292175
1772649670307467800,1.3754677734375,-0.24208113551139832,-0.5571328401565552,0.18868480622768402
1772649670317472000,1.385471923828125,-0.2511358857154846,-0.604004442691803,0.17004269361495972
1772649670327476000,1.39547607421875,-0.26019060611724854,-0.6141244173049927,0.19134795665740967
1772649670337480200,1.405480224609375,-0.27830010652542114,-0.5656549334526062,0.2563290297985077
1772649670347484400,1.415484375,-0.3273022174835205,-0.39308223128318787,0.40812909603118896
1772649670357488600,1.425488525390625,-0.3976096212863922,-0.03728422522544861,0.7197186946868896
1772649670367492600,1.43549267578125,-0.4886896312236786,0.575242280960083,1.2997546195983887
1772649670377496800,1.445496826171875,-0.5989444255828857,1.0993520021438599,1.9266622066497803
1772649670387501000,1.4555009765625,-0.6319676041603088,0.5949496626853943,1.789243221282959
1772649670397505300,1.46550537109375,-0.5946833491325378,-0.3542001247406006,0.7053375840187073
1772649670407509500,1.475509521484375,-0.2149169147014618,-0.3824295997619629,-0.06910897046327591
1772649670417513500,1.485513427734375,-0.42424118518829346,-0.12623372673988342,-0.014247899875044823
1772649670427517700,1.495517578125,-0.8673908114433289,-0.38029909133911133,0.5551354289054871
1772649670437522000,1.50552197265625,-0.8615318536758423,-0.663126528263092,1.1309103965759277
1772649670447526100,1.515526123046875,-0.5254412293434143,-0.8037413358688354,1.0893651247024536
1772649670457530000,1.525530029296875,-0.18029585480690002,-0.864461362361908,0.5812343955039978
1772649670467534300,1.535534423828125,-0.22130849957466125,-1.1552783250808716,0.19294585287570953
1772649670477538600,1.54553857421875,-0.25912535190582275,-1.0013476610183716,0.07523423433303833
1772649670487542800,1.555542724609375,-0.17550216615200043,-0.5123917460441589,0.05925528332591057
1772649670497547000,1.565547119140625,-0.04713791236281395,-0.029827378690242767,0.06990791857242584
1772649670507551000,1.575551025390625,0.16857795417308807,0.31851378083229065,0.003861580276861787
1772649670517555200,1.58555517578125,0.4316980540752411,0.32756853103637695,-0.225702702999115
1772649670527559400,1.595559326171875,0.6021401882171631,0.06338317692279816,-0.5245091319084167
1772649670537563600,1.605563720703125,0.6649907827377319,-0.2785664200782776,-0.720517635345459
1772649670547567600,1.615567626953125,0.6585991978645325,-0.46978121995925903,-0.7428881525993347
1772649670567576300,1.635576416015625,0.6740455031394958,-0.4900212287902832,-0.4185154139995575
1772649670577580500,1.64558056640625,0.6048033833503723,-0.37550538778305054,-0.2757700979709625
1772649670587585000,1.6555849609375,0.48176541924476624,-0.18269269168376923,-0.19534270465373993
1772649670597589500,1.665589599609375,0.3177148401737213,0.047936856746673584,-0.18948374688625336
1772649670607594000,1.675593994140625,0.18508954346179962,0.11664635688066483,-0.24541008472442627
1772649670617598200,1.68559814453125,0.10679266601800919,0.1081242486834526,-0.32743537425994873
1772649670627602700,1.695602783203125,0.07270423322916031,0.0798947662115097,-0.3796332776546478
1772649670637607200,1.705607177734375,0.02636527270078659,0.08841687440872192,-0.3748396039009094
1772649670647611400,1.715611328125,0.003462106455117464,0.04633896425366402,-0.31678274273872375
1772649670657616000,1.725615966796875,0.011451583355665207,0.006924212910234928,-0.22676797211170197
1772649670667620400,1.735620361328125,0.05619265139102936,-0.012783162295818329,-0.11331740766763687
1772649670677624800,1.745624755859375,0.09507477283477783,-0.02024000696837902,-0.029161589220166206
1772649670687629000,1.755629150390625,0.14620742201805115,0.07137265801429749,0.01344895176589489
1772649670697633500,1.765633544921875,0.18988321721553802,0.20133480429649353,-0.01584579423069954
1772649670707637800,1.7756376953125,0.22983060777187347,0.3403517007827759,-0.10479529947042465
1772649670717642200,1.785642333984375,0.24154850840568542,0.42610540986061096,-0.21345217525959015
1772649670727646700,1.795646728515625,0.21704743802547455,0.4857601523399353,-0.2949448525905609
1772649670737651200,1.805651123046875,0.24953797459602356,0.5906886458396912,-0.3109237849712372
1772649670747655400,1.815655517578125,0.3038664162158966,0.5688506960868835,-0.2619216740131378
1772649670757660000,1.825659912109375,0.3267695903778076,0.4703138470649719,-0.16551531851291656
1772649670767664400,1.835664306640625,0.3049316704273224,0.5166528224945068,-0.09361003339290619
1772649670777668600,1.845668701171875,0.26924535632133484,0.44048646092414856,-0.0414121188223362
1772649670787673000,1.855673095703125,0.22770008444786072,0.2828274667263031,-0.0057257916778326035
1772649670797677600,1.865677490234375,0.19254638254642487,0.2071937620639801,-0.0014647373463958502
1772649670807682000,1.87568212890625,0.13981583714485168,0.1981390118598938,-0.025433165952563286
1772649670817686300,1.885686279296875,0.037017907947301865,0.12996214628219604,-0.03928159177303314
1772649670827690800,1.895690673828125,-0.0780305564403534,0.017576847225427628,0.020373165607452393
1772649670837695200,1.9056953125,-0.18242637813091278,-0.13741900026798248,0.17164058983325958
1772649670847699500,1.915699462890625,-0.2798979878425598,-0.35206958651542664,0.3404848575592041
1772649670857704000,1.925703857421875,-0.3693801164627075,-0.5683180689811707,0.46565333008766174
1772649670867708400,1.93570849609375,-0.45353594422340393,-0.7313033938407898,0.5327649116516113
1772649670877712600,1.945712646484375,-0.5281043648719788,-0.8207855224609375,0.5407543778419495
1772649670887717000,1.955717041015625,-0.5808349251747131,-0.8564718961715698,0.49814385175704956
1772649670897721600,1.9657216796875,-0.5968139171600342,-0.8570045232772827,0.448076456785202
1772649670907726000,1.97572607421875,-0.5962812304496765,-0.8037413358688354,0.4102596044540405
1772649670917730300,1.985730224609375,-0.594150722026825,-0.6748444437980652,0.3585943281650543
1772649670927734800,1.99573486328125,-0.5957486033439636,-0.3914843499660492,0.3463438153266907
1772649670937739300,2.0057392578125,-0.627173900604248,0.0942758247256279,0.5791038870811462
1772649670947743500,2.015743408203125,-0.7267760634422302,0.8953539729118347,1.2587419748306274
1772649670957748000,2.025748046875,-0.8274434208869934,1.356080412864685,1.6401063203811646
1772649670967752400,2.03575244140625,-0.5989444255828857,-0.00852210819721222,0.6446176171302795
1772649670977756700,2.045756591796875,0.040746331214904785,-0.7419560551643372,-0.43928804993629456
1772649670987761200,2.05576123046875,0.0402136966586113,-0.6135917901992798,-0.4462122619152069
1772649670997765600,2.065765625,-0.48496121168136597,-1.641571044921875,0.43369540572166443
1772649671007769900,2.075769775390625,-0.4588622748851776,-1.3992236852645874,0.949815571308136
1772649671017774300,2.0857744140625,0.0402136966586113,-0.5512738823890686,0.8092008233070374
1772649671027778800,2.09577880859375,0.37790223956108093,-0.27643588185310364,0.28455850481987
1772649671037783300,2.105783203125,0.157392680644989,-0.27110958099365234,-0.1782984882593155
1772649671047787500,2.11578759765625,-0.04394211992621422,-0.5539370179176331,-0.4834964871406555
1772649671057792000,2.1257919921875,0.08175897598266602,-0.4564654231071472,-0.40093857049942017
1772649671067796200,2.135796142578125,0.3640538156032562,-0.015446321107447147,-0.1596563756465912
1772649671077800200,2.14580029296875,0.5717802047729492,0.3020022213459015,-0.1442100554704666
1772649671087804400,2.155804443359375,0.6298370361328125,0.27057692408561707,-0.3375553786754608
1772649671097808600,2.16580859375,0.602672815322876,-0.06657896935939789,-0.5735112428665161
1772649671107812600,2.1758125,0.5600622892379761,-0.45966121554374695,-0.7322354912757874
1772649671117816800,2.18581689453125,0.5115928053855896,-0.6934865713119507,-0.7636607885360718
1772649671127821000,2.195821044921875,0.45832961797714233,-0.7147918343544006,-0.6704502105712891
1772649671137825300,2.2058251953125,0.36298853158950806,-0.5139896273612976,-0.5420860052108765
1772649671147829200,2.215829345703125,0.16112111508846283,-0.14008215069770813,-0.45260384678840637
1772649671157833500,2.22583349609375,-0.003462106455117464,0.19121479988098145,-0.44887542724609375
1772649671167837700,2.235837646484375,-0.07430212944746017,0.2817622125148773,-0.5761744379997253
1772649671177841700,2.245841552734375,-0.12223898619413376,0.17097479104995728,-0.6566017866134644
1772649671187846000,2.255845947265625,-0.1723063737154007,0.04580633342266083,-0.6230459809303284
1772649671197850000,2.26585009765625,-0.19680742919445038,-0.01012000348418951,-0.48615965247154236
1772649671207854300,2.275854248046875,-0.17763268947601318,0.05432844161987305,-0.28375956416130066
1772649671217858300,2.2858583984375,-0.12117372453212738,0.20825901627540588,-0.09094687551259995
1772649671227862500,2.295862548828125,-0.05672528222203255,0.3211769461631775,0.032091062515974045
1772649671237866800,2.30586669921875,0.08602003008127213,0.5699160099029541,0.09440898150205612
1772649671247870700,2.31587060546875,0.27244114875793457,0.9507476687431335,0.18229322135448456
1772649671257875000,2.325875,0.421578049659729,1.1472887992858887,0.20146796107292175
1772649671267879200,2.335879150390625,0.48070016503334045,0.9922930002212524,0.09760477393865585
1772649671277883400,2.34588330078125,0.39228329062461853,0.8554065823554993,0.048602648079395294
1772649671287887400,2.355887451171875,0.3219758868217468,0.7952192425727844,0.07523423433303833
1772649671297891600,2.3658916015625,0.34967276453971863,0.7243791818618774,0.08162581920623779
1772649671307895800,2.375895751953125,0.3656516969203949,0.5251749157905579,0.0294279046356678
1772649671317899800,2.385899658203125,0.2628537714481354,0.13315793871879578,-0.07550055533647537
1772649671327904000,2.395904052734375,0.14727267622947693,-0.27696850895881653,-0.15219952166080475
1772649671337908200,2.405908203125,0.04713791236281395,-0.642353892326355,-0.18415743112564087
1772649671347912200,2.415912109375,-0.05246422812342644,-0.9044087529182434,-0.1873532235622406
1772649671357916400,2.42591650390625,-0.12064109742641449,-0.9768466353416443,-0.1735047996044159
1772649671367920600,2.435920654296875,-0.19467690587043762,-0.9368992447853088,-0.12876373529434204
1772649671377924900,2.4459248046875,-0.2793653607368469,-0.8932234644889832,-0.05739107355475426
1772649671387928800,2.4559287109375,-0.3384874761104584,-0.7813708186149597,0.020373165607452393
1772649671397933000,2.46593310546875,-0.365119069814682,-0.6673876047134399,0.08961529284715652
1772649671407937300,2.475937255859375,-0.3454116880893707,-0.5305012464523315,0.12583425641059875
1772649671417941200,2.485941162109375,-0.342215895652771,-0.3808317184448242,0.13648688793182373
1772649671427945500,2.495945556640625,-0.3262369632720947,-0.22317270934581757,0.1189100444316864
1772649671437949700,2.50594970703125,-0.3006706237792969,-0.08309055864810944,0.1290300488471985
1772649671447954000,2.515953857421875,-0.26818010210990906,0.03355580195784569,0.1806953251361847
1772649671457958000,2.5259580078125,-0.25433167815208435,0.13848425447940826,0.2797648310661316
1772649671467962000,2.535962158203125,-0.3086601197719574,0.25193482637405396,0.45180490612983704
1772649671477966300,2.54596630859375,-0.4689822793006897,0.42663803696632385,0.8097334504127502
1772649671487970600,2.555970458984375,-0.6910896897315979,0.8298403024673462,1.7881779670715332
1772649671497974500,2.565974609375,-0.9302413463592529,0.6849644184112549,2.8124289512634277
1772649671507978800,2.575978759765625,-1.247689962387085,-1.091362476348877,1.7029569149017334
1772649671517983000,2.58598291015625,-1.2290477752685547,-1.8514280319213867,-0.3668501377105713
1772649671527987000,2.595987060546875,-0.7331676483154297,-1.13823401927948,-0.6155891418457031
1772649671537991200,2.6059912109375,-0.8503466248512268,-0.29081693291664124,0.3266364336013794
1772649671547995400,2.615995361328125,-0.5717802047729492,-0.09800424426794052,0.9594029784202576
1772649671557999600,2.62599951171875,-0.3901527523994446,-0.4532696306705475,0.6787060499191284
1772649671568004000,2.636004150390625,-0.3454116880893707,-0.39947381615638733,0.156194269657135
1772649671578008600,2.646008544921875,-0.34914010763168335,-0.047936856746673584,-0.08615318685770035
1772649671588013000,2.656012939453125,-0.3171822130680084,0.3217095732688904,-0.15166689455509186
1772649671598017500,2.666017578125,-0.08122634142637253,0.64608234167099,-0.1777658462524414
1772649671608022000,2.67602197265625,0.23888534307479858,1.0594046115875244,-0.20919112861156464
1772649671618026500,2.686026611328125,0.5169191360473633,1.18830144405365,-0.3093259036540985
1772649671628031000,2.696031005859375,0.669784426689148,0.90281081199646,-0.44035330414772034
1772649671638035500,2.706035400390625,0.7225149869918823,0.5267727971076965,-0.5213133096694946
1772649671648040000,2.7160400390625,0.7091991901397705,0.2631200850009918,-0.5431512594223022
1772649671658044400,2.72604443359375,0.7321023344993591,0.16884426772594452,-0.561793327331543
1772649671668049000,2.736048828125,0.7640602588653564,0.1651158481836319,-0.5799028277397156
1772649671688057900,2.756057861328125,0.657001256942749,0.45859596133232117,-0.7370291948318481
1772649671698062300,2.766062255859375,0.4966791272163391,0.7323686480522156,-0.8488819003105164
1772649671718071300,2.7860712890625,0.16644743084907532,0.9864340424537659,-0.9303745031356812
1772649671728075800,2.79607568359375,0.07536739110946655,0.9427582025527954,-0.8723176717758179
1772649671738080300,2.806080322265625,0.0684431791305542,0.8032087087631226,-0.7301049828529358
1772649671748084700,2.816084716796875,0.08335687220096588,0.7030739188194275,-0.5719133615493774
1772649671758089200,2.826089111328125,0.1579253226518631,0.7211834192276001,-0.43555963039398193
1772649671768093700,2.83609375,0.2655169367790222,0.7568697333335876,-0.30346694588661194
1772649671778098200,2.84609814453125,0.32144325971603394,0.8090676665306091,-0.23582270741462708
1772649671788102700,2.8561025390625,0.43382856249809265,0.923583447933197,-0.20493006706237793
1772649671798107100,2.866107177734375,0.518517017364502,0.9624655842781067,-0.1868205964565277
1772649671808111600,2.876111572265625,0.5552685856819153,0.8016108274459839,-0.18362480401992798
1772649671818116000,2.8861162109375,0.5328980684280396,0.4538022577762604,-0.18149426579475403
1772649671828120600,2.89612060546875,0.4791022837162018,0.1784316450357437,-0.13249215483665466
1772649671838125000,2.906125,0.46152541041374207,0.17736637592315674,-0.038216330111026764
1772649671848129500,2.916129638671875,0.48922228813171387,0.3105243146419525,0.060320548713207245
1772649671858134000,2.926134033203125,0.4684496223926544,0.3861580193042755,0.10346371680498123
1772649671868138500,2.936138427734375,0.34807485342025757,0.3057306408882141,0.044341593980789185
1772649671878143000,2.94614306640625,0.2090579718351364,0.2263685017824173,-0.038216330111026764
1772649671888147500,2.9561474609375,0.10040108859539032,0.02077263966202736,0.00918789766728878
1772649671898152000,2.96615185546875,-0.00026631588116288185,-0.24181482195854187,0.1141163557767868
1772649671908156400,2.976156494140625,-0.09081371873617172,-0.43622541427612305,0.17270584404468536
1772649671918161000,2.986160888671875,-0.17337164282798767,-0.6072002053260803,0.17749953269958496
1772649671928165400,2.996165283203125,-0.25539693236351013,-0.7382276058197021,0.16897742450237274
1772649671938169900,3.006169921875,-0.33103063702583313,-0.772316038608551,0.17217321693897247
1772649671948174300,3.01617431640625,-0.4040012061595917,-0.7265097498893738,0.20679427683353424
1772649671958178800,3.0261787109375,-0.47643911838531494,-0.6306359767913818,0.2648511528968811
1772649671968183300,3.036183349609375,-0.518517017364502,-0.503337025642395,0.29680904746055603
1772649671978187800,3.046187744140625,-0.5446159839630127,-0.3920169770717621,0.31012484431266785
1772649671988192300,3.056192138671875,-0.4924180507659912,-0.2631200850009918,0.3175816833972931
1772649671998196700,3.06619677734375,-0.44235068559646606,-0.1225053071975708,0.31438589096069336
1772649672008201200,3.076201171875,-0.4316980540752411,0.09161266684532166,0.40386801958084106
1772649672018205700,3.086205810546875,-0.4316980540752411,0.6354296803474426,0.7591333985328674
1772649672028210400,3.09621044921875,-0.4450138509273529,1.6271899938583374,1.6939021348953247
1772649672038215000,3.10621484375,-0.4785696268081665,1.4791183471679688,2.1477043628692627
1772649672048219400,3.116219482421875,-0.4556664824485779,-0.5890907049179077,0.6611291766166687
1772649672058223600,3.1262236328125,-0.16431689262390137,-0.7286402583122253,-0.6225133538246155
1772649672068227800,3.136227783203125,-0.037017907947301865,-0.32650327682495117,-0.456332266330719
1772649672078232000,3.146232177734375,-0.38589170575141907,-0.7030739188194275,0.37031224370002747
1772649672088236300,3.156236328125,-0.5494096875190735,-1.485509991645813,0.9119987487792969
1772649672098240300,3.166240234375,-0.4791022837162018,-1.53504478931427,0.6733797192573547
1772649672108244500,3.176244384765625,-0.42850226163864136,-1.2287814617156982,0.15406373143196106
1772649672118248700,3.186248779296875,-0.4375569820404053,-0.7382276058197021,-0.08562055230140686
1772649672128253000,3.1962529296875,-0.3597927689552307,-0.36165696382522583,-0.20865848660469055
1772649672138257200,3.206257080078125,-0.06471475958824158,0.2961432635784149,-0.12237215042114258
1772649672148261400,3.216261474609375,0.2660495638847351,0.885233998298645,0.05073317512869835
1772649672158265300,3.226265380859375,0.5483443737030029,1.1270488500595093,0.0624510757625103
1772649672168269600,3.23626953125,0.7022749781608582,1.028511881828308,-0.10426266491413116
1772649672178273800,3.246273681640625,0.6990792155265808,0.6780402064323425,-0.3668501377105713
1772649672188278000,3.256278076171875,0.594150722026825,0.2636527121067047,-0.5767070651054382
1772649672198282200,3.2662822265625,0.46259069442749023,-0.060187388211488724,-0.6550039052963257
1772649672208286200,3.2762861328125,0.30759483575820923,-0.26684850454330444,-0.6352965235710144
1772649672218290400,3.28629052734375,0.13768531382083893,-0.2785664200782776,-0.5926859974861145
1772649672228294700,3.296294677734375,-0.04713791236281395,-0.12037477642297745,-0.5884249210357666
1772649672238299000,3.306298828125,-0.2335590273141861,0.055926334112882614,-0.6507428288459778
1772649672248303000,3.31630322265625,-0.34807485342025757,0.11984214931726456,-0.7263765931129456
1772649672258307000,3.32630712890625,-0.40506646037101746,0.10226529836654663,-0.7519428730010986
1772649672268311300,3.336311279296875,-0.3901527523994446,0.015446321107447147,-0.6906902194023132
1772649672278315500,3.3463154296875,-0.3267695903778076,-0.03249053657054901,-0.5506080985069275
1772649672288319700,3.35631982421875,-0.2282327115535736,0.15393057465553284,-0.39135119318962097
1772649672298324000,3.366323974609375,-0.13555479049682617,0.46445488929748535,-0.2294311374425888
1772649672308328000,3.376327880859375,-0.03382211551070213,0.6402233839035034,-0.07177212834358215
1772649672318332200,3.386332275390625,0.1110537201166153,0.7201181650161743,0.040080539882183075
1772649672328336400,3.39633642578125,0.24900534749031067,0.8564718961715698,0.07257107645273209
1772649672338340600,3.406340576171875,0.36352118849754333,0.9427582025527954,0.052863702178001404
1772649672348344800,3.4163447265625,0.4231759309768677,0.8676571249961853,0.02996053732931614
1772649672358348800,3.426348876953125,0.3928159177303314,0.6652570962905884,0.04274369776248932
1772649672368353000,3.43635302734375,0.35926011204719543,0.41278961300849915,0.0768321305513382
1772649672378357200,3.446357177734375,0.34328117966651917,0.4612590968608856,0.10239845514297485
1772649672388361500,3.456361572265625,0.28202852606773376,0.5060001611709595,0.08801739662885666
1772649672398365700,3.46636572265625,0.25007060170173645,0.4324969947338104,0.05392896756529808
1772649672408369700,3.47636962890625,0.17017585039138794,0.2396842986345291,0.0011984214652329683
1772649672418374000,3.486373779296875,0.09081371873617172,-0.10546109080314636,-0.06058686226606369
1772649672428378000,3.496378173828125,0.08495476841926575,-0.5821664929389954,-0.0930773988366127
1772649672438382300,3.50638232421875,0.08175897598266602,-0.9123982191085815,-0.11917635798454285
1772649672448386600,3.516386474609375,0.06418212503194809,-1.0700571537017822,-0.13195951282978058
1772649672458390500,3.526390625,0.03382211551070213,-1.0929603576660156,-0.10532793402671814
1772649672468394800,3.536394775390625,0.013582110404968262,-1.0018802881240845,-0.038216330111026764
1772649672478399000,3.54639892578125,-0.021571585908532143,-0.8665918707847595,0.048070017248392105
1772649672488403200,3.5564033203125,-0.07430212944746017,-0.7121286392211914,0.14394372701644897
1772649672498407400,3.566407470703125,-0.1296958327293396,-0.5645896792411804,0.2510027289390564
1772649672508411600,3.57641162109375,-0.1771000623703003,-0.4340948760509491,0.31012484431266785
1772649672518415600,3.58641552734375,-0.18029585480690002,-0.2966758906841278,0.2925480008125305
1772649672528419800,3.596419921875,-0.1531316339969635,-0.10705898702144623,0.26378586888313293
1772649672538424000,3.606424072265625,-0.10093371570110321,0.12303793430328369,0.24940481781959534
1772649672548428300,3.61642822265625,-0.06205160170793533,0.40266960859298706,0.26218798756599426
1772649672558432300,3.626432373046875,-0.07909581810235977,0.6604633927345276,0.3442132771015167
1772649672568436700,3.636436767578125,-0.2191779762506485,0.9203876852989197,0.7356976270675659
1772649672578441000,3.64644091796875,-0.48922228813171387,1.3028173446655273,2.0592875480651855
1772649672588445400,3.656445556640625,-0.8993487358093262,1.0812424421310425,3.2758185863494873
1772649672598449700,3.66644970703125,-1.165664553642273,-0.8175897598266602,2.121605396270752
1772649672608454100,3.6764541015625,-0.8178560733795166,-1.3869731426239014,0.3069290518760681
1772649672618458400,3.686458251953125,-0.42370855808258057,-0.885233998298645,-0.026498429477214813
1772649672628462800,3.696462890625,-1.1763172149658203,-1.1813772916793823,0.46618595719337463
1772649672638467000,3.706467041015625,-1.1944267749786377,-1.4391710758209229,0.9295755624771118
1772649672648471300,3.71647119140625,-0.48123279213905334,-1.4524868726730347,0.6158554553985596
1772649672658475800,3.726475830078125,-0.01411474123597145,-1.8338510990142822,0.10772477090358734
1772649672668480000,3.73647998046875,-0.04234422370791435,-1.406147837638855,-0.20865848660469055
1772649672678484500,3.746484375,-0.09081371873617172,-0.7893602848052979,-0.33222904801368713
1772649672688488700,3.75648876953125,0.06631265580654144,-0.25726112723350525,-0.21238692104816437
1772649672698493000,3.766492919921875,0.2745716869831085,0.26205483078956604,-0.02703106217086315
1772649672708497400,3.776497314453125,0.4604601562023163,0.6428865194320679,-0.049934227019548416
1772649672718501600,3.786501708984375,0.5792370438575745,0.5928191542625427,-0.31198906898498535
1772649672728506000,3.796506103515625,0.6415549516677856,0.24128219485282898,-0.5484775304794312
1772649672738510300,3.80651025390625,0.6617949604988098,-0.16618111729621887,-0.6081323027610779
1772649672748514800,3.816514892578125,0.5872265100479126,-0.48735806345939636,-0.5841639041900635
1772649672758519000,3.82651904296875,0.5046685934066772,-0.7014760375022888,-0.5745764970779419
1772649672768523300,3.836523193359375,0.46738436818122864,-0.7728486657142639,-0.5783049464225769
1772649672778527700,3.84652783203125,0.4737759530544281,-0.6348970532417297,-0.5628586411476135
1772649672788532000,3.856531982421875,0.43010014295578003,-0.38029909133911133,-0.565521776676178
1772649672798536400,3.866536376953125,0.25060325860977173,-0.06711160391569138,-0.6629933714866638
1772649672808540700,3.876540771484375,0.045007385313510895,0.15020215511322021,-0.8206523656845093
1772649672818545000,3.886544921875,-0.12383688241243362,0.174170583486557,-0.9431576728820801
1772649672828549400,3.89654931640625,-0.15686005353927612,0.04633896425366402,-0.9612671732902527
1772649672838553600,3.9065537109375,-0.10998845845460892,-0.0990695059299469,-0.8675239682197571
1772649672848558000,3.91655810546875,0.006657897029072046,-0.19707375764846802,-0.6789723634719849
1772649672858562300,3.926562255859375,0.15206636488437653,-0.13901689648628235,-0.4382227957248688
1772649672868566800,3.93656689453125,0.29214853048324585,0.0942758247256279,-0.25659534335136414
1772649672888575500,3.956575439453125,0.4695149064064026,0.4569980502128601,-0.1165132001042366
1772649672908584000,3.976583984375,0.6372938752174377,0.9677919149398804,-0.2720416784286499
1772649672918588400,3.98658837890625,0.618651807308197,1.0279792547225952,-0.34714275598526
1772649672928592600,3.996592529296875,0.5318328142166138,0.8372971415519714,-0.3391532599925995
1772649672938597000,4.00659716796875,0.4966791272163391,0.6727139353752136,-0.2768353521823883
1772649672948601300,4.016601318359375,0.4828307032585144,0.7099981307983398,-0.20865848660469055
1772649672958605600,4.02660546875,0.4918854236602783,0.6993455290794373,-0.1639174222946167
1772649672968610000,4.036610107421875,0.43915489315986633,0.6114612817764282,-0.13781847059726715
1772649672978614300,4.0466142578125,0.33422642946243286,0.587492823600769,-0.05952160060405731
1772649672988618800,4.05661865234375,0.1621863692998886,0.5826991200447083,0.028362641111016273
1772649673008627500,4.07662744140625,-0.015180004760622978,0.21358533203601837,0.044874224811792374
1772649673028636200,4.09663623046875,-0.21598218381404877,-0.7909581661224365,0.043808963149785995
1772649673038640400,4.106640380859375,-0.30226853489875793,-1.1664636135101318,0.05712475627660751
1772649673048644600,4.11664453125,-0.3842938244342804,-1.4290510416030884,0.08748476952314377
1772649673058649000,4.126649169921875,-0.4508727788925171,-1.5419689416885376,0.15033531188964844
1772649673068653300,4.1366533203125,-0.4844285845756531,-1.5126742124557495,0.23023007810115814
1772649673078657800,4.14665771484375,-0.5233107209205627,-1.3438299894332886,0.30905959010124207
1772649673088662000,4.156662109375,-0.5126580595970154,-1.0471540689468384,0.3261038064956665
1772649673098666500,4.16666650390625,-0.45300331711769104,-0.7472823858261108,0.26218798756599426
1772649673108670700,4.176670654296875,-0.37790223956108093,-0.5028043985366821,0.15086795389652252
1772649673118675000,4.186675048828125,-0.3028011620044708,-0.3115895688533783,0.039547909051179886
1772649673128679400,4.196679443359375,-0.24900534749031067,-0.11930951476097107,0.03741738200187683
1772649673138683600,4.20668359375,-0.2841590344905853,0.2918822169303894,0.3463438153266907
1772649673148688100,4.216688232421875,-0.44341593980789185,1.6080152988433838,1.620931625366211
1772649673158692400,4.2266923828125,-0.5520728230476379,1.9478343725204468,2.583397150039673
1772649673168696800,4.23669677734375,-0.5163865089416504,-0.6940191984176636,0.5412870049476624
1772649673178701000,4.246701171875,0.06631265580654144,-0.44581279158592224,-1.404949426651001
1772649673188705500,4.25670556640625,0.3928159177303314,-0.14274531602859497,-1.2206588983535767
1772649673198709800,4.266709716796875,0.024234745651483536,-1.2399667501449585,0.24088270962238312
1772649673208714200,4.27671435546875,-0.19840532541275024,-1.3784509897232056,1.042493462562561
1772649673218718500,4.286718505859375,-0.3182474672794342,-0.8037413358688354,0.5498091578483582
1772649673228723000,4.296722900390625,-0.234091654419899,-0.5475454330444336,-0.1266331970691681
1772649673238727200,4.30672705078125,-0.21758008003234863,-0.6221138834953308,-0.3045322000980377
1772649673248731600,4.316731689453125,-0.1291632056236267,-0.5438170433044434,-0.27417218685150146
1772649673258735900,4.32673583984375,0.14247900247573853,-0.013315794058144093,-0.17030900716781616
1772649673268740400,4.336740234375,0.43808963894844055,0.6114612817764282,-0.08615318685770035
1772649673278744600,4.34674462890625,0.7081339359283447,0.8229160904884338,-0.11491530388593674
1772649673288748800,4.356748779296875,0.8625971674919128,0.6450170874595642,-0.26032376289367676
1772649673298753300,4.366753173828125,0.8647276759147644,0.40320223569869995,-0.40306907892227173
1772649673308757500,4.376757568359375,0.7832350134849548,0.23382534086704254,-0.502138614654541
1772649673318762000,4.386761962890625,0.6703170537948608,0.14274531602859497,-0.5468796491622925
1772649673328766200,4.39676611328125,0.5973465442657471,0.09587371349334717,-0.5165196657180786
1772649673338770700,4.406770751953125,0.555801272392273,0.12516845762729645,-0.4659196436405182
1772649673348775000,4.41677490234375,0.4604601562023163,0.20399796962738037,-0.4701806902885437
1772649673358779400,4.426779296875,0.31079062819480896,0.31798115372657776,-0.5266396403312683
1772649673368783600,4.43678369140625,0.120108462870121,0.41172435879707336,-0.5857617855072021
1772649673378788000,4.4467880859375,-0.07590002566576004,0.44048646092414856,-0.6235786080360413
1772649673388792300,4.456792236328125,-0.19361165165901184,0.3153179883956909,-0.6416881084442139
1772649673398796800,4.466796875,-0.22503691911697388,0.06817686557769775,-0.5884249210357666
1772649673408801000,4.476801025390625,-0.20426428318023682,-0.17576847970485687,-0.4845617413520813
1772649673418805500,4.486805419921875,-0.1249021515250206,-0.2210421860218048,-0.3572627604007721
1772649673428809700,4.496809814453125,-0.012516846880316734,-0.13262531161308289,-0.20812585949897766
1772649673438814200,4.506814208984375,0.09880319237709045,0.012783162295818329,-0.05259738489985466
1772649673448818400,4.516818359375,0.22983060777187347,0.07243791967630386,0.07044055312871933
1772649673458822700,4.52682275390625,0.36724960803985596,0.08362318575382233,0.1428784728050232
1772649673468827100,4.5368271484375,0.4796349108219147,0.1651158481836319,0.12530162930488586
1772649673478831400,4.546831298828125,0.5408875346183777,0.272707462310791,0.019307902082800865
1772649673488835800,4.5568359375,0.5110601782798767,0.29401272535324097,-0.0834900289773941
1772649673498840000,4.566840087890625,0.4077296257019043,0.4298338294029236,-0.09520792961120605
1772649673508844500,4.576844482421875,0.4183822572231293,0.7046718001365662,-0.05259738489985466
1772649673518848800,4.586848876953125,0.5334306955337524,0.7344992160797119,0.022503692656755447
1772649673528853200,4.596853271484375,0.6394244432449341,0.4655201733112335,0.060853179544210434
1772649673538857500,4.606857421875,0.6319676041603088,0.14913690090179443,-0.022770008072257042
1772649673548862000,4.616862060546875,0.5334306955337524,-0.11132004112005234,-0.14634057879447937
1772649673558866200,4.6268662109375,0.4599275290966034,-0.38456013798713684,-0.19800585508346558
1772649673568870100,4.6368701171875,0.3789674937725067,-0.6913560032844543,-0.21877849102020264
1772649673578873900,4.646873779296875,0.2612558901309967,-0.9512803554534912,-0.22623534500598907
1772649673588877800,4.6568779296875,0.10892319679260254,-1.1126677989959717,-0.19427743554115295
1772649673598881800,4.6668818359375,-0.030093694105744362,-1.1803120374679565,-0.1122521460056305
1772649673608885800,4.6768857421875,-0.1249021515250206,-1.0807098150253296,-0.011584741063416004
1772649673628893700,4.696893798828125,-0.23675481975078583,-0.7030739188194275,0.14500899612903595
1772649673638897700,4.706897705078125,-0.27883273363113403,-0.5379580855369568,0.14820478856563568
1772649673648901400,4.7169013671875,-0.2798979878425598,-0.4095938205718994,0.12317109853029251
1772649673658905300,4.7269052734375,-0.2537990212440491,-0.2700442969799042,0.1279647797346115
1772649673668909300,4.736909423828125,-0.21758008003234863,-0.10173266381025314,0.15832479298114777
1772649673678913300,4.746913330078125,-0.23728744685649872,0.1272989958524704,0.20306585729122162
1772649673688917200,4.756917236328125,-0.3555316925048828,0.38935381174087524,0.39960697293281555
1772649673698921200,4.766921142578125,-0.56911700963974,0.8410255312919617,1.0653966665267944
1772649673708925200,4.77692529296875,-0.8338350057601929,1.6607458591461182,2.527470827102661
1772649673718929000,4.786928955078125,-1.190698266029358,1.0002824068069458,3.0819406509399414
1772649673728932900,4.796932861328125,-1.8016269207000732,-0.8538087010383606,1.0739188194274902
1772649673738936800,4.806936767578125,-1.2263846397399902,-1.0673940181732178,-0.5836312770843506
1772649673748940800,4.81694091796875,-1.1672625541687012,-0.30466535687446594,-0.5159870386123657
1772649673758944800,4.82694482421875,-1.453818440437317,-0.4436822533607483,0.4299669861793518
1772649673768948700,4.83694873046875,-1.1124014854431152,-0.8106655478477478,0.8997482061386108
1772649673778952400,4.846952392578125,-0.49987491965293884,-0.7904255390167236,0.5508744120597839
1772649673788956400,4.856956298828125,-0.46205806732177734,-0.6860297322273254,0.1002679318189621
1772649673798960400,4.86696044921875,-0.44714435935020447,-0.4846948981285095,-0.024900535121560097
1772649673808964400,4.87696435546875,-0.29214853048324585,0.0005326317623257637,0.08162581920623779
1772649673818968300,4.88696826171875,-0.033289484679698944,0.4058654010295868,0.1711079478263855
1772649673828972300,4.89697216796875,0.2814958989620209,0.43622541427612305,0.0624510757625103
1772649673838976300,4.906976318359375,0.5408875346183777,0.23435798287391663,-0.21664796769618988
1772649673848980200,4.916980224609375,0.594150722026825,-0.070840023458004,-0.489888072013855
1772649673858984000,4.92698388671875,0.5552685856819153,-0.41172435879707336,-0.6842986345291138
1772649673868988000,4.93698779296875,0.4720448851585388,-0.7419560551643372,-0.779639720916748
1772649673878992000,4.946991943359375,0.45713120698928833,-0.9448887705802917,-0.7918902635574341
1772649673888995800,4.956995849609375,0.5215796828269958,-0.9443561434745789,-0.7439534068107605
1772649673898999800,4.966999755859375,0.6563354730606079,-0.7664570808410645,-0.616121768951416
1772649673909003800,4.977003662109375,0.7612639665603638,-0.43675804138183594,-0.44887542724609375
1772649673929011500,4.997011474609375,0.49761122465133667,0.5597959756851196,-0.4083954095840454
1772649673939015400,5.007015380859375,0.1284974068403244,0.818122386932373,-0.552738606929779
1772649673949019400,5.017019287109375,-0.08655266463756561,0.6386255025863647,-0.6251765489578247
1772649673959023400,5.0270234375,-0.0732368677854538,0.40799593925476074,-0.5554017424583435
1772649673969027300,5.03702734375,0.0189084280282259,0.3190464377403259,-0.34607750177383423
1772649673979031300,5.04703125,0.00719052879139781,0.2838927209377289,-0.12343741208314896
1772649673989035000,5.057034912109375,0.006125265266746283,0.15925689041614532,-0.04727106913924217
1772649673999039000,5.0670390625,0.07590002566576004,0.19121479988098145,-0.04087948799133301
1772649674009043000,5.07704296875,0.1627189964056015,0.3723095953464508,-0.09201213717460632
1772649674019047000,5.087046875,0.23888534307479858,0.7249118089675903,-0.1447426825761795
1772649674029051000,5.09705078125,0.289485365152359,1.0924277305603027,-0.24008376896381378
1772649674039054800,5.107054931640625,0.31238853931427,1.162735104560852,-0.32583749294281006
1772649674049058800,5.117058837890625,0.28362640738487244,0.9054740071296692,-0.33169642090797424
1772649674059062800,5.127062744140625,0.2005358636379242,0.3968106508255005,-0.17670059204101562
1772649674069067000,5.13706689453125,0.13235899806022644,-0.01012000348418951,0.0768321305513382
1772649674079071500,5.147071533203125,0.1350221484899521,-0.08841687440872192,0.24887219071388245
1772649674089075700,5.15707568359375,0.1728390008211136,0.08628634363412857,0.22596903145313263
1772649674099080200,5.167080078125,0.17923058569431305,0.11611372232437134,0.06138581037521362
1772649674109084400,5.17708447265625,0.1525990068912506,-0.09800424426794052,-0.10373003780841827
1772649674119089000,5.1870888671875,0.12436951696872711,-0.4106590747833252,-0.18575532734394073
1772649674129093000,5.197093017578125,0.11211898922920227,-0.7323686480522156,-0.1868205964565277
1772649674139097600,5.20709765625,0.0918789803981781,-0.9757813811302185,-0.14261215925216675
1772649674149101800,5.217101806640625,0.05619265139102936,-1.1062761545181274,-0.07070686668157578
1772649674159106300,5.227106201171875,-0.03488738089799881,-1.0993520021438599,0.019840532913804054
1772649674169110800,5.23711083984375,-0.14940321445465088,-1.0082719326019287,0.13222584128379822
1772649674179115000,5.247114990234375,-0.20266638696193695,-0.788827657699585,0.23449113965034485
1772649674189119500,5.257119384765625,-0.2479400783777237,-0.541686475276947,0.31438589096069336
1772649674199123700,5.267123779296875,-0.2793653607368469,-0.3355579972267151,0.34847432374954224
1772649674209128200,5.277128173828125,-0.27244114875793457,-0.15712636709213257,0.3559311628341675
1772649674219132400,5.28713232421875,-0.2426137626171112,0.08522108197212219,0.36711645126342773
1772649674229137000,5.297136962890625,-0.18455690145492554,0.36059170961380005,0.39055225253105164
1772649674239141000,5.30714111328125,-0.10519476979970932,0.6567349433898926,0.40866172313690186
1772649674249145600,5.3171455078125,-0.05619265139102936,0.9874992966651917,0.5162533521652222
1772649674259149800,5.32714990234375,-0.027430536225438118,1.5627416372299194,1.087767243385315
1772649674269154300,5.337154296875,-0.05139896646142006,2.6019060611724854,2.389519214630127
1772649674279158800,5.34715869140625,-0.13981583714485168,1.9057564735412598,2.8193531036376953
1772649674289163000,5.3571630859375,-0.5265064835548401,0.060187388211488724,1.0052093267440796
1772649674299167500,5.36716748046875,-0.5803022980690002,-0.6237117648124695,-0.20333217084407806
1772649674309171700,5.377171630859375,-0.08069371432065964,-0.42131173610687256,0.08056055754423141
1772649674319176200,5.38717626953125,0.08868318796157837,-0.1560611128807068,0.7751123905181885
1772649674329180400,5.397180419921875,-0.09454213827848434,-0.7840339541435242,1.1676620244979858
1772649674339185000,5.407184814453125,-0.356596976518631,-0.9044087529182434,0.7085334062576294
1772649674349189000,5.417189208984375,-0.4599275290966034,-0.8724508285522461,0.10879004001617432
1772649674359193600,5.427193603515625,-0.4402201473712921,-0.9752487540245056,-0.28802061080932617
1772649674369197800,5.43719775390625,-0.26871272921562195,-0.6263749599456787,-0.3902859091758728
1772649674379202300,5.447202392578125,0.04340948909521103,0.047936856746673584,-0.2155826985836029
1772649674389206500,5.45720654296875,0.2804306149482727,0.6103960275650024,-0.11385004222393036
1772649674399211000,5.4672109375,0.42850226163864136,0.7712507843971252,-0.24114902317523956
1772649674409215200,5.47721533203125,0.48016753792762756,0.6657897233963013,-0.4994754493236542
1772649674419219700,5.4872197265625,0.47111278772354126,0.6119939088821411,-0.7348986864089966
1772649674429224200,5.49722412109375,0.41412118077278137,0.5795033574104309,-0.8494145274162292
1772649674439228400,5.507228515625,0.3736411929130554,0.36485275626182556,-0.8398271203041077
1772649674449233000,5.51723291015625,0.35926011204719543,0.11611372232437134,-0.7769765853881836
1772649674459237000,5.527237060546875,0.3241064250469208,0.029294747859239578,-0.7322354912757874
1772649674469241600,5.53724169921875,0.24953797459602356,0.13049478828907013,-0.7386270761489868
1772649674479245800,5.547245849609375,0.12383688241243362,0.2790990471839905,-0.7849660515785217
1772649674489250300,5.557250244140625,0.008788423612713814,0.3334274888038635,-0.8211849927902222
1772649674499254500,5.567254638671875,-0.029028430581092834,0.3584611713886261,-0.7860313057899475
1772649674509259000,5.577259033203125,-0.04181159287691116,0.33236223459243774,-0.6699175834655762
1772649674529267700,5.597267822265625,-0.12436951696872711,0.04900212213397026,-0.36898064613342285
1772649674539272000,5.60727197265625,-0.13768531382083893,0.11025477200746536,-0.3982754051685333
1772649674549276400,5.6172763671875,-0.0540621243417263,0.32224223017692566,-0.37750276923179626
1772649674559280600,5.62728076171875,0.05566002056002617,0.516120195388794,-0.3423490524291992
1772649674569284400,5.637284423828125,0.1957421749830246,0.6988128423690796,-0.315717488527298
1772649674579288000,5.6472880859375,0.3704454004764557,0.8809729218482971,-0.2683132588863373
1772649674589291800,5.657291748046875,0.5291696786880493,1.0173267126083374,-0.22250692546367645
1772649674599295700,5.667295654296875,0.6207823157310486,1.0327730178833008,-0.15592794120311737
1772649674609299500,5.677299560546875,0.669784426689148,0.9709876775741577,-0.03129211440682411
1772649674619303200,5.68730322265625,0.6926876306533813,1.00667405128479,0.11145319789648056
1772649674629307000,5.697306884765625,0.6921550035476685,0.9544761180877686,0.19347849488258362
1772649674639310600,5.707310546875,0.690557062625885,0.7685876488685608,0.14341109991073608
1772649674649314600,5.717314453125,0.6170539259910583,0.48735806345939636,-0.028628956526517868
1772649674659318300,5.727318359375,0.46152541041374207,0.2679137885570526,-0.23209428787231445
1772649674669322000,5.737322021484375,0.33529168367385864,0.015446321107447147,-0.370045930147171
1772649674679325700,5.74732568359375,0.2889527380466461,-0.30040431022644043,-0.41638487577438354
1772649674689329400,5.757329345703125,0.24154850840568542,-0.654604434967041,-0.3908185660839081
1772649674699333000,5.7673330078125,0.16058847308158875,-0.9890971779823303,-0.2949448525905609
1772649674709337000,5.777337158203125,0.07696528732776642,-1.217063546180725,-0.14687320590019226
1772649674729344500,5.797344482421875,-0.1350221484899521,-1.2165309190750122,0.13222584128379822
1772649674749352000,5.81735205078125,-0.3464769721031189,-0.915061354637146,0.2366216629743576
1772649674759356000,5.82735595703125,-0.4263717234134674,-0.7584676146507263,0.2035984843969345
1772649674769359600,5.837359619140625,-0.45619910955429077,-0.5432844161987305,0.1620532125234604
1772649674779363300,5.84736328125,-0.4396875202655792,-0.29454535245895386,0.1711079478263855
1772649674789367000,5.857366943359375,-0.4412854015827179,-0.02077263966202736,0.23395849764347076
1772649674799370800,5.867370849609375,-0.5110601782798767,0.28016430139541626,0.4491417407989502
1772649674809374700,5.877374755859375,-0.6649907827377319,0.9278445243835449,1.3381041288375854
1772649674819378400,5.88737841796875,-0.7827023863792419,2.3723418712615967,3.252382755279541
1772649674829382100,5.897382080078125,-0.6601970791816711,1.1717898845672607,2.8294730186462402
1772649674839385900,5.9073857421875,-0.4822980463504791,-0.34194958209991455,0.10932266712188721
1772649674849389600,5.9173896484375,0.15686005353927612,0.27110958099365234,-0.9479513764381409
1772649674859393300,5.927393310546875,0.16644743084907532,-0.00852210819721222,-0.30240169167518616
1772649674869397200,5.937397216796875,-0.1350221484899521,-1.3630046844482422,0.6675207614898682
1772649674879401000,5.94740087890625,-0.1728390008211136,-1.5366426706314087,0.9008134603500366
1772649674889404700,5.95740478515625,-0.14514215290546417,-1.0966887474060059,0.36072486639022827
1772649674899408400,5.967408447265625,-0.21864533424377441,-1.2703267335891724,-0.13622057437896729
1772649674909412000,5.977412109375,-0.2814958989620209,-1.296425700187683,-0.4360922574996948
1772649674919415800,5.987415771484375,-0.1669800579547882,-0.7994802594184875,-0.32583749294281006
1772649674929419800,5.997419677734375,0.02263684943318367,-0.1603221595287323,0.006524738855659962
1772649674939423500,6.007423583984375,0.3028011620044708,0.31798115372657776,0.12210582941770554
1772649674949427200,6.01742724609375,0.5217128396034241,0.4293012022972107,-0.1404816210269928
1772649674959431000,6.027430908203125,0.6655234098434448,0.2822948396205902,-0.5266396403312683
1772649674969434600,6.0374345703125,0.7150581479072571,0.10918951034545898,-0.816923975944519
1772649674979438300,6.047438232421875,0.6889591813087463,0.019707374274730682,-0.8989492654800415
1772649674989442300,6.0574423828125,0.6591318249702454,-0.07936213165521622,-0.7870965600013733
1772649674999446000,6.067446044921875,0.5904223322868347,-0.17204006016254425,-0.599077582359314
1772649675009449700,6.07744970703125,0.4508727788925171,-0.1459411084651947,-0.47763752937316895
1772649675029457200,6.09745703125,0.04167843610048294,0.240216925740242,-0.5836312770843506
1772649675039461000,6.107461181640625,-0.15060162544250488,0.34727591276168823,-0.7109302282333374
1772649675049464800,6.11746484375,-0.2203763872385025,0.2881537973880768,-0.7679218649864197
1772649675059468800,6.12746875,-0.2502037584781647,0.11025477200746536,-0.6986796855926514
1772649675069473000,6.13747314453125,-0.25979113578796387,-0.04846949130296707,-0.5309007167816162
1772649675079477500,6.1474775390625,-0.2299637645483017,-0.1464737355709076,-0.30186906456947327
1772649675089482000,6.15748193359375,-0.20439743995666504,-0.11877688020467758,-0.0648479163646698
1772649675099486500,6.167486572265625,-0.1868205964565277,0.01597895286977291,0.09440898150205612
1772649675109491000,6.177490966796875,-0.13835109770298004,0.16777899861335754,0.1386174112558365
1772649675119495400,6.187495361328125,-0.08934897929430008,0.2822948396205902,0.05126580595970154
1772649675129500000,6.1975,-0.038216330111026764,0.4378232955932617,-0.054195281118154526
1772649675139504400,6.20750439453125,0.01717737503349781,0.554469645023346,-0.12982898950576782
1772649675149508600,6.217508544921875,0.037550538778305054,0.46924859285354614,-0.14900372922420502
1772649675159513000,6.22751318359375,0.052996858954429626,0.2210421860218048,-0.09946898370981216
1772649675169517600,6.237517578125,0.12117372453212738,0.09534108638763428,0.019840532913804054
1772649675179522000,6.24752197265625,0.2000032216310501,0.09960214048624039,0.17164058983325958
1772649675189526500,6.257526611328125,0.2239716500043869,0.04633896425366402,0.2744385302066803
1772649675199531000,6.267531005859375,0.19787269830703735,-0.11984214931726456,0.2089248150587082
1772649675209535500,6.277535400390625,0.13821794092655182,-0.164583221077919,0.024101587012410164
1772649675219540000,6.2875400390625,0.08335687220096588,-0.18695375323295593,-0.11491530388593674
1772649675229544200,6.297544189453125,0.015712637454271317,-0.3813643455505371,-0.1681784838438034
1772649675239548700,6.307548583984375,-0.057257913053035736,-0.6285054683685303,-0.1777658462524414
1772649675249553200,6.31755322265625,-0.14567478001117706,-0.7510107755661011,-0.1921469122171402
1772649675259557600,6.3275576171875,-0.2330264002084732,-0.7712507843971252,-0.21025638282299042
1772649675269562000,6.33756201171875,-0.32463905215263367,-0.8351665735244751,-0.1969406008720398
1772649675279566600,6.347566650390625,-0.3944138288497925,-0.7978823781013489,-0.18522270023822784
1772649675289571000,6.357571044921875,-0.44394856691360474,-0.7195855379104614,-0.15752583742141724
1772649675299575600,6.367575439453125,-0.4588622748851776,-0.6173202395439148,-0.11331740766763687
1772649675309580000,6.377580078125,-0.47590649127960205,-0.5049349069595337,-0.0600542314350605
1772649675319584300,6.387584228515625,-0.43329593539237976,-0.3051980137825012,0.003861580276861787
1772649675329588700,6.397588623046875,-0.40027275681495667,-0.09800424426794052,0.1050616130232811
1772649675339593200,6.40759326171875,-0.37204328179359436,0.14327794313430786,0.2376869171857834
1772649675349597700,6.41759765625,-0.3603253960609436,0.4101264476776123,0.4145206809043884
1772649675359602200,6.427602294921875,-0.3944138288497925,0.7392928600311279,0.8161250352859497
1772649675369606700,6.437606689453125,-0.3763043284416199,1.3880383968353271,1.5852452516555786
1772649675379611000,6.44761083984375,-0.3139864206314087,1.5968300104141235,2.056091785430908
1772649675389615400,6.457615478515625,-0.8130623698234558,0.1278316229581833,1.0142639875411987
1772649675399619800,6.467619873046875,-1.294028878211975,-1.0689918994903564,-0.43502700328826904
1772649675409624300,6.477624267578125,-1.0948245525360107,-0.7472823858261108,-0.5596628189086914
1772649675419628800,6.48762890625,-0.9925593137741089,0.14434321224689484,0.41824910044670105
1772649675429633300,6.49763330078125,-0.8290413618087769,-0.26418536901474,1.2704598903656006
1772649675439637800,6.5076376953125,-0.5653886198997498,-1.0471540689468384,1.1990872621536255
1772649675449642200,6.517642333984375,-0.5595296621322632,-1.2154656648635864,0.68083655834198
1772649675459646700,6.527646728515625,-0.4833633303642273,-0.8905603289604187,0.1950763761997223
1772649675469651000,6.53765087890625,-0.45247069001197815,-0.5001412034034729,-0.058456335216760635
1772649675479655400,6.547655517578125,-0.4221106767654419,0.0005326317623257637,-0.10958898812532425
1772649675489660000,6.557659912109375,-0.15686005353927612,0.6503433585166931,-0.04514054208993912
1772649675499664400,6.567664306640625,0.1387505680322647,1.0620677471160889,-0.03342264145612717
1772649675509668900,6.5776689453125,0.3278348445892334,0.8495476841926575,-0.18362480401992798
1772649675519673300,6.58767333984375,0.365119069814682,0.3440801203250885,-0.42490699887275696
1772649675529677800,6.597677734375,0.234091654419899,0.1368863582611084,-0.6033385992050171
1772649675549686500,6.6176865234375,-0.18242637813091278,0.2258358597755432,-0.5564670562744141
1772649675559691000,6.62769091796875,-0.2671148180961609,0.16724637150764465,-0.5095954537391663
1772649675569695500,6.637695556640625,-0.3358243405818939,0.26258745789527893,-0.5079975724220276
1772649675579700000,6.647699951171875,-0.35766223073005676,0.4111917316913605,-0.5074648857116699
1772649675599708700,6.667708740234375,-0.2378200888633728,0.5560675859451294,-0.510660707950592
1772649675609713200,6.677713134765625,-0.11638004332780838,0.5225117802619934,-0.4360922574996948
1772649675619717600,6.687717529296875,0.03595264256000519,0.46978121995925903,-0.2853574752807617
1772649675629721900,6.697721923828125,0.18828532099723816,0.5219791531562805,-0.1261005699634552
1772649675639726300,6.707726318359375,0.3193127512931824,0.6972149610519409,-0.01904158480465412
1772649675659735300,6.7277353515625,0.4173169732093811,0.8122634291648865,0.11677951365709305
1772649675669739800,6.73773974609375,0.398674875497818,0.788827657699585,0.12423636019229889
1772649675679744000,6.747743896484375,0.40493330359458923,0.6663223505020142,0.09973529726266861
1772649675689748500,6.75774853515625,0.4203796088695526,0.5683180689811707,-0.022237375378608704
1772649675699753000,6.7677529296875,0.5093291401863098,0.6061349511146545,-0.18895111978054047
1772649675709757200,6.777757080078125,0.6371607184410095,0.6258423328399658,-0.31784799695014954
1772649675719761700,6.78776171875,0.7261102795600891,0.4484759569168091,-0.35406696796417236
1772649675729766100,6.79776611328125,0.747948169708252,0.22264008224010468,-0.2763027250766754
1772649675739770600,6.8077705078125,0.6962828636169434,0.22956429421901703,-0.14687320590019226
1772649675749774800,6.81777490234375,0.631434977054596,0.24607586860656738,-0.08455529063940048
1772649675759779300,6.827779296875,0.585096001625061,0.18056216835975647,-0.09733845293521881
1772649675769783800,6.83778369140625,0.5265064835548401,-0.01704421639442444,-0.10692582279443741
1772649675779788300,6.847788330078125,0.45353594422340393,-0.2913495600223541,-0.08881634473800659
1772649675789792500,6.85779248046875,0.3752390742301941,-0.5251749157905579,-0.0648479163646698
1772649675799797000,6.867796875,0.2756369411945343,-0.6663223505020142,-0.08988160640001297
1772649675809801500,6.877801513671875,0.15952321887016296,-0.7909581661224365,-0.14740583300590515
1772649675819806000,6.887805908203125,0.028495799750089645,-0.9278445243835449,-0.18575532734394073
1772649675829810200,6.89781005859375,-0.12809793651103973,-1.0556761026382446,-0.18522270023822784
1772649675839814700,6.907814697265625,-0.2719085216522217,-1.0823076963424683,-0.16178689897060394
1772649675849819100,6.917819091796875,-0.3976096212863922,-1.024250864982605,-0.08721844851970673
1772649675869828000,6.937828125,-0.49028754234313965,-0.5688506960868835,0.14873741567134857
1772649675879832300,6.947832275390625,-0.4556664824485779,-0.26631587743759155,0.24035008251667023
1772649675889836800,6.9578369140625,-0.4077296257019043,0.04633896425366402,0.2664490342140198
1772649675899841300,6.96784130859375,-0.34967276453971863,0.34674328565597534,0.2786995768547058
1772649675909845800,6.977845703125,-0.32996538281440735,0.566720187664032,0.2808300852775574
1772649675919850000,6.98785009765625,-0.3518032729625702,0.6977475881576538,0.3394196033477783
1772649675929854500,6.9978544921875,-0.3896201252937317,1.0082719326019287,0.668586015701294
1772649675939859000,7.00785888671875,-0.30706220865249634,2.2951102256774902,2.021470785140991
1772649675949863400,7.017863525390625,-0.3981422483921051,2.4682157039642334,3.370626926422119
1772649675959867600,7.02786767578125,-1.2812457084655762,-0.5219791531562805,0.39001959562301636
1772649675969872100,7.0378720703125,-1.306812047958374,0.07456845045089722,-1.4070799350738525
1772649675979876600,7.047876708984375,-0.36671698093414307,1.356080412864685,-0.49255120754241943
1772649675989880800,7.057880859375,-0.36884748935699463,0.01438105758279562,0.7905586957931519
1772649675999885300,7.06788525390625,-0.5243759751319885,-1.410941481590271,1.1479545831680298
1772649676009889800,7.077889892578125,-0.12703268229961395,-1.140364646911621,0.5402217507362366
1772649676019894300,7.087894287109375,0.13715267181396484,-0.41758328676223755,-0.0882837176322937
1772649676029898800,7.097898681640625,0.3560643196105957,-0.0990695059299469,-0.30186906456947327
1772649676039903000,7.107903076171875,0.6500770449638367,-0.24927166104316711,-0.3514038026332855
1772649676049907500,7.117907470703125,0.9749824404716492,0.10013477504253387,-0.21771323680877686
1772649676059911700,7.12791162109375,1.0916287899017334,0.6151896715164185,0.08535423874855042
1772649676069916000,7.137916015625,1.0037446022033691,0.847949743270874,0.16365110874176025
1772649676079920000,7.147920166015625,0.727841317653656,0.9582045674324036,-0.08402266353368759
1772649676089924000,7.157924072265625,0.4966791272163391,0.9582045674324036,-0.3482080101966858
1772649676099928300,7.16792822265625,0.3933485448360443,0.8159918785095215,-0.5048017501831055
1772649676109932300,7.177932373046875,0.18082848191261292,0.6162549257278442,-0.5591301918029785
1772649676119936500,7.1879365234375,-0.011451583355665207,0.3110569417476654,-0.506932258605957
1772649676129940700,7.197940673828125,-0.11478214710950851,0.07456845045089722,-0.4174501299858093
1772649676139944700,7.20794482421875,-0.14620742201805115,-0.047404225915670395,-0.32104378938674927
1772649676149949000,7.217948974609375,-0.11691267043352127,-0.10439582169055939,-0.22623534500598907
1772649676159953000,7.227952880859375,-0.05459475517272949,-0.06391581147909164,-0.1591237336397171
1772649676169957000,7.23795703125,0.019973691552877426,0.1459411084651947,-0.1495363712310791
1772649676179961000,7.247961181640625,0.11318425089120865,0.3765706419944763,-0.16711321473121643
1772649676189965300,7.25796533203125,0.16857795417308807,0.3675159215927124,-0.18948374688625336
1772649676199969500,7.267969482421875,0.1962748020887375,0.38029909133911133,-0.23582270741462708
1772649676209973500,7.277973388671875,0.22024323046207428,0.3206443190574646,-0.25499746203422546
1772649676219977700,7.287977783203125,0.2756369411945343,0.30306747555732727,-0.248605877161026
1772649676229982000,7.29798193359375,0.31025800108909607,0.1363537311553955,-0.20812585949897766
1772649676249990100,7.317990234375,0.509462296962738,0.12623372673988342,-0.06591317802667618
1772649676269998300,7.337998291015625,0.657001256942749,0.4522043764591217,0.0294279046356678
1772649676280002300,7.348002197265625,0.6799044609069824,0.6162549257278442,0.09121318906545639
1772649676290006500,7.358006591796875,0.6756433844566345,0.7089328765869141,0.16844479739665985
1772649676300010800,7.3680107421875,0.6703170537948608,0.650875985622406,0.24301324784755707
1772649676310014700,7.3780146484375,0.6708496809005737,0.5518065094947815,0.28189536929130554
1772649676320019000,7.38801904296875,0.6351633667945862,0.43995383381843567,0.2808300852775574
1772649676330023000,7.39802294921875,0.5600622892379761,0.28975167870521545,0.22809955477714539
1772649676340027100,7.408027099609375,0.4828307032585144,0.047936856746673584,0.15353110432624817
1772649676350031400,7.41803125,0.40027275681495667,-0.23755376040935516,0.05925528332591057
1772649676360035300,7.428035400390625,0.30599695444107056,-0.5358275771141052,-0.04354264587163925
1772649676370039600,7.43803955078125,0.2053295373916626,-0.7866970896720886,-0.12769846618175507
1772649676380043500,7.44804345703125,0.10359688103199005,-0.9587371945381165,-0.16604794561862946
1772649676390047700,7.4580478515625,-0.030093694105744362,-1.031707763671875,-0.14101426303386688
1772649676400051700,7.4680517578125,-0.1440768986940384,-1.0524803400039673,-0.06804370880126953
1772649676410056000,7.478055908203125,-0.223439022898674,-1.0349035263061523,-0.014247899875044823
1772649676420060200,7.48806005859375,-0.30120325088500977,-0.9779118895530701,0.0006657897029072046
1772649676430064000,7.498064208984375,-0.3549990653991699,-0.822383463382721,-0.006791055202484131
1772649676440068400,7.508068359375,-0.3837611973285675,-0.5496760010719299,-0.02383527159690857
1772649676450072600,7.518072509765625,-0.4173169732093811,-0.16192005574703217,-0.026498429477214813
1772649676460076500,7.52807666015625,-0.5153212547302246,0.2876211404800415,0.04114580526947975
1772649676470080800,7.538080810546875,-0.7219823598861694,0.7648591995239258,0.3085269629955292
1772649676480084700,7.548084716796875,-1.0447572469711304,1.4711289405822754,1.397758960723877
1772649676490089000,7.5580888671875,-1.3946962356567383,1.8386448621749878,2.795384645462036
1772649676500093000,7.568093017578125,-1.3472920656204224,-0.7840339541435242,1.2124030590057373
1772649676510097200,7.57809716796875,-0.560594916343689,-1.150484561920166,-0.8313050270080566
1772649676520101400,7.588101318359375,-0.5717802047729492,0.08788423985242844,-0.6981470584869385
1772649676530105300,7.598105224609375,-0.946220338344574,-0.0330231711268425,0.2126532346010208
1772649676540109600,7.608109619140625,-0.8008118271827698,-0.675909698009491,1.0286450386047363
1772649676550113500,7.618113525390625,-0.34967276453971863,-1.0157287120819092,1.024916648864746
1772649676560117500,7.628117431640625,-0.16857795417308807,-1.296425700187683,0.44647857546806335
1772649676570121500,7.63812158203125,-0.2287653386592865,-1.1132004261016846,-0.0057257916778326035
1772649676580125400,7.64812548828125,-0.26019060611724854,-0.4937496483325958,-0.08402266353368759
1772649676590129200,7.658129150390625,-0.2426137626171112,0.19494321942329407,-0.008388950489461422
1772649676600133000,7.668133056640625,-0.10093371570110321,0.4761728048324585,-0.029694220051169395
1772649676610136800,7.67813671875,0.1579253226518631,0.2071937620639801,-0.0648479163646698
1772649676620140800,7.688140869140625,0.4924180507659912,-0.11132004112005234,-0.1543300598859787
1772649676630144500,7.69814453125,0.707068681716919,-0.28069692850112915,-0.29281431436538696
1772649676640148500,7.7081484375,0.6793718338012695,-0.4628570079803467,-0.41105857491493225
1772649676650152200,7.718152099609375,0.5313001871109009,-0.48309701681137085,-0.5085301995277405
1772649676660156200,7.72815625,0.37204328179359436,-0.4580633044242859,-0.5649891495704651
1772649676670160000,7.738159912109375,0.28788745403289795,-0.4186485707759857,-0.5516733527183533
1772649676680163800,7.748163818359375,0.24208113551139832,-0.3190464377403259,-0.46698489785194397
1772649676690167600,7.75816748046875,0.19254638254642487,-0.1278316229581833,-0.3604585528373718
1772649676700171500,7.768171630859375,0.09986845403909683,0.0990695059299469,-0.3338269591331482
1772649676720179200,7.78817919921875,-0.17390426993370056,0.32277485728263855,-0.5415533185005188
1772649676730183000,7.798182861328125,-0.21704743802547455,0.2221074402332306,-0.6294375658035278
1772649676740187000,7.808186767578125,-0.18242637813091278,0.11238530278205872,-0.6294375658035278
1772649676750190600,7.818190673828125,-0.0822916105389595,-0.012250530533492565,-0.5159870386123657
1772649676760194600,7.828194580078125,0.027430536225438118,-0.08362318575382233,-0.3375553786754608
1772649676770198300,7.8381982421875,0.10998845845460892,-0.10279793292284012,-0.1351553052663803
1772649676780202200,7.8482021484375,0.16591478884220123,-0.054861072450876236,0.03315632790327072
1772649676790206000,7.8582060546875,0.1957421749830246,0.08415582031011581,0.11837740987539291
1772649676800210000,7.8682099609375,0.18082848191261292,0.2258358597755432,0.08269108086824417
1772649676810214000,7.8782138671875,0.120108462870121,0.3669832944869995,-0.017976321280002594
1772649676820217600,7.888217529296875,0.14088110625743866,0.6599307656288147,-0.13728584349155426
1772649676830221300,7.89822119140625,0.13076110184192657,0.7909581661224365,-0.23315955698490143
1772649676840225300,7.908225341796875,0.1339568942785263,0.8005455136299133,-0.2544648349285126
1772649676850229200,7.918229248046875,0.16591478884220123,0.6934865713119507,-0.22250692546367645
1772649676860233000,7.92823291015625,0.18508954346179962,0.6130591630935669,-0.13462267816066742
1772649676870237000,7.93823681640625,0.23941797018051147,0.48842331767082214,-0.0030626326333731413
1772649676880240600,7.94824072265625,0.29800745844841003,0.314785361289978,0.11198582500219345
1772649676890244600,7.95824462890625,0.30120325088500977,0.13741900026798248,0.1524658352136612
1772649676900248300,7.968248291015625,0.2575274705886841,-0.006391581147909164,0.11731214821338654
1772649676910252300,7.978252197265625,0.20373165607452393,-0.11558109521865845,0.03795001283288002
1772649676920256000,7.988256103515625,0.14301162958145142,-0.348341166973114,-0.008388950489461422
1772649676930260000,7.998260009765625,0.05619265139102936,-0.6285054683685303,-0.0009321055840700865
1772649676940263700,8.008263671875,-0.03968106582760811,-0.8676571249961853,0.023036323487758636
1772649676950267600,8.018267578125,-0.1440768986940384,-1.0769814252853394,0.047537386417388916
1772649676960271400,8.028271240234375,-0.23888534307479858,-1.2223899364471436,0.07150581479072571
1772649676970275300,8.038275390625,-0.3320958912372589,-1.2687288522720337,0.08215844631195068
1772649676980279000,8.048279052734374,-0.388022243976593,-1.1856383085250854,0.07363633811473846
1772649676990283000,8.058282958984375,-0.4599275290966034,-0.9645960927009583,0.06138581037521362
1772649677000286700,8.06828662109375,-0.5163865089416504,-0.6833665370941162,0.05819002166390419
1772649677010290700,8.078290771484374,-0.5568665266036987,-0.3952127695083618,0.1279647797346115
1772649677020294400,8.08829443359375,-0.5755085945129395,-0.06178528442978859,0.3506048619747162
1772649677030298400,8.09829833984375,-0.5749759674072266,0.4996086061000824,0.9098681807518005
1772649677040302000,8.108302001953126,-0.5254412293434143,1.2772510051727295,1.960750699043274
1772649677050306000,8.11830615234375,-0.5403549075126648,1.0018802881240845,2.1791296005249023
1772649677060310000,8.12831005859375,-1.1209235191345215,-0.6492781043052673,0.30000483989715576
1772649677070314200,8.138314208984376,-1.2295804023742676,-1.4897710084915161,-1.0193240642547607
1772649677080318500,8.148318359375,-1.0287781953811646,-0.5262401700019836,-0.519715428352356
1772649677090322700,8.15832275390625,-0.9579382538795471,0.32277485728263855,0.5652554631233215
1772649677100327000,8.168326904296874,-0.6953507661819458,-0.36591801047325134,1.154878854751587
1772649677110331100,8.1783310546875,-0.5456812381744385,-0.587492823600769,0.9780450463294983
1772649677120335400,8.18833544921875,-0.7811045050621033,-0.260456919670105,0.7969502806663513
1772649677130339600,8.198339599609374,-0.8594013452529907,0.3499390780925751,0.6456828713417053
1772649677140343800,8.20834375,-0.9504813551902771,0.4756401777267456,0.49335017800331116
1772649677150348000,8.21834814453125,-0.9994835257530212,0.4474106729030609,0.49281755089759827
1772649677160352300,8.228352294921875,-0.9392961263656616,0.7701855301856995,0.613724946975708
1772649677170356500,8.2383564453125,-0.7858981490135193,1.1291793584823608,0.6627270579338074
1772649677180360700,8.248360595703126,-0.6101296544075012,1.3054804801940918,0.6057354807853699
1772649677190365200,8.258365234375,-0.39601171016693115,1.2564783096313477,0.49814385175704956
1772649677200369400,8.268369384765625,-0.1818937510251999,0.9768466353416443,0.42197751998901367
1772649677210373600,8.27837353515625,-0.0189084280282259,0.6902907490730286,0.34687644243240356
1772649677220377900,8.2883779296875,0.029561063274741173,0.40320223569869995,0.16897742450237274
1772649677230382000,8.298382080078126,-0.032756853848695755,0.13209268450737,-0.09147950261831284
1772649677240386300,8.30838623046875,-0.0780305564403534,-0.10120003670454025,-0.3327617049217224
1772649677250390500,8.318390625,-0.09614003449678421,-0.25193482637405396,-0.4797680675983429
1772649677260394800,8.328394775390626,-0.11424951255321503,-0.31265485286712646,-0.5271722674369812
1772649677270399000,8.33839892578125,-0.13289162516593933,-0.3435474932193756,-0.5277048945426941
1772649677280403200,8.3484033203125,-0.11917635798454285,-0.3691138029098511,-0.540488064289093
1772649677290407400,8.358407470703124,-0.03928159177303314,-0.5001412034034729,-0.5479449033737183
1772649677300411600,8.36841162109375,-0.0057257916778326035,-0.6418212652206421,-0.5500754714012146
1772649677310416000,8.378415771484375,0.05712475627660751,-0.8159918785095215,-0.5250417590141296
1772649677320420000,8.388420166015624,0.11837740987539291,-1.0183919668197632,-0.4739091098308563
1772649677330424300,8.39842431640625,0.18442374467849731,-1.1121351718902588,-0.42650488018989563
1772649677340428500,8.408428466796876,0.2643185257911682,-1.1638003587722778,-0.3434143364429474
1772649677350432800,8.418432861328125,0.3262369632720947,-1.132907748222351,-0.2587258815765381
1772649677360437000,8.42843701171875,0.3800327479839325,-1.108406662940979,-0.150068998336792
1772649677370441200,8.438441162109376,0.4029359221458435,-1.0221203565597534,-0.07709844410419464
1772649677380445400,8.448445556640625,0.44235068559646606,-0.9528782367706299,-0.07337002456188202
1772649677390449700,8.45844970703125,0.4934833347797394,-0.9550087451934814,-0.12077425420284271
1772649677400454000,8.468453857421874,0.5137233138084412,-0.9827055931091309,-0.19587533175945282
1772649677410458400,8.478458251953125,0.5366265177726746,-0.9645960927009583,-0.2635195553302765
1772649677420462600,8.488462646484376,0.5398222804069519,-0.973118245601654,-0.2960101068019867
1772649677430466600,8.498466552734374,0.5382243990898132,-1.0247834920883179,-0.28482484817504883
1772649677440471000,8.508470947265625,0.49082016944885254,-1.0338382720947266,-0.2533995509147644
1772649677450475300,8.518475341796876,0.4466117322444916,-1.1185266971588135,-0.21451744437217712
1772649677460479500,8.5284794921875,0.3656516969203949,-1.2042803764343262,-0.1687111109495163
1772649677470483700,8.538483642578125,0.25912535190582275,-1.2479562759399414,-0.11917635798454285
1772649677480488000,8.548488037109376,0.17124110460281372,-1.2958930730819702,-0.06644581258296967
1772649677490492200,8.5584921875,0.10785793513059616,-1.3235899209976196,-0.00945421401411295
1772649677500496400,8.568496337890625,0.041278962045907974,-1.29216468334198,0.05978791415691376
1772649677510500600,8.57850048828125,0.025300009176135063,-1.1962909698486328,0.10772477090358734
1772649677520504800,8.5885048828125,0.03861580416560173,-1.0636656284332275,0.11784477531909943
1772649677530509000,8.598509033203126,0.06098633632063866,-0.9086697697639465,0.10932266712188721
1772649677540513300,8.60851318359375,0.08548739552497864,-0.7595328688621521,0.09281108528375626
1772649677550517500,8.618517578125,0.11198582500219345,-0.6343644261360168,0.07523423433303833
1772649677560521700,8.628521728515626,0.1237037256360054,-0.5384907126426697,0.07576686888933182
1772649677570526000,8.63852587890625,0.13435636460781097,-0.43729066848754883,0.08215844631195068
1772649677580530200,8.6485302734375,0.15512900054454803,-0.34621065855026245,0.08908266574144363
1772649677590534400,8.658534423828126,0.1892174333333969,-0.26578325033187866,0.09440898150205612
1772649677600538600,8.66853857421875,0.19560901820659637,-0.23915165662765503,0.10612688213586807
1772649677610542800,8.67854296875,0.21158796548843384,-0.23808640241622925,0.10932266712188721
1772649677620547000,8.688547119140624,0.19667427241802216,-0.27537062764167786,0.12104056775569916
1772649677630551300,8.69855126953125,0.17483638226985931,-0.3158506453037262,0.1189100444316864
1772649677640555500,8.708555419921876,0.1327584683895111,-0.35526537895202637,0.13488899171352386
1772649677650559700,8.718559814453124,0.11464899033308029,-0.3547327518463135,0.1284974068403244
1772649677660564000,8.72856396484375,0.08535423874855042,-0.40266960859298706,0.12157320231199265
1772649677670568200,8.738568115234376,0.04700475186109543,-0.39840856194496155,0.12583425641059875
1772649677680572400,8.748572509765625,0.035286854952573776,-0.41651803255081177,0.11997530609369278
1772649677690576600,8.75857666015625,0.019307902082800865,-0.4282359480857849,0.10825740545988083
1772649677700580900,8.768580810546876,0.009720529429614544,-0.438355952501297,0.09227845072746277
1772649677710585000,8.778585205078125,0.016112111508846283,-0.4181159436702728,0.05499422922730446
1772649677720589300,8.78858935546875,-0.00519315991550684,-0.4532696306705475,0.032091062515974045
1772649677730593500,8.798593505859374,-0.021704744547605515,-0.4293012022972107,0.02996053732931614
1772649677740597800,8.80859765625,-0.024900535121560097,-0.4000064432621002,0.027830010280013084
1772649677750602000,8.81860205078125,-0.025832640007138252,-0.36112433671951294,0.03688475117087364
1772649677760606200,8.828606201171874,-0.02263684943318367,-0.316915899515152,0.05925528332591057
1772649677770610400,8.8386103515625,-0.02636527270078659,-0.2700442969799042,0.08056055754423141
1772649677790619000,8.858618896484375,-0.028495799750089645,-0.18109479546546936,0.133291095495224
1772649677800623000,8.868623046875,-0.028495799750089645,-0.14540846645832062,0.1519332081079483
1772649677810627300,8.87862744140625,-0.027963167056441307,-0.12090741097927094,0.16737952828407288
1772649677820631600,8.888631591796875,-0.0306263267993927,-0.09960214048624039,0.18282584846019745
1772649677830635800,8.8986357421875,-0.035420011729002,-0.08149266242980957,0.1950763761997223
1772649677840640000,8.908639892578124,-0.03488738089799881,-0.0612526535987854,0.20200060307979584
1772649677850644200,8.918644287109375,-0.04447475075721741,-0.042610540986061096,0.19294585287570953
1772649677860648400,8.9286484375,-0.05832317844033241,-0.0010652635246515274,0.16684690117835999
1772649677870652700,8.938652587890624,-0.06684528291225433,0.019174743443727493,0.11944267153739929
1772649677880657000,8.948656982421875,-0.0636494979262352,0.013848425820469856,0.07470160722732544
1772649677890661000,8.9586611328125,-0.033289484679698944,0.026631588116288185,0.048070017248392105
1772649677900665300,8.968665283203125,-0.05566002056002617,0.02876211516559124,0.05392896756529808
1772649677910669600,8.978669677734375,-0.04394211992621422,0.07936213165521622,0.052331071346998215
1772649677920673800,8.988673828125,-0.036485277116298676,0.06551370769739151,0.04593949019908905
1772649677930678000,8.998677978515625,-0.032756853848695755,0.04846949130296707,0.051798440515995026
1772649677940682200,9.00868212890625,-0.035420011729002,0.034621063619852066,0.05392896756529808
1772649677950686500,9.0186865234375,-0.04340948909521103,0.01597895286977291,0.05020054429769516
1772649677960690700,9.028690673828125,-0.04873580485582352,0.004793685860931873,0.05446159839630127
1772649677970695000,9.03869482421875,-0.05459475517272949,-0.007989476434886456,0.0576573871076107
1772649677980699100,9.04869921875,-0.06205160170793533,0.00426105409860611,0.06617949903011322
1772649677990703400,9.058703369140625,-0.06098633632063866,0.03994738310575485,0.07523423433303833
1772649678000707600,9.06870751953125,-0.05938844010233879,0.06285054981708527,0.08428897708654404
1772649678010711800,9.0787119140625,-0.06418212503194809,0.09001477062702179,0.07736476510763168
1772649678020715800,9.0887158203125,-0.06578002125024796,0.1225053071975708,0.05819002166390419
1772649678030720000,9.098719970703126,-0.07430212944746017,0.1464737355709076,0.05020054429769516
1772649678040724200,9.10872412109375,-0.0780305564403534,0.1560611128807068,0.0576573871076107
1772649678050728400,9.118728515625,-0.07856318354606628,0.14913690090179443,0.07416897267103195
1772649678060733000,9.12873291015625,-0.0780305564403534,0.1272989958524704,0.09653950482606888
1772649678070738000,9.138738037109375,-0.0684431791305542,0.10918951034545898,0.12104056775569916
1772649678080742700,9.14874267578125,-0.0588558092713356,0.10546109080314636,0.14820478856563568
1772649678090747600,9.15874755859375,-0.04234422370791435,0.11558109521865845,0.15885742008686066
1772649678100752400,9.16875244140625,-0.03169158846139908,0.12357056885957718,0.13915005326271057
1772649678110757400,9.17875732421875,-0.020506322383880615,0.12090741097927094,0.1045289859175682
1772649678120762000,9.18876220703125,-0.010918950662016869,0.1129179298877716,0.06937528401613235
1772649678130767000,9.19876708984375,-0.007723160553723574,0.1086568832397461,0.035286854952573776
1772649678140771800,9.208771728515625,-0.009853687137365341,0.10918951034545898,0.008655265904963017
1772649678150776800,9.21877685546875,-0.014247899875044823,0.1081242486834526,-0.0003994738217443228
1772649678160781600,9.228781494140625,-0.016378426924347878,0.10972214490175247,0.0006657897029072046
1772649678170786600,9.23878662109375,-0.01531316339969635,0.10439582169055939,0.005992107093334198
1772649678180791300,9.248791259765625,-0.020639481022953987,0.09960214048624039,0.003328948514536023
1772649678190796300,9.25879638671875,-0.021172111853957176,0.09267792850732803,-0.01904158480465412
1772649678200801300,9.26880126953125,-0.024900535121560097,0.0756337121129036,-0.03928159177303314
1772649678210806000,9.278805908203125,-0.03448790684342384,0.08894950151443481,-0.029694220051169395
1772649678220811000,9.28881103515625,-0.03608580306172371,0.09321055561304092,-0.021172111853957176
1772649678230815700,9.298815673828125,-0.03715106472373009,0.10120003670454025,-0.004127896390855312
1772649678240820700,9.30882080078125,-0.03715106472373009,0.10705898702144623,0.009720529429614544
