time,seconds_elapsed,z,y,x
1772648227941915400,0.062915283203125,-0.4085457295775413,-0.29586218420565125,-0.20495865509584546
1772648227951956500,0.07295654296875,-0.39663463477045297,-0.2670212896466255,-0.2177837960079312
1772648227961996500,0.08299658203125,-0.3799585175186395,-0.25981647283434867,-0.18398878617286682
1772648227972037600,0.09303759765625,-0.4357473324969411,-0.26350246787071224,-0.17740648517310617
1772648227982077700,0.10307763671875,-0.46941345525532957,-0.23787469013929366,-0.19499927887842058
1772648227992118500,0.113118408203125,-0.4562871394395828,-0.2504676297307014,-0.24259192791953682
1772648228002158300,0.123158447265625,-0.4432192758128047,-0.26139935811161996,-0.3220579710833728
1772648228012199400,0.133199462890625,-0.4170347409814596,-0.2367348724544048,-0.3937077875383198
1772648228022239500,0.143239501953125,-0.4925631524354219,-0.1908130792349577,-0.44519583658277984
1772648228032280300,0.1532802734375,-0.5757315572485328,-0.10193068068921565,-0.5452236062601208
1772648228042320400,0.1633203125,-0.6851423645600676,0.03660217621028423,-0.619770459330827
1772648228052361500,0.173361572265625,-0.6009834874048828,0.09940905325710774,-0.6445416202329098
1772648228062401500,0.183401611328125,-0.3125032301440835,0.005554711517691612,-0.5990161328546703
1772648228072442600,0.193442626953125,-0.29145635046213864,-0.13672902234792708,-0.6342312386207282
1772648228082482700,0.203482666015625,-0.38925709173977374,-0.09123977532684803,-0.7949906865060329
1772648228092523500,0.2135234375,-0.2356274957343936,-0.0786667094796896,-0.7742635402977466
1772648228102563300,0.223563232421875,-0.11554244193434715,-0.14378887773156165,-0.8390497545935213
1772648228112604400,0.2336044921875,0.043509179119765755,-0.1406108322173357,-1.0167806494154035
1772648228122644500,0.24364453125,0.07625906381607055,-0.16704700372219083,-1.1196506567813456
1772648228132685300,0.253685302734375,0.012661328652501105,-0.1405547181159258,-1.2425808708794415
1772648228142725400,0.263725341796875,0.15020634355843065,-0.0998334161490202,-1.1914140166133642
1772648228152766500,0.273766357421875,0.3074038611784577,-0.12773732211887837,-0.929921719521284
1772648228162807600,0.2838076171875,0.30801439429223537,-0.17426175740659236,-0.6899769451096653
1772648228172847600,0.29384765625,0.20158114148676395,-0.10401683931350707,-0.5601954038120806
1772648228182888400,0.303888427734375,0.21752222246229647,0.018847908332943916,-0.513978865429759
1772648228192928500,0.313928466796875,0.3686895200073719,0.10026245521605014,-0.43018049215003845
1772648228202969600,0.323969482421875,0.40923166601508854,0.06980009693503379,-0.22573110175058245
1772648228213009700,0.334009765625,0.1685378268018365,0.0045078328132629394,0.0319796309761703
1772648228223050500,0.344050537109375,0.21144290254861114,-0.0690156685590744,0.15158157743439077
1772648228233090300,0.35409033203125,0.2163186918914318,-0.19547347226142883,0.2738436830125749
1772648228243131400,0.36413134765625,0.24816227539777755,-0.2400602174848318,0.41596155879199503
1772648228253171500,0.37417138671875,0.2757081617102027,-0.2564747611910105,0.6125475223399698
1772648228263212500,0.384212646484375,0.27288667454868554,-0.19317104053795336,0.8015843856826425
1772648228273252600,0.394252685546875,0.23293314208388327,-0.08377484627366065,0.9867667655542492
1772648228283293400,0.40429345703125,0.25372517022192476,0.05635550895035266,1.1292771477825938
1772648228293333500,0.41433349609375,0.23055063086152075,0.20368600481152532,1.2152217393107712
1772648228303374600,0.42437451171875,0.106812607511878,0.3061994538247585,1.2710409494273365
1772648228313414700,0.43441455078125,-0.06274199511706828,0.3520364913702011,1.28729708770141
1772648228323455500,0.44445556640625,-0.061896484203636644,0.29047230786085126,1.2152977271564305
1772648228333495300,0.454495361328125,-0.05129939460456371,0.18287118031978605,1.0963730954378843
1772648228343536400,0.464536376953125,-0.01492459740936756,0.06054594637751579,0.9179343446075916
1772648228353576400,0.474576416015625,0.03326426395922899,-0.07078969249427318,0.6963534944042563
1772648228363617500,0.484617431640625,0.058817807410657404,-0.14003741624355315,0.5587802763171493
1772648228373658400,0.494658447265625,0.06023498073220253,-0.20768647262454032,0.44738370201587674
1772648228383698400,0.504698486328125,0.020004384891688824,-0.29641163478195665,0.33888357980847356
1772648228393739500,0.514739501953125,0.015653203944861888,-0.3492822242259979,0.20974486645907162
1772648228403779600,0.524779541015625,0.05571136582791805,-0.34975977860987184,0.06954393021687864
1772648228413820400,0.5348203125,0.15327654478400946,-0.30828853505849835,0.006403145040571689
1772648228423860500,0.544860595703125,0.26762860789000986,-0.324143691316247,0.029463410371541977
1772648228433901600,0.554901611328125,0.26199498591721054,-0.3812286835849285,0.09059577833488583
1772648228443941600,0.564941650390625,0.1482218917429447,-0.40571781267523765,0.08465016780346632
1772648228453982500,0.574982421875,0.12365414445847273,-0.3888175312787294,-0.016031681868433952
1772648228464022300,0.585022216796875,0.21369360408484933,-0.3268745775848627,-0.11641016467958688
1772648228474063400,0.5950634765625,0.32849370321929455,-0.23200258323550224,-0.14212722812965511
1772648228484103400,0.605103515625,0.3084177143961191,-0.1798550473690033,-0.1113065579302609
1772648228494144500,0.61514453125,0.17411036623716353,-0.14278350008130072,-0.08202332643121481
1772648228504184600,0.6251845703125,0.1538864933758974,-0.10554127240180969,-0.028041122483462095
1772648228514225400,0.635225341796875,0.1203960194453597,-0.06725859575867653,0.08797229796350002
1772648228524265500,0.645265380859375,0.1897162239089608,-0.1246416941910982,0.27395766478106376
1772648228534306600,0.655306640625,0.13164192834198474,-0.2503694300532341,0.4213829993188381
1772648228544346600,0.6653466796875,-0.01997574331909418,-0.34360651667714115,0.5611417447514832
1772648228554387500,0.675387451171875,-0.13001841879338025,-0.4393792592585087,0.7173281856328249
1772648228564427300,0.68542724609375,-0.1784685614466667,-0.4668196393698454,0.8496107499659061
1772648228574468400,0.69546826171875,-0.21021949823349714,-0.43549394225776195,0.9181308900929986
1772648228584508400,0.70550830078125,-0.2089306274667382,-0.3454582820236683,1.0068572212941944
1772648228594549500,0.715549560546875,-0.14120119932591915,-0.29200784686505793,1.0830870590157806
1772648228604589600,0.725589599609375,-0.057794309581816194,-0.31360885329842564,1.1547441819943487
1772648228614630400,0.73563037109375,-0.08784048827737569,-0.3412257590204477,1.2464714485771953
1772648228624671500,0.74567138671875,-0.10646569377034902,-0.3456540968567133,1.2868220175355671
1772648228634711600,0.755711669921875,-0.0467424619525671,-0.37920389975905416,1.2579159487858413
1772648228644752400,0.76575244140625,0.005101999314129352,-0.44437984402477737,1.1788783601671458
1772648228654792400,0.77579248046875,-0.005769523312151432,-0.4290630324274301,1.0333533062927425
1772648228664833500,0.78583349609375,0.00032382512688636776,-0.37067221825718877,0.8665617386363447
1772648228674873600,0.79587353515625,-0.06650222443342209,-0.3310620924025774,0.7174046118699013
1772648228684914700,0.805914794921875,-0.19750731617659328,-0.26430910807847974,0.6051154726430773
1772648228694954500,0.81595458984375,-0.2810015919432044,-0.2655529706597328,0.5755363269373774
1772648228704995300,0.825995361328125,-0.3239668734446168,-0.28122224895656106,0.5296339690707623
1772648228715035400,0.836035400390625,-0.28903350722938775,-0.32903730857670305,0.538444029122591
1772648228725076500,0.846076416015625,-0.20607816064506768,-0.43403439109921454,0.583913840790838
1772648228735116500,0.856116455078125,-0.21863690570592878,-0.5245581271111965,0.6999211237579583
1772648228745157400,0.866157470703125,-0.2916051112830639,-0.5669219355881214,0.8723170872926711
1772648228755197400,0.876197509765625,-0.40692543489933014,-0.5538549487441777,1.0331595372863114
1772648228765238500,0.886238525390625,-0.4142527090474963,-0.49265258428454395,1.1705755189850926
1772648228775278600,0.896278564453125,-0.3940820276781916,-0.3837859668523073,1.2467244004249571
1772648228785319700,0.906319580078125,-0.32614334070086476,-0.2823006918430328,1.3255723116904496
1772648228795359500,0.916359375,-0.43629678307324643,-0.19480945539474487,1.5400503441512583
1772648228805400300,0.926400390625,-0.518658255417645,-0.07278291213810444,1.7900889348149298
1772648228815440400,0.9364404296875,-0.5832736431911587,0.17297931638062,1.9152702888406812
1772648228825481500,0.9464814453125,-0.5318912464782596,0.4549322176992893,1.768161472906172
1772648228835521500,0.956521484375,-0.4289899671912193,0.5703121625483035,1.6626996954813598
1772648228845562400,0.966562255859375,-0.46087183688133954,0.5178384634673595,1.8150589792899787
1772648228855603500,0.976603515625,-0.5594909088045358,0.48685412713885307,1.9739627163060007
1772648228865643500,0.9866435546875,-0.6379778778031469,0.4556640391051769,2.028332750527561
1772648228875684600,0.9966845703125,-0.7110659103676676,0.35533553291559217,1.9897744718134402
1772648228885724700,1.006724609375,-0.7815688948750495,0.33306758700609207,1.8613081047676503
1772648228895765200,1.01676513671875,-0.7545069926872849,0.33048283120989796,1.6582883087798952
1772648228905805300,1.026805419921875,-0.7653665326148271,0.3449778050303459,1.4487036013185977
1772648228915846400,1.036846435546875,-0.7473962838992476,0.38708150126636026,1.2973062944099307
1772648228925886500,1.046886474609375,-0.6922580417841673,0.4606979416191578,1.1274467174850404
1772648228935927300,1.05692724609375,-0.5736402840577065,0.4431815741509199,0.9132175452187656
1772648228945967000,1.066967041015625,-0.3561871813088655,0.3818430160909891,0.6956760335341096
1772648228956008200,1.07700830078125,-0.18595511780977247,0.31857319770753384,0.6320819516323506
1772648228966048300,1.08704833984375,-0.05399754764735698,0.29887305645942686,0.5881817273683846
1772648228976089300,1.09708935546875,0.12027239306569099,0.26178163542747496,0.4367649851068854
1772648228986129400,1.10712939453125,0.37007249879837034,0.17747253614664077,0.18629867055043578
1772648228996170200,1.117170166015625,0.7094833173513412,-0.005851648637652397,-0.09701616677120327
1772648229006210300,1.127210205078125,1.047850910461694,-0.2071826147556305,-0.41069077878221866
1772648229016251400,1.13725146484375,1.1869769109487533,-0.43200025492310523,-0.7517455651499331
1772648229026291500,1.14729150390625,1.169504382622242,-0.5566530550301074,-1.143167725969106
1772648229036332300,1.157332275390625,1.0411185334667563,-0.6512590919196606,-1.5058258568577467
1772648229046372400,1.167372314453125,0.7646911175712943,-0.6257751065731049,-1.8486575897701083
1772648229056413400,1.177413330078125,0.4507917568936944,-0.5479869334936142,-2.137742681056261
1772648229066453200,1.187453369140625,0.19395926830619573,-0.5003887314945459,-2.351210513561219
1772648229076494300,1.197494384765625,-0.02123275764286518,-0.40700025370121,-2.4523998743638393
1772648229086535200,1.20753515625,-0.1850572921872139,-0.18609540306329725,-2.4314406729653477
1772648229096575200,1.2175751953125,-0.35093057595491406,0.1904120972186327,-2.3161792399294674
1772648229106616300,1.2276162109375,-0.48945145015567537,0.6559644931316375,-2.125346579211205
1772648229116656400,1.237656494140625,-0.5464255293957889,1.1437585314691066,-1.9106186636425553
1772648229126697200,1.247697265625,-0.5296333845488727,1.5769599788755178,-1.5501226792238652
1772648229136737300,1.2577373046875,-0.46983109614551066,1.8637351857841014,-1.1181164329513906
1772648229146778400,1.2677783203125,-0.3509273610845208,1.9946067142754793,-0.6796592569738626
1772648229156818400,1.277818359375,-0.20850363422632215,2.00021929346025,-0.387055782303214
1772648229166859300,1.287859375,-0.03410451417565345,1.8793395821511745,-0.16530249814242123
1772648229176899000,1.297899169921875,-0.019306027363985775,1.63217859275043,-0.12200184720680117
1772648229186940400,1.3079404296875,0.042121378023177385,1.2685849345773457,-0.13936755415797233
1772648229196980200,1.317980224609375,0.012096680507063865,0.8157301076740026,-0.10712284250482916
1772648229207021300,1.328021240234375,-0.1309077688485384,0.3726064011901617,-0.16914046887010334
1772648229217061400,1.338061279296875,-0.3007029022350907,-0.014874913048744201,-0.3474938795045018
1772648229227102200,1.348102294921875,-0.4526896994695067,-0.41368543055355544,-0.605118833643943
1772648229237142300,1.358142333984375,-0.5461991732940078,-0.7936948014765978,-0.7906424281686544
1772648229247183400,1.368183349609375,-0.394631478254497,-1.0951420923382043,-0.9240504894003272
1772648229257223400,1.378223388671875,-0.15665625035017727,-1.199564589843154,-1.013635337127
1772648229267264300,1.38826416015625,-0.0869710119664669,-1.1610142021745442,-0.8232412139564752
1772648229277304300,1.39830419921875,-0.2900397616624832,-1.1475836427152155,-0.48554085258319973
1772648229287345400,1.408345458984375,-0.41481940301954745,-1.3863620036959647,-0.3277319250665605
1772648229297385200,1.41838525390625,-0.3518348313182592,-1.5036621029525994,-0.14847878911346196
1772648229307426300,1.42842626953125,-0.16371522895097732,-1.5368103393167256,0.0503987925030291
1772648229317467100,1.438467041015625,-0.10090046085864304,-1.6411521728008984,0.14482713473811745
1772648229327507200,1.448507080078125,-0.13486907369494439,-1.6984224585086107,0.15791691793575882
1772648229337548300,1.45854833984375,-0.19853578244149683,-1.6796686581999063,0.1323747726611793
1772648229347588400,1.46858837890625,-0.2820034624621272,-1.6075895104169844,0.07944105485305189
1772648229357629200,1.478629150390625,-0.31479747856110335,-1.5943611955314874,-0.013287643857300281
1772648229367669200,1.488669189453125,-0.3779039230763912,-1.5393360584020614,-0.03064984367713332
1772648229377710300,1.49871044921875,-0.5265487164065241,-1.3336334530711174,0.06582973199933767
1772648229387750400,1.50875048828125,-0.68521250718683,-1.3923217888832091,-0.02912219571843743
1772648229397791500,1.51879150390625,-0.7154813887223601,-1.2745891434282064,-0.01760477640405297
1772648229407831600,1.52883154296875,-0.7778402297407389,-1.116754204687476,0.09651698507741092
1772648229417872400,1.538872314453125,-0.8749167483970522,-1.0943056415140628,0.2267813414558768
1772648229427912200,1.548912109375,-0.9006392186746001,-1.0827958209842443,0.2797536377087235
1772648229437953300,1.558953369140625,-0.9614192660689354,-1.0471738879829644,0.29113763990178704
1772648229447993300,1.568993408203125,-0.9589727496996522,-0.9319003261178731,0.2889047662831843
1772648229458034200,1.5790341796875,-1.0053975240051747,-0.7573188352376222,0.42125498902499675
1772648229468074200,1.58907421875,-1.1859119120657444,-0.7280734515309334,0.6201726103909313
1772648229478115300,1.599115234375,-1.2608762598961591,-0.6454834311276674,0.6776616534158587
1772648229488155400,1.6091552734375,-1.1075143749162555,-0.39703357096016406,0.6969111282870173
1772648229498196500,1.619196533203125,-1.0466200534924863,-0.14338848023712633,0.5998047990143299
1772648229508236300,1.629236328125,-1.0974547531947494,0.09760171157419681,0.5030472831793129
1772648229518277400,1.63927734375,-1.155878300590813,0.23586218127310274,0.35371070819273587
1772648229528318500,1.649318359375,-1.2287763635411857,0.22950492120087146,0.12567907441481946
1772648229538358300,1.659358154296875,-1.2579323153987527,0.1236053368806839,0.02657967162877321
1772648229548399000,1.669399169921875,-1.3685370086699724,-0.15894202319979667,0.07316767367199063
1772648229558439200,1.679439208984375,-1.5185992675825952,-0.5321703556805849,0.2086753375314176
1772648229568480300,1.689480224609375,-1.6150862959131598,-0.8833791640549897,0.335622824446857
1772648229578520300,1.699520263671875,-1.7243427894458174,-1.1938882977724075,0.5318265106789768
1772648229588561400,1.7095615234375,-1.8079042852297424,-1.3468927476167678,0.6657357994310558
1772648229598601200,1.719601318359375,-1.902445732450485,-1.306125268420577,0.7848853259466588
1772648229608642300,1.729642333984375,-2.234547104772925,-0.9628454994797706,0.7902354548029601
1772648229618682400,1.739682373046875,-1.8052990711674093,0.28820260936319825,0.305568170183897
1772648229628723500,1.749723388671875,-0.6367290467858314,2.414520810085535,-0.6560087706647812
1772648229638763500,1.759763427734375,-0.9619482583791017,4.621234736037254,-0.986288772778958
1772648229648804400,1.769804443359375,-1.4427122519493103,6.307620135271549,-0.4418710760742426
1772648229658844200,1.77984423828125,-1.142209840722382,6.374026498115063,0.26650574133992194
1772648229668885200,1.78988525390625,-0.895074278023839,4.573437212073802,0.23213790005296467
1772648229678925300,1.79992529296875,-0.23491233320236204,2.12812086623013,-0.5478117230571806
1772648229688966400,1.80996630859375,0.31930677267909047,0.1365712014377117,-1.4257272148787974
1772648229699006200,1.820006103515625,0.45984190931171176,-0.6224959387719631,-1.9554123296149073
1772648229709047300,1.83004736328125,0.22778350423574445,-0.5549649558126926,-2.161988502909988
1772648229719087400,1.84008740234375,0.2885539070188999,-0.49364685601890085,-1.9910683110162615
1772648229729128400,1.85012841796875,0.8678604001447557,-0.3540449085831642,-1.8138431737594305
1772648229739168500,1.86016845703125,1.4003683172166346,-0.1299362934678793,-1.6647795704953372
1772648229749209300,1.870209228515625,1.7591212573602795,0.19480068756639957,-1.5999365114457904
1772648229759249200,1.880249267578125,2.093205620193481,0.5478162531018257,-1.4982405162952839
1772648229769290200,1.890290283203125,2.596467276775837,0.6047270578473806,-1.2538590746104716
1772648229779331300,1.900331298828125,2.8499034009233117,0.3891892872005701,-0.9948954192131757
1772648229789371100,1.91037109375,2.8640064528167244,0.10651099421679973,-0.7481887494511902
1772648229799412200,1.920412109375,2.6785171989530325,-0.022120061871409413,-0.5849114735260605
1772648229809452300,1.930452392578125,2.436934009684622,0.08517945237457751,-0.5521506290443241
1772648229819493400,1.940493408203125,2.0724591847628355,0.24607027155458927,-0.7334362937383353
1772648229829533400,1.950533447265625,1.6917668000116943,0.38282267477810383,-1.0039343195848167
1772648229839574300,1.96057421875,1.372349844956398,0.4007610670506954,-1.3409249252535402
1772648229849614300,1.9706142578125,1.0546630746945738,0.3501964164614677,-1.5671892570979893
1772648229859655400,1.980655517578125,0.6842410318061709,0.19346388600468634,-1.499867679105699
1772648229869695500,1.990695556640625,0.4309019382923841,-0.06665127751529216,-1.4177810781799256
1772648229879736300,2.000736328125,0.3615431553840637,-0.33844401934742924,-1.2133538996122777
1772648229889776000,2.010776123046875,0.28500147523432967,-0.5129278950721026,-0.8432304012790321
1772648229899817700,2.020817626953125,0.24155191734731196,-0.6542600273013115,-0.48218598919734357
1772648229909857800,2.03085791015625,0.2829407433122396,-0.7124065113216638,-0.13931173231750726
1772648229919898600,2.040898681640625,0.4613093515157699,-0.6775345199048519,0.10440379280447959
1772648229929938700,2.050938720703125,0.7424982827246188,-0.7089794594824314,0.24830562939122316
1772648229939979800,2.060979736328125,0.9765098676949739,-0.7598118210971355,0.31751492082625626
1772648229950019800,2.071019775390625,1.039284011515975,-0.6766793643802405,0.4081264812521636
1772648229960061000,2.08106103515625,0.9598167993083596,-0.5078437236756086,0.4627728481970727
1772648229970101800,2.091101806640625,0.7909872960835694,-0.3377490228205919,0.4420084387183189
1772648229980141800,2.101141845703125,0.6292936360880732,-0.21536124503612517,0.43067923545241354
1772648229990183000,2.111182861328125,0.4980258017554879,-0.13934768041372297,0.32762086590752004
1772648230000223000,2.121222900390625,0.33008564858585593,-0.06267360605597495,0.22015885457620024
1772648230010263800,2.131263916015625,0.1612847869336605,-0.04787994154989719,0.16423530730232597
1772648230020303600,2.1413037109375,0.14058160612285137,-0.11942892797887325,0.07891980745792389
1772648230030344700,2.1513447265625,0.14017594793140886,-0.2858990085959434,-0.04663607896864414
1772648230040384800,2.161384765625,0.15420973398089408,-0.4547562766104936,-0.18504443270564078
1772648230050425900,2.17142578125,0.1804991904914379,-0.5382517214208841,-0.2449979661479592
1772648230060466000,2.1814658203125,0.14082739757746457,-0.6281780760616064,-0.10560425463542342
1772648230070506800,2.1915068359375,0.060921209430694574,-0.679044924467802,0.11517682349234819
1772648230080546800,2.201546875,0.027956805200874804,-0.6752303346157074,0.31884163938537236
1772648230090588000,2.211587890625,0.03718903618752956,-0.6735667853176593,0.45695919348224995
1772648230100628000,2.2216279296875,0.011533201405405997,-0.6545096181482076,0.5379613601721823
1772648230110668800,2.231668701171875,-0.027549393443763254,-0.6412608449965715,0.635917584272474
1772648230120708600,2.24170849609375,-0.013283552204072475,-0.6764502317994833,0.7248002750791609
1772648230130749700,2.251749755859375,0.0522977579921484,-0.717947194314003,0.8230125197671353
1772648230140789800,2.261789794921875,0.10294307260215282,-0.7472972074389457,0.907254545161128
1772648230150830800,2.271830810546875,0.15372224272489546,-0.7266554014265537,0.9148514300309121
1772648230160871000,2.281870849609375,0.2903977813199162,-0.7275783614903688,0.8555632286295294
1772648230170911700,2.291911865234375,0.3910094883650541,-0.723536392623186,0.8319625728115438
1772648230180952800,2.301952880859375,0.37787382019907234,-0.7300462129086256,0.8796673039250076
1772648230190993000,2.311992919921875,0.33304099126011133,-0.6646423051059246,0.8731824719503521
1772648230201033700,2.32203369140625,0.2765910820245743,-0.4762555762350559,0.8073940948747098
1772648230211073800,2.33207373046875,0.1614981374233961,-0.2201823815822601,0.6839031781539321
1772648230221115000,2.342114990234375,0.0669309712395072,-0.022905659291148184,0.5531671126104891
1772648230231155000,2.352155029296875,0.0492018378034234,0.06964402959048747,0.39823125631213185
1772648230241196000,2.362196044921875,0.030436054795980452,0.059525371158123015,0.27241978768929836
1772648230251235800,2.37223583984375,0.02195551895946264,0.03804769884347915,0.17665464389249683
1772648230261276700,2.382276611328125,0.04371083917170763,0.09943360317647457,0.1586086995922029
1772648230271316700,2.392316650390625,0.06998129872083664,0.1304062490671873,0.23412571286931633
1772648230281357800,2.40235791015625,-0.04274170187860727,0.08426584466099739,0.3494463287465274
1772648230291398000,2.41239794921875,-0.08215367481261492,0.05703238529860973,0.48940761101394886
1772648230301438700,2.422438720703125,-0.13577011418789625,0.11843640981018543,0.6684416973888874
1772648230311478800,2.432478759765625,-0.2462231240287423,0.2830821976095438,0.8712393750585615
1772648230321519900,2.442519775390625,-0.3029715778194368,0.37379707227945325,1.0419432938531041
1772648230331560000,2.452559814453125,-0.3362178677305579,0.37932606483399867,1.215926964970678
1772648230341600800,2.462600830078125,-0.466857633292675,0.18003683367669582,1.4901936957009136
1772648230351640600,2.472640625,-0.2760048065692186,0.34676644201278684,1.7012518367156386
1772648230361681700,2.482681640625,-0.2824292866587639,0.8075000394672155,1.4827075777292251
1772648230371721700,2.4927216796875,-0.6674918493181466,0.5908084226101636,1.3458935074463485
1772648230381762800,2.5027626953125,-0.5384656564325094,0.7423188345044851,1.518898688920587
1772648230391803000,2.512802978515625,-0.48157560221403833,0.9773527482599019,1.511220993899554
1772648230401843700,2.52284375,-0.47047860026881094,1.0483365020215512,1.4163596670746803
1772648230411884800,2.532884765625,-0.30070655549690123,0.9271323810636997,1.4198760046325622
1772648230421924900,2.5429248046875,-0.14197496017739175,0.8295610646277666,1.3898536452040076
1772648230431966000,2.552966064453125,-0.028626667286455628,0.9763748431384562,1.1603640677027403
1772648230442005800,2.563005859375,0.11210720678865908,1.2036404609799385,0.7853177260145544
1772648230452046800,2.573046875,0.25006737836673854,1.303167587658763,0.3465808563128114
1772648230462087000,2.5830869140625,0.2628478033542633,1.2990741808652877,-0.1746994181714952
1772648230472128000,2.5931279296875,0.41640930255949493,1.1391314561903476,-0.6903770503431558
1772648230482167800,2.603167724609375,0.6840900790281593,0.8022305746316909,-1.2062776776157318
1772648230492208600,2.613208740234375,0.9877959624715149,0.48131753579974174,-1.7147599914558231
1772648230502248700,2.623248779296875,1.164292639323324,0.1992249337494373,-2.1328395653150976
1772648230512289800,2.633289794921875,1.1398201691068708,-0.002814472898840904,-2.4090631292015314
1772648230522329900,2.643329833984375,0.9891641820847987,-0.1255225686788559,-2.531867086571455
1772648230532370700,2.65337060546875,0.8210496952615678,-0.2617372117638588,-2.5741344489365816
1772648230542410800,2.66341064453125,0.545997220981121,-0.33605683194994923,-2.4905557097569107
1772648230552451800,2.673451904296875,0.16739537876844404,-0.13938976598978042,-2.2664774897798896
1772648230562492000,2.683491943359375,-0.0809492674589157,0.10295067138671875,-1.922316700220853
1772648230572533000,2.693532958984375,-0.20616905379891395,0.35683424704074856,-1.456945798354596
1772648230582572800,2.70357275390625,-0.23996172554641962,0.6311363413453102,-0.9652994685031473
1772648230592613600,2.713613525390625,-0.18860212518721817,0.8812327996760606,-0.4775852174036205
1772648230602654700,2.72365478515625,-0.130979372780025,1.0667693998128176,-0.08883987457826734
1772648230612694800,2.73369482421875,-0.1155009408801794,1.1700088250130414,0.1730171641729772
1772648230622735600,2.743735595703125,-0.10569880105108022,1.1802812127023934,0.29042276963070035
1772648230632775700,2.753775634765625,-0.09653875851780176,1.0974527073681355,0.22079832152351736
1772648230642816800,2.763816650390625,-0.13730010023415087,0.9535948560535907,-0.10230550535097718
1772648230652856800,2.77385693359375,-0.07350596571564674,0.7582710213959216,-0.47770928217470643
1772648230662898000,2.78389794921875,0.01957885295599699,0.45097792711555956,-0.8022159615844487
1772648230672938000,2.79393798828125,0.06441080511212348,0.13110592176914215,-1.0395032072246073
1772648230682978800,2.803978759765625,0.10882657768279314,-0.2548608962535858,-1.231713293775916
1772648230693019000,2.814018798828125,0.12869915288835762,-0.5572025056064128,-1.2860050020642577
1772648230703060000,2.82406005859375,0.21502982112467287,-0.7643921346247196,-1.242166590990126
1772648230713099800,2.834099853515625,0.2573939218625426,-0.9290069427639246,-1.1012390940390526
1772648230723140600,2.844140625,0.2562926826223731,-1.0803858372330666,-0.8719751419872045
1772648230733180700,2.8541806640625,0.198266902372241,-1.1618266876012087,-0.6362300112225114
1772648230743221800,2.8642216796875,0.1469473417624831,-1.0628554412394762,-0.3374829192303121
1772648230753261800,2.87426171875,0.07704173862636089,-0.938155879381299,-0.16554069081246853
1772648230763303000,2.884302978515625,0.042319384813308714,-0.7872597999930381,-0.11542276107743382
1772648230773342700,2.8943427734375,-0.08713204774707556,-0.6093190618127584,-0.16295345079824328
1772648230783383800,2.9043837890625,-0.229755681091547,-0.45373102521598335,-0.18283537835404276
1772648230793425000,2.9144248046875,-0.21169132435172794,-0.3113929308146238,-0.31890359870567914
1772648230803465000,2.92446484375,-0.1900043932005763,-0.29323534283339975,-0.41583574045523997
1772648230813505800,2.934505859375,-0.2065095377996564,-0.41564240984022616,-0.5277773814186454
1772648230823545600,2.944545654296875,-0.20107085387706755,-0.6262994227081536,-0.6286871946275234
1772648230833587000,2.9545869140625,-0.1826364947810769,-0.8007990805238485,-0.6581910831399261
1772648230843626800,2.964626708984375,-0.12562632131427526,-0.9189297853857278,-0.6325552682325244
1772648230853667800,2.974667724609375,-0.04519260216206312,-1.0012532638072966,-0.6041852060556412
1772648230863708000,2.9847080078125,0.06470891127586365,-1.0581722518593073,-0.5873128355793654
1772648230873748700,2.994748779296875,0.16952245392501353,-1.0996119312286377,-0.5694901786409318
1772648230883788800,3.004788818359375,0.1857858987227082,-1.1460346597075461,-0.5671813171766698
1772648230893828900,3.014828857421875,0.1775862256541848,-1.1604641670763491,-0.6224244809709489
1772648230903869000,3.024868896484375,0.10967588798850775,-1.0979179867923259,-0.6290098507106304
1772648230913910000,3.034909912109375,-0.1612991077199578,-0.9699515320926904,-0.5290064848221838
1772648230923950000,3.0449501953125,-0.38568390942811964,-0.7795973025411367,-0.4521035701446235
1772648230933991000,3.054990966796875,-0.6256839211583137,-0.6127221482545137,-0.3445079955615103
1772648230944031000,3.065031005859375,-0.8726794908642769,-0.38455578218102454,-0.21694208448678254
1772648230954072000,3.075072021484375,-0.8758817940369248,-0.22034137153625488,-0.1308922790184617
1772648230964112100,3.085112060546875,-0.7022296929612756,-0.16702420736849308,-0.047362785807996986
1772648230974153000,3.095153076171875,-0.5231301401346922,-0.18418927718102932,0.06483838287442922
1772648230984194000,3.105194091796875,-0.4390957661420107,-0.2927899371534586,0.23523776576444505
1772648230994234000,3.115234130859375,-0.5189227515727282,-0.37366613937616344,0.43425329454690215
1772648231004275200,3.125275146484375,-0.6883750628709793,-0.3882031987726688,0.5179005689181387
1772648231014315000,3.13531494140625,-0.765314510166645,-0.379599621078372,0.47012993296161293
1772648231024355800,3.14535595703125,-0.9361123908549547,-0.401121717056632,0.39611353350579737
1772648231034396000,3.15539599609375,-1.1400570466026663,-0.4936766666352749,0.3890355579435825
1772648231044437000,3.16543701171875,-1.2536802109122276,-0.6489911469876766,0.3966989321783185
1772648231054477000,3.17547705078125,-1.2730991971313952,-0.8358288928508758,0.3932693961210549
1772648231064518000,3.185517822265625,-1.3339403270632029,-1.032329370072484,0.39034488697648045
1772648231074558000,3.195557861328125,-1.4269149633586407,-1.138916352134943,0.32454204298406836
1772648231084599000,3.20559912109375,-1.5539809620872138,-1.0337176095604896,0.24609409082159397
1772648231094639000,3.21563916015625,-1.278290043772757,-0.31083062075674533,-0.10852014208212495
1772648231104680000,3.225679931640625,-0.370453607070446,0.9943594126403331,-0.7937037154354155
1772648231114719700,3.2357197265625,-0.7620274513199925,2.3956910219311713,-0.8743537076868116
1772648231124760800,3.2457607421875,-1.299269703437388,3.9775925488620993,-0.4495758052326739
1772648231134801000,3.25580078125,-1.10165892688632,5.060269127380848,-0.2341585922256112
1772648231144842000,3.265842041015625,-1.0362795690029858,4.790077391004562,-0.3023419016137719
1772648231154882000,3.275882080078125,-1.294159228555858,3.698724169555306,-0.3768932847291231
1772648231164923000,3.2859228515625,-1.2046049220979214,2.510902039954066,-0.48221769950985904
1772648231174964000,3.2959638671875,-0.6385103772446513,1.3835329177498816,-0.690398239261657
1772648231185004000,3.306004150390625,-0.13625614413917064,0.4081763117432594,-0.8783006917469203
1772648231195045000,3.316045166015625,0.20931173573881387,-0.3131891665816307,-1.1723485200069843
1772648231205085000,3.3260849609375,0.4813303952813148,-0.7001403194665908,-1.216236469311267
1772648231215126000,3.3361259765625,0.7309533908814191,-0.7693991491317749,-1.158651564696431
1772648231225166000,3.346166015625,1.0357380094721913,-0.699263536632061,-1.2081102998703717
1772648231235207200,3.356207275390625,1.3958230750024319,-0.6560071632295846,-1.3221816463388503
1772648231245247000,3.3662470703125,1.7239657728269695,-0.5519599287778139,-1.3851836075663566
1772648231255287800,3.376287841796875,2.0428288933917877,-0.5322901826679707,-1.3744569002382456
1772648231265327900,3.386327880859375,2.23760678460449,-0.4585048154890537,-1.3651388906642794
1772648231275369000,3.396368896484375,2.2462062706455588,-0.3336182066261768,-1.3520947001740335
1772648231285409000,3.406408935546875,2.0934867752224204,-0.10339198541343211,-1.3472966522425411
1772648231295449900,3.416449951171875,1.901151600986719,0.2629506792068481,-1.3006357310935854
1772648231305490000,3.426489990234375,1.703461037197709,0.506436779487133,-1.2331683148898183
1772648231315531000,3.436531005859375,1.5497083993345497,0.6268272459745406,-1.3148549567125738
1772648231325571000,3.446571044921875,1.3413017957419155,0.6935925052583217,-1.4111702817380427
1772648231335612200,3.456612060546875,1.1293041819199918,0.5627946265250444,-1.425183609521389
1772648231345653000,3.466653076171875,0.886260272449255,0.335990196454525,-1.3718540242634714
1772648231355692800,3.47669287109375,0.6104018886134028,0.10134206714630126,-1.1273165152341127
1772648231365734000,3.48673388671875,0.4070569523245096,-0.041053310400247574,-0.8290918396808207
1772648231375774000,3.49677392578125,0.28638913020044565,-0.06150280871093273,-0.4726080135129392
1772648231385814800,3.506814697265625,0.25937486654669045,-0.09877250891923904,-0.1695674621105194
1772648231395854800,3.516854736328125,0.30503041004538534,-0.11253916846513748,0.021152239752560854
1772648231405896000,3.52689599609375,0.44242754091322417,-0.1598427714318037,0.12666793932169676
1772648231415936000,3.53693603515625,0.47782969368398187,-0.191017661896348,0.30937589190378784
1772648231425977000,3.54697705078125,0.5514946493536234,-0.3049123366236687,0.49158305535688995
1772648231436017200,3.55701708984375,0.7096241871267557,-0.5225462027668952,0.5304229274913669
1772648231446058000,3.56705810546875,0.7989227652579546,-0.7070785942971706,0.4296799952819943
1772648231456098000,3.57709814453125,0.7226864977955818,-0.7554927888542413,0.31977249049469825
1772648231466139100,3.58713916015625,0.5945625144466757,-0.6649889265865088,0.24211554257944226
1772648231476179000,3.597178955078125,0.4398799022570252,-0.5411860213071108,0.152011054892838
1772648231486219800,3.6072197265625,0.37041619766950606,-0.39294659390747544,0.0870918618671596
1772648231496259800,3.617259765625,0.35298195552676914,-0.32739071041345597,0.05192585593983531
1772648231506301000,3.627301025390625,0.3905909706920385,-0.2947282117396593,-0.023335867401957512
1772648231516341000,3.637341064453125,0.4234723728135228,-0.2772118442714214,-0.10565715386644005
1772648231526382000,3.647382080078125,0.46737990360111,-0.3228314396739006,-0.1547824193023145
1772648231536423000,3.6574228515625,0.2634042681932449,-0.35413083330094813,-0.050274873862415546
1772648231546463000,3.667462890625,0.05102233122885227,-0.3482493740469217,0.06566825782731175
1772648231556504000,3.677504150390625,0.046627018879354,-0.332577173140645,0.12181158533170819
1772648231566544100,3.687544189453125,-0.002482464465498924,-0.42711599001288414,0.19942980867177246
1772648231576585000,3.6975849609375,-0.06055676003247499,-0.5847077676475048,0.29187910591885446
1772648231586624800,3.707624755859375,-0.1224132044866681,-0.7238906128883361,0.40772301501780744
1772648231596666000,3.717666015625,-0.13541151000857352,-0.8376666296720504,0.5701629633359611
1772648231606706000,3.727705810546875,-0.16647300322651862,-0.939095790579915,0.681068539249897
1772648231616747000,3.7377470703125,-0.1756464897632599,-0.9542635490953921,0.706425098824501
1772648231626787000,3.747787109375,-0.2178524773299694,-0.8599246387094259,0.6653437313735485
1772648231636828000,3.757827880859375,-0.2921189060240984,-0.7093611522763967,0.5757638520829379
1772648231646868000,3.767867919921875,-0.2248018580764532,-0.542190814435482,0.4936411569304764
1772648231656909000,3.777908935546875,-0.09005085780322551,-0.4531529330670833,0.5429394408456981
1772648231666949000,3.78794921875,-0.05192804789692163,-0.44517771640419956,0.6504407612740993
1772648231676990000,3.797989990234375,0.014482114338874816,-0.40898002934157845,0.6777711051397025
1772648231687030000,3.808030029296875,0.02126198373734951,-0.35715748764574523,0.7079862106613815
1772648231697071000,3.818071044921875,-0.01316343295574188,-0.34303310070335863,0.6701958475798369
1772648231707112200,3.8281123046875,-0.08368219955414533,-0.3128980746805668,0.698685152222216
1772648231717152000,3.838152099609375,-0.20928484773188827,-0.26550387082099913,0.6829034995920956
1772648231727192800,3.84819287109375,-0.3565820258453488,-0.20768471905887126,0.6519789306268096
1772648231737233000,3.85823291015625,-0.4495318199604749,-0.17208032171428203,0.6760119865126908
1772648231747274000,3.86827392578125,-0.6211252349406481,-0.12577858926653862,0.6928431481957436
1772648231757314000,3.87831396484375,-0.6021908173680305,0.0029039047479629517,0.6255185014635324
1772648231767355000,3.88835498046875,-0.6023553602799773,0.11882160973548889,0.6512083846457302
1772648231777395000,3.89839501953125,-0.6239847160249948,0.2399205167531967,0.7652230324909091
1772648231787436000,3.90843603515625,-0.7374450909882784,0.32935996465981004,0.9875031170047819
1772648231797476000,3.91847607421875,-0.7649713958173989,0.35186464193463324,1.1519845080226658
1772648231807517000,3.928516845703125,-0.7050315986394882,0.2117792948961258,1.3364309748351573
1772648231817557000,3.938556884765625,-0.669382485370338,-0.01063245317339897,1.480714796476811
1772648231827598000,3.94859814453125,-0.6520972963094711,-0.19555004462897776,1.5650822018161414
1772648231837638000,3.958637939453125,-0.65430941940099,-0.3214624894082546,1.6364510093726217
1772648231847679000,3.968678955078125,-0.6251020296171307,-0.3421650856971741,1.688979945772141
1772648231857719000,3.978718994140625,-0.5477066552475095,-0.06651274582743644,1.7174761185467242
1772648231867759900,3.988759765625,-0.6126718793720006,0.2646335177272558,1.331016694701463
1772648231877800000,3.998800048828125,-0.2784830332510173,1.1540998927414416,0.9439880926661193
1772648231887841000,4.008841064453125,-0.23989245970249173,1.5591227088898418,1.0479274828292429
1772648231897882000,4.018882080078125,-0.1810439648926258,1.9999977596640586,1.0449581116296351
1772648231907922000,4.028921875,-0.08550780754610895,2.259553535735607,1.0372953219167889
1772648231917963000,4.038962890625,0.05810702879279851,2.112179200732708,0.9666842008598149
1772648231928003000,4.049003173828125,0.21340105087906122,1.9226567458301782,0.7881339524790644
1772648231938044200,4.059044189453125,0.37464959745556115,1.6521680723339318,0.43512423216253515
1772648231948084200,4.069084228515625,0.5524047499358654,1.0938093824297188,0.04334565912112594
1772648231958125000,4.079125,0.7336743402779102,0.35362814447581764,-0.31889146987646816
1772648231968165000,4.0891650390625,0.8924002365089952,-0.3062777797579765,-0.783179544942081
1772648231978206200,4.099206298828125,0.993710593342781,-0.7146890693008899,-1.2867537746049462
1772648231988246300,4.109246337890625,0.9390992977112531,-0.88363986081779,-1.7551592218615113
1772648231998287000,4.119287109375,0.9281745835930109,-0.8170663247138261,-2.1395083755545317
1772648232008327000,4.129326904296875,0.901797448799014,-0.5231944375425577,-2.2801257836431263
1772648232018368000,4.139367919921875,0.7656887503065168,-0.1372428170889616,-2.3198797018826007
1772648232028408000,4.149407958984375,0.6434712145224213,0.3442722871094942,-2.305456478124112
1772648232038449200,4.15944921875,0.533417725393176,0.8522697400420903,-2.162399860189855
1772648232048489200,4.1694892578125,0.44305458677038545,1.227140579032898,-1.8966987132310866
1772648232058530000,4.179530029296875,0.3143684394940734,1.3214870882034302,-1.5217828660547732
1772648232068571100,4.189571044921875,0.22558745549619197,1.295923607879877,-1.1728444868303836
1772648232078611200,4.199611083984375,0.1686317886956036,1.2298404856413603,-0.8835235409617423
1772648232088652000,4.209652099609375,0.13997253431379794,1.0450386295199394,-0.6324345644623041
1772648232098692000,4.219692138671875,0.11240019838586449,0.7334551445692777,-0.5059311680525541
1772648232108733200,4.229733154296875,0.11658932063877582,0.4356774821311235,-0.5376182458229363
1772648232118773200,4.239773193359375,0.034868776546418664,0.26398703651726246,-0.6652380790419876
1772648232128814300,4.249814453125,-0.03893734115958213,0.21897008318305014,-0.8299155771538614
1772648232138854100,4.259854248046875,-0.03979337346702814,0.2574094116926193,-1.0064784511096776
1772648232148895000,4.26989501953125,-0.08222674004882574,0.20658990955948828,-1.1467597591117025
1772648232158935000,4.27993505859375,-0.002908288662135601,0.0706324561059475,-1.3187846973769366
1772648232168976100,4.28997607421875,0.08280717028528452,-0.17555179721713066,-1.365533881331235
1772648232179016200,4.30001611328125,0.04711451013535261,-0.45185763255953787,-1.269526307080686
1772648232189057000,4.31005712890625,0.07221651042699813,-0.7316682611525058,-1.1294978047959505
1772648232199097000,4.32009716796875,0.1255930035665631,-0.8834294329375028,-1.030663774947822
1772648232209138200,4.33013818359375,0.11032266145944594,-1.031775243321061,-0.8671715410977602
1772648232219178200,4.34017822265625,-0.03528963230699301,-1.1870195810467004,-0.6462848106384277
1772648232229219000,4.350218994140625,-0.18343612072616813,-1.2920143254816532,-0.5503815735451877
1772648232239260200,4.36026025390625,-0.2943324904203415,-1.3040899632006884,-0.38645620897486804
1772648232249300000,4.370300048828125,-0.4404103558719158,-1.145650628826022,-0.3134172762490809
1772648232259341000,4.380341064453125,-0.3803478090971708,-0.8469698800683021,-0.24640987877249718
1772648232269381000,4.390381103515625,-0.320999255810678,-0.7406506090313196,-0.11571136876046657
1772648232279422000,4.400421875,-0.37210342010408637,-0.8355366319060326,-0.05105915610790252
1772648232289462000,4.4104619140625,-0.2800964597970247,-0.920498057615757,-0.04526990518197417
1772648232299503000,4.420503173828125,-0.15941899306178092,-0.9663935473501681,0.044312458326667546
1772648232309543200,4.430543212890625,-0.09457622627317905,-1.027222986844182,0.15841113119348882
1772648232319584300,4.440584228515625,-0.030073943485319613,-1.044039681610465,0.16363471106067298
1772648232329624000,4.4506240234375,0.013880349053442478,-1.0580471641749143,0.1400990833029151
1772648232339665200,4.4606650390625,-0.06286912862807512,-1.0439993496000766,0.1495727218300104
1772648232349705200,4.470705322265625,-0.04333645290136337,-0.9545984801381826,0.18482202212661503
1772648232359746300,4.480746337890625,0.0010325579181313515,-0.8780717052966356,0.14817556838318705
1772648232369786000,4.4907861328125,-0.02998334259241819,-0.7924515234172343,0.07579612247943877
1772648232379827000,4.500826904296875,-0.32914982904046775,-0.7250655018866061,0.10008549121394753
1772648232389868000,4.510867919921875,-0.6900809900060295,-0.6958516823619604,0.27485008357614277
1772648232399908000,4.520908203125,-0.9292249694287776,-0.6871095729798078,0.2856402115292847
1772648232409949200,4.53094921875,-1.1149503701359034,-0.6012374621659516,0.18610753189250825
1772648232419989000,4.540989013671875,-1.2245581613242627,-0.40896249368488785,0.14656287248954175
1772648232430030000,4.551030029296875,-1.3367512928307055,-0.2675964591860771,0.28507410207912326
1772648232440070100,4.561070068359375,-1.4115113502606749,-0.38128129055500026,0.5424515111982822
1772648232450111200,4.571111328125,-1.2418518259525297,-0.5821884783029556,0.693628307224065
1772648232460151300,4.5811513671875,-1.0124249384239314,-0.7496516616106033,0.760156835142523
1772648232470192000,4.591192138671875,-0.8793865872874855,-0.8211544708102941,0.776876499275118
1772648232480232000,4.60123193359375,-0.9004477877557278,-0.7201970190674066,0.7469985167533159
1772648232490273000,4.61127294921875,-1.1523849055171012,-0.440014634552598,0.7598347635813057
1772648232500313000,4.62131298828125,-1.424590612064302,-0.11244564496278762,0.742366619168967
1772648232510354000,4.63135400390625,-1.546610141058266,0.07296469844579696,0.6313749724067748
1772648232520394000,4.64139404296875,-1.6248609632134436,0.03773907128572464,0.5470901307843625
1772648232530435000,4.65143505859375,-1.6364353734120725,-0.14291209489703177,0.35668300200179215
1772648232540475100,4.66147509765625,-1.7981097441852092,-0.16402736364006995,0.14811054032295942
1772648232550516200,4.67151611328125,-1.910124304254353,0.3623679157704115,-0.21263518107309937
1772648232560557000,4.68155712890625,-0.8015960761204362,1.4143933354377747,-0.9029859279312192
1772648232570597000,4.69159716796875,-0.7019216499254107,2.4981197152703998,-0.9937804437085985
1772648232580638200,4.70163818359375,-1.2539508445471526,3.824565887185931,-0.6518018204942345
1772648232590678300,4.71167822265625,-0.8044657863378525,4.946204941305518,-0.45090851514115926
1772648232600719000,4.721718994140625,-0.35011224530935287,4.894724344915152,-0.274314369264245
1772648232610759000,4.731759033203125,-0.12812865952402352,3.811091488584876,-0.20754487219676374
1772648232620800000,4.741800048828125,-0.008481120358407496,2.350769345664978,-0.4392905580617487
1772648232630840000,4.751840087890625,0.3877674377039075,0.9515127890825271,-0.9745992117680609
1772648232640881200,4.761881103515625,0.4534101226985454,-0.16019231552183627,-1.510748992473632
1772648232650921200,4.771921142578125,0.35652357365638015,-0.7809446254968643,-1.7652870865136383
1772648232660962000,4.781962158203125,0.5226894106298685,-1.2084031453371047,-1.8382969392754136
1772648232671002000,4.792002197265625,1.3469783800736068,-1.6820774729073047,-1.6679966328456997
1772648232681043200,4.802043212890625,1.8546017389968037,-2.0547481715053317,-1.4466178810857235
1772648232691083300,4.812083251953125,1.9365467394948004,-1.9327385793834924,-1.1934598432272672
1772648232701124000,4.8221240234375,2.124590938538313,-1.3719073618859052,-0.8598962893977761
1772648232711165200,4.832165283203125,2.4480191750615834,-0.9334668447822332,-0.40766383217647667
1772648232721205000,4.842205078125,2.619130359482765,-0.567509964609146,-0.19841990097686646
1772648232731246000,4.85224609375,2.624069569450617,-0.10667232225835323,-0.044607203489542
1772648232741286100,4.8622861328125,2.3649612448856234,0.4088216239094734,0.02756488327383995
1772648232751327000,4.872326904296875,2.168955565443635,0.8871130898863077,-0.10586275944113731
1772648232761367000,4.882366943359375,1.940555390614271,1.2317273223012686,-0.31598449638858433
1772648232771408100,4.892408203125,1.5921455653086303,1.272611121353507,-0.5591020556174219
1772648232781448200,4.9024482421875,1.2944079426199198,1.0841624331623314,-0.7478430047534406
1772648232791489000,4.912489013671875,0.9183388337552547,0.7295154670327901,-0.8308813534460961
1772648232801529000,4.922529052734375,0.6016308453977107,0.4328501497507095,-0.8638687001600861
1772648232811570200,4.932570068359375,0.4528232627213001,0.1328062959462404,-0.694596275473386
1772648232821610200,4.9426103515625,0.5295619267478585,-0.29207857401371,-0.4084855238229036
1772648232831651300,4.9526513671875,0.6021534079670906,-0.6621463966369628,-0.1795128098025918
1772648232841691100,4.962691162109375,0.6683563571929931,-0.9444710538774729,0.0552830574132502
1772648232851732000,4.97273193359375,0.6866589066028594,-1.148008005607128,0.2174305986560881
1772648232861773000,4.98277294921875,0.6379030590012669,-1.2173007375419138,0.38793651066049933
1772648232871813000,4.992813232421875,0.6682119802862405,-1.1727759516388176,0.43043768178150055
1772648232881854000,5.00285400390625,0.7962427323937415,-1.0379892955303192,0.3446132095016539
1772648232891894000,5.01289404296875,0.8741723597705364,-0.9138473675549029,0.22985256559476255
1772648232901935600,5.022935546875,0.8562120479270815,-0.7796253595918416,0.064071344024688
1772648232911975700,5.0329755859375,0.715412415139377,-0.6614046383589506,-0.08298311137408018
1772648232922016500,5.0430166015625,0.48075288765430446,-0.4817155952066183,-0.11843684820160269
1772648232932056600,5.053056640625,0.3065507514804601,-0.2948492077708244,-0.0950282078243792
1772648232942097700,5.06309765625,0.23616876300424336,-0.17328268324136734,-0.20635449336841702
1772648232952137700,5.0731376953125,0.2028121445864439,-0.13139642914831637,-0.3028413755685091
1772648232962178800,5.0831787109375,0.08814385513812303,-0.18839900383055208,-0.3748836984723806
1772648232972218600,5.093218505859375,0.03808540050536394,-0.3270148628383875,-0.4452271085038781
1772648232982259500,5.103259521484375,0.03698182317763567,-0.45014264533519743,-0.46918549171835183
1772648232992299500,5.113299560546875,0.11787497653514147,-0.5297580338418484,-0.45578240478783844
1772648233002340600,5.123340576171875,0.2205900856003165,-0.5853437274634837,-0.37552404220253227
1772648233012380700,5.133380615234375,0.23808745610713958,-0.620448358592391,-0.22380802473351358
1772648233022421500,5.14342138671875,0.13238923957794904,-0.6245692379146814,-0.01265197630226612
1772648233032462600,5.153462646484375,0.0775467655390501,-0.6379167952656746,0.213348297778517
1772648233042502700,5.163502685546875,0.05844926635921001,-0.6402449459522962,0.4775228196918964
1772648233052543700,5.173543701171875,0.14002864841520785,-0.6012041444182395,0.6757488055318593
1772648233062583800,5.183583740234375,0.2277878881499171,-0.5400023644804954,0.7946203918889164
1772648233072624600,5.193624755859375,0.30847528980225325,-0.4730354451447725,0.8979906038619577
1772648233082664400,5.20366455078125,0.2776125340268016,-0.3460673538327217,1.021835886978358
1772648233092705500,5.21370556640625,0.23808044184446334,-0.15506430498361587,1.0599541668400168
1772648233102745600,5.22374560546875,0.185452428984642,0.09800152454674244,1.037302336179465
1772648233112786400,5.233786376953125,0.050481356219947336,0.2440823126077652,0.9721684774897992
1772648233122826500,5.243826416015625,-0.06916384485810995,0.27945523928403854,0.8588556943036615
1772648233132867600,5.25386767578125,-0.17599720289707182,0.15178338361680507,0.8140073755346238
1772648233142907600,5.26390771484375,-0.20884324144423005,-0.006167874979972839,0.8073490866892039
1772648233152948700,5.27394873046875,-0.17936492576450108,-0.16452888342142105,0.9446545937508344
1772648233162988500,5.283988525390625,-0.19009879348576067,-0.2985398789823055,1.1510915047056973
1772648233173029600,5.294029541015625,-0.10827157414853572,-0.25679917083978654,1.378978030924499
1772648233183070700,5.30407080078125,-0.07023644252568483,-0.07973696905970573,1.6155970219142735
1772648233201895700,5.322895751953125,-0.10342515703067183,-0.000661094257235527,1.8820748523339628
1772648233211936800,5.332936767578125,-0.2852951974838972,-0.011723171019554137,1.9609505283892155
1772648233221976600,5.3429765625,-0.3196802821666002,0.012534487402439117,1.9455960151299834
1772648233232017400,5.353017333984375,-0.34419834509044883,0.08013385942280292,1.922535749799013
1772648233242057500,5.363057373046875,-0.3069244070984423,0.06769114195704459,1.8309619202122092
1772648233252098600,5.3730986328125,-0.3065302932143211,0.05929390048980712,1.773381545642018
1772648233262139600,5.3831396484375,-0.4382961401969194,0.3021358576476574,1.6069979742646217
1772648233272179700,5.3931796875,-0.8990677315741777,0.5342354715168476,1.1468616120509803
1772648233282220500,5.403220458984375,-0.7055125140242278,1.0780921733379363,0.8054889919057487
1772648233292260600,5.413260498046875,-0.6079353523693979,1.2013345221251248,0.5405746114104986
1772648233302301700,5.4233017578125,-0.3879308115720749,0.9120242437809705,0.5944565698541701
1772648233312341800,5.433341796875,0.20509236447811124,0.7103577620983124,0.7406412566810846
1772648233322382600,5.443382568359375,0.41982656365707516,0.6249257962673902,0.8734072206169367
1772648233332422400,5.45342236328125,0.6694045510716736,0.9712105922430753,0.6957642963394522
1772648233342463500,5.46346337890625,0.9434604155302048,1.564711907199025,0.07936360570266843
1772648233352503600,5.473503662109375,1.0337217012137174,2.2454677272379397,-0.728798697065562
1772648233362544600,5.483544677734375,1.0294090987116098,2.6106495313853024,-1.5606813365086911
1772648233372584700,5.493584716796875,1.0903735627621411,2.4403110849022864,-2.2445260624736547
1772648233382625500,5.50362548828125,1.1508014357179404,1.9582459456056356,-2.8177374535948037
1772648233392665600,5.51366552734375,1.2483633998036383,1.527960093384981,-3.4319735135436056
1772648233402706700,5.523706787109375,1.3419506150394678,1.2731570647984742,-3.951953372953832
1772648233412747500,5.53374755859375,1.3251026483520865,0.9778273800343275,-4.1582951529711485
1772648233422787600,5.54378759765625,1.087214806470275,0.5864297691345215,-4.079471207103133
1772648233432828700,5.55382861328125,0.6853466549605131,0.2919061400562525,-3.8915734307929872
1772648233442868700,5.56386865234375,0.23473171593844888,0.0027630349725484846,-3.651384910753369
1772648233452909800,5.573909912109375,0.15843962663561104,-0.12037409987449646,-3.30213337392658
1772648233462949600,5.58394970703125,0.287969969651103,-0.10048983423113822,-2.809800815376639
1772648233472990500,5.593990478515625,0.2432689503982663,0.03275251504480839,-2.004459561378509
1772648233483030500,5.604030517578125,-0.015649404552578926,0.26360183659195896,-1.006225937653333
1772648233493071600,5.614071533203125,-0.26289018119126556,0.6995049441725015,-0.13720365412235258
1772648233503111700,5.624111572265625,-0.2841664857149124,1.09052495393157,0.4573462931036949
1772648233513152500,5.634152587890625,-0.2547381466567516,1.3106360238432884,0.926818492808938
1772648233523192600,5.644192626953125,-0.23394144234359263,1.3849854546457527,1.1298065784841775
1772648233533233700,5.654233642578125,-0.106396720187366,1.281232819226384,0.9970558121174573
1772648233543273700,5.664273681640625,-0.15100304689407348,0.9618447980046272,0.8031446207366884
1772648233553314600,5.674314453125,-0.18280103769302367,0.5569739575475454,0.5876942361123859
1772648233563355600,5.684355712890625,-0.07959200763106346,0.01146422782242298,0.24378888261914253
1772648233573395500,5.6943955078125,-0.022819442312419412,-0.6241255858004093,-0.09402955217584967
1772648233583436500,5.7044365234375,0.028351941998302935,-1.0435440070480109,-0.35809447623491286
1772648233593476600,5.7144765625,0.14384762218147515,-1.4156582408070564,-0.6094508714988828
1772648233603517400,5.724517333984375,0.15102701229155063,-1.6968091780930756,-0.6637335196979344
1772648233613557500,5.7345576171875,0.04417231920361519,-1.8726345315545796,-0.6680224490635097
1772648233623598600,5.7445986328125,-0.04040098397135734,-1.807539835831523,-0.5927716855071484
1772648233633638700,5.754638671875,-0.12664835783839226,-1.523378026291728,-0.4547020622052252
1772648233643679700,5.7646796875,-0.3420350295767188,-1.153203820684552,-0.2090149447493255
1772648233653719600,5.774719482421875,-0.4931240011885762,-0.9192699771255254,-0.002399170096218586
1772648233663760600,5.7847607421875,-0.599013940897584,-0.7608037547439336,0.2267319493561983
1772648233673800700,5.79480078125,-0.6414765335738658,-0.6856073517233133,0.16992372820228338
1772648233683841800,5.804841796875,-0.5898223341822624,-0.6587783815085888,0.0000694119744002819
1772648233693882600,5.814882568359375,-0.5684294175416231,-0.7069312947809696,-0.18540318301543593
1772648233703922400,5.82492236328125,-0.5461775459840893,-0.870474674296379,-0.26090397581011054
1772648233713963500,5.834963623046875,-0.3628340719774365,-1.0655933417707681,-0.33463235210478304
1772648233724003600,5.845003662109375,-0.1498509542495012,-1.3448188639521599,-0.327377558670938
1772648233734044700,5.855044677734375,-0.1311494686499238,-1.3986065682411193,-0.1943001906983554
1772648233744084500,5.86508447265625,-0.1690752946794033,-1.4849083026438952,-0.14484598556905984
1772648233754125600,5.87512548828125,-0.19248013566434383,-1.4920704493582249,-0.16958806650713085
1772648233764165600,5.88516552734375,-0.2890320459246635,-1.3380027541965245,-0.2508205348215997
1772648233774206700,5.895206787109375,-0.41537762142419815,-1.1147416958212852,-0.3941884106621146
1772648233784246800,5.905246826171875,-0.41281653876453633,-0.9332125777602195,-0.5141730728276074
1772648233794287600,5.91528759765625,-0.5270198410496115,-0.7786942162215709,-0.6197405025839805
1772648233804327400,5.925327392578125,-0.5753191770553588,-0.5678244373857975,-0.771795396618545
1772648233814368500,5.935368408203125,-0.5921303188636898,-0.38968437724113464,-0.7803495822131633
1772648233824408600,5.94540869140625,-0.6744830233797431,-0.38882103841006754,-0.6100120125129819
1772648233834449400,5.955449462890625,-0.7043804412543774,-0.4130827884852886,-0.44581499139443037
1772648233844490500,5.965490478515625,-0.7152545942291617,-0.3126233493924141,-0.24363047718703745
1772648233854530600,5.975530517578125,-0.6876084624126553,-0.27876082727909085,-0.08938567189276218
1772648233864571600,5.985571533203125,-0.5638984961137176,-0.3318395065158605,-0.14355068506151436
1772648233874611700,5.99561181640625,-0.5454369567498565,-0.4363748167455196,-0.22789792439565063
1772648233884652500,6.005652587890625,-0.6963096552625299,-0.5755640917271375,-0.26904022825360296
1772648233894692600,6.015692626953125,-1.0217810880512,-0.6119973411113023,-0.29696517701148983
1772648233904734000,6.02573388671875,-1.2720190006792544,-0.6146703597128391,-0.24863427682369946
1772648233914773800,6.035773681640625,-1.4786524571195243,-0.7118027002096176,-0.06216229553297162
1772648233924814600,6.045814697265625,-1.542118967118859,-0.7160182720780373,0.07386310859024524
1772648233934854700,6.055854736328125,-1.1629212048396467,-0.19762801994681356,-0.14415098904222248
1772648233944895700,6.065895751953125,-0.33024493080079553,0.8637263690799474,-0.6676487934455275
1772648233954935800,6.075935791015625,-0.5494806791827083,2.3873843813568354,-0.8213380106836556
1772648233964977000,6.085976806640625,-0.9739441088601947,4.147178715673089,-0.543167112121731
1772648233975017000,6.096016845703125,-0.8986518442496657,5.49352376627922,-0.23499212044030426
1772648233985057800,6.106057861328125,-0.6875450417876243,5.4837943994253875,-0.17991876025497913
1772648233995099000,6.116098876953125,-0.4641904599100351,4.15420642235279,-0.551927049421519
1772648234005139000,6.126138916015625,-0.13124679154455662,2.5457050577878952,-1.2123324476100503
1772648234015179800,6.1361796875,-0.08817045088410377,1.2933604793936013,-1.7907941604748367
1772648234025219800,6.1462197265625,0.001904080055654049,0.4990951845526695,-1.9441249196641146
1772648234035261000,6.156260986328125,0.3129524352163076,-0.17755144660174846,-1.960253486035764
1772648234045300700,6.16630078125,0.5238470562323928,-0.6517927604049444,-1.9670409542188048
1772648234055341800,6.176341796875,0.6520730386510492,-0.7735013237535953,-1.840992023578286
1772648234065382000,6.1863818359375,0.8625701847821473,-0.7313391753286123,-1.5204074860483408
1772648234075422700,6.196422607421875,1.2155769824892282,-0.6324550227284431,-1.2649112145006656
1772648234085462800,6.206462890625,1.5460621517866848,-0.5997305647343397,-1.032304820153117
1772648234095504000,6.21650390625,1.7061939692929387,-0.4734481175988912,-0.6796987122014164
1772648234105544000,6.2265439453125,1.9544836704626678,-0.18799042302966118,-0.19745865472927687
1772648234115584800,6.236584716796875,2.1003245122879743,0.17006956641376017,0.2899959225207567
1772648234125624800,6.246624755859375,1.9750667320251463,0.4474181888073683,0.5967568096205592
1772648234135666000,6.256666015625,1.606641415911913,0.6427174735456704,0.8909998681917786
1772648234145707000,6.26670703125,1.353177526974678,0.8479366792738438,0.9297169907294214
1772648234155746800,6.276746826171875,1.3222446285724638,0.9397276587426662,0.7758151536539196
1772648234165787600,6.28678759765625,1.0990271170780062,0.8346727085530757,0.49529403870403765
1772648234175827700,6.29682763671875,0.9764017311453819,0.6317816535115242,0.013220569970458744
1772648234185868800,6.306868896484375,0.9116928198695182,0.3426385484278202,-0.269464445015043
1772648234195908900,6.316908935546875,0.8870774340510368,0.03277121974527836,-0.3025155046150088
1772648234205949700,6.32694970703125,0.8854416495427488,-0.2824503294467926,-0.2829534566633403
1772648234215989800,6.33698974609375,0.8045473271414637,-0.5649848300457,-0.21833470788896084
1772648234226030800,6.34703076171875,0.7151695462942123,-0.8599901051610708,-0.29957667468413707
1772648234236071000,6.35707080078125,0.781053346568346,-1.0044488449782132,-0.44560222542658445
1772648234246111700,6.36711181640625,0.8361427811056376,-1.0018839629262686,-0.40732130234912034
1772648234256151800,6.37715185546875,1.0343602913782,-1.0041367102891205,-0.436528838263452
1772648234266193000,6.38719287109375,1.1583549198374152,-1.0219278030455112,-0.48621129919067024
1772648234276234000,6.39723388671875,1.1769611283689736,-0.9729647424340248,-0.5695139979079366
1772648234286273800,6.407273681640625,1.0941489896476269,-0.7902601508527993,-0.7374145497195422
1772648234296314600,6.417314697265625,0.9668655487760901,-0.5621697726249695,-0.8540849727705121
1772648234306354700,6.427354736328125,0.7988780493333936,-0.3120078478425741,-0.8987050357416272
1772648234316395800,6.437395751953125,0.7108949377149343,-0.06147475166022777,-0.9029274757422506
1772648234326435800,6.447435791015625,0.6751537622481584,0.13606500548124312,-0.8887126340374351
1772648234336477000,6.457476806640625,0.5362649315178394,0.27321955976486206,-0.9533660157337784
1772648234346516700,6.467516845703125,0.45773470789939164,0.396698055395484,-0.9931040057517587
1772648234356557800,6.477557861328125,0.46284722860753535,0.4188818301528692,-0.9760879890210926
1772648234366598000,6.487597900390625,0.38195290620625016,0.38398996499180793,-0.845033212917298
1772648234376639000,6.497638916015625,0.41961394381970163,0.2828554031163454,-0.5971063537105917
1772648234386678800,6.5076787109375,0.3786298992633819,0.1418774911522865,-0.2859792342253029
1772648234396719600,6.5177197265625,0.27396482517421245,0.019120295533537862,-0.0013591595239937305
1772648234406759700,6.527759765625,0.29310674801766873,-0.09852057998478413,0.1461580910809338
1772648234416800800,6.53780078125,0.29996845048069953,-0.2205751802921295,0.21856384046971797
1772648234426841900,6.547841796875,0.24746377173960207,-0.33498423428237434,0.20333689911291003
1772648234436881700,6.557881591796875,0.1846609863460064,-0.3467565051406622,0.1434400642938912
1772648234446922800,6.5679228515625,0.09272446092665194,-0.33626550626456736,0.05062953251898288
1772648234456962800,6.577962890625,0.07807721915394067,-0.31959026579558847,-0.09978636213690043
1772648234467004000,6.58800390625,0.062492404270172115,-0.2970551933825016,-0.24938889458328484
1772648234477044000,6.5980439453125,0.043057051438093186,-0.26245208203494547,-0.2934105532698333
1772648234487084800,6.608084716796875,0.04171411239653826,-0.22987083190381524,-0.2535236563004553
1772648234497124900,6.618124755859375,-0.026981238166987893,-0.15435469540953636,-0.09987973950877785
1772648234507166000,6.628166015625,-0.036542847238481044,-0.07915069360435009,-0.016696137126535178
1772648234517205800,6.638205810546875,-0.02187310137301683,-0.039514848786592484,0.03382350527718663
1772648234527246600,6.64824658203125,-0.07280980014503002,-0.07235621115863322,0.14892097992300987
1772648234537286700,6.65828662109375,-0.10573124201595782,-0.1525964535653591,0.27028832861855623
1772648234547327700,6.66832763671875,-0.16824001289904117,-0.21070961983799932,0.3900928119115531
1772648234557367800,6.678367919921875,-0.24165040928572415,-0.2197124259829521,0.5514511024728417
1772648234567409000,6.688408935546875,-0.16297025580257177,-0.23447160369753836,0.6433021415658294
1772648234577449700,6.69844970703125,-0.06748743607848882,-0.2768558704406023,0.6922470819987356
1772648234587489800,6.70848974609375,0.002426350364089012,-0.28797055417299267,0.7721038780458271
1772648234597531000,6.71853076171875,0.03294014657139778,-0.2779845822095871,0.8722219563551247
1772648234607571000,6.728571044921875,0.03690291272252798,-0.25961598182618617,1.002964743900299
1772648234617611800,6.73861181640625,0.019583529131114483,-0.2840221088081598,1.0943204006917775
1772648234627651800,6.74865185546875,0.06592968524247407,-0.3637999944001436,1.1634018279634415
1772648234637693000,6.75869287109375,-0.039896833841502666,-0.41509821996092794,1.2240480198450385
1772648234647732700,6.768732666015625,-0.16336597712188958,-0.3777589616477489,1.148180877956003
1772648234657773800,6.77877392578125,-0.32089842578470706,-0.32719957175552844,1.028928475587815
1772648234667814000,6.78881396484375,-0.382215210404247,-0.3045078474760055,0.7594045554704963
1772648234677854700,6.798854736328125,-0.3058344199046492,-0.33556758712828155,0.4574414240412414
1772648234687894800,6.808894775390625,-0.20355799451768397,-0.37147067515850063,0.30910671957358715
1772648234697936000,6.818935791015625,-0.12537702272832393,-0.4267196841716766,0.34720132629871364
1772648234707976000,6.828975830078125,-0.18334990374743937,-0.4655880517482757,0.4879771398194134
1772648234718016800,6.839016845703125,-0.2576490656673908,-0.42844694635570046,0.6704537678636611
1772648234728056800,6.849056884765625,-0.2834627213597298,-0.35746436163783074,0.7690987048804759
1772648234738098000,6.859097900390625,-0.2741137321256101,-0.2270446685671806,0.837011819025129
1772648234748139000,6.869138916015625,-0.20753332788944243,-0.03625204759836197,0.9561721591956913
1772648234758178800,6.8791787109375,-0.24693214908093214,0.17707798387110232,1.2347282576829195
1772648234768219600,6.8892197265625,-0.30288755279779433,0.41372167091071604,1.1949218055386095
1772648234778259700,6.899259765625,-0.38346959437951444,0.7144453236728906,1.20076096002087
1772648234788300800,6.90930078125,-0.38031682943701745,1.0917571260750294,1.3387499193020165
1772648234798340900,6.9193408203125,-0.18255203136801718,1.464492122080922,1.3525839449957013
1772648234808381700,6.929381591796875,0.07478314604461192,1.6232728172391653,1.5491301610551773
1772648234818421800,6.939421875,0.2161918506413698,1.5760826115190982,1.8161552500940858
1772648234828462800,6.949462890625,0.2628156546503305,1.444956231483817,1.9157665479250252
1772648234838503000,6.9595029296875,0.19015841471850872,1.3570114060491323,1.8515061110690234
1772648234848544000,6.9695439453125,0.050913610157370566,1.2626561290502547,1.5399924764841795
1772648234858583800,6.979583740234375,-0.013627397205680607,1.141786354613304,1.0960773273617028
1772648234868625000,6.989625,-0.17272431870624422,1.0409469762921333,0.5362736993461847
1772648234878666000,6.999666015625,-0.3245592863798141,1.0601824226379395,-0.2386797229118645
1772648234888705800,7.009705810546875,-0.14869360090792177,1.0339619397103785,-0.9772269299231469
1772648234898746400,7.019746337890625,0.12296353184580802,0.9602373628079891,-1.502459303034097
1772648234908786400,7.029786376953125,0.3753203363239765,0.7201894202828407,-1.863579849091917
1772648234918827500,7.03982763671875,0.4180126461029052,0.36673897046148773,-2.0559308054186403
1772648234928867300,7.049867431640625,0.49006958205401896,-0.048209611895680425,-2.112824951290339
1772648234938908400,7.059908447265625,0.753576141577959,-0.4729992047876119,-2.07898259518221
1772648234948948500,7.069948486328125,0.863930367219448,-0.7904407681167125,-1.822047084611654
1772648234958989300,7.0799892578125,0.7893184860885143,-0.8878963492184877,-1.4083533246211706
1772648234969029400,7.090029296875,0.753999627687037,-0.8633797475993633,-1.1090388080045581
1772648234979070500,7.100070556640625,0.7414803378537297,-0.8340928628385067,-0.8295565345831215
1772648234989110500,7.110110595703125,0.7154507013231516,-0.7652619031965732,-0.548268673044443
1772648234999151400,7.1201513671875,0.5702320830494165,-0.5698889687001705,-0.29838673424720763
1772648235009192400,7.1301923828125,0.2661085587158799,-0.29052959100604053,-0.13257818627879023
1772648235019232500,7.140232421875,0.08090250570774078,0.07893909668028354,-0.031251170571148394
1772648235029273600,7.150273681640625,-0.07790683102309703,0.45885494410097594,-0.01592325305789709
1772648235039313700,7.160313720703125,-0.22219167557805775,0.7013537869095802,-0.08496069505736231
1772648235049354500,7.1703544921875,-0.2647112591385841,0.8408417525768279,-0.19250804658457635
1772648235059394300,7.180394287109375,-0.326560689330101,0.8409265082508325,-0.33377924240678547
1772648235069435400,7.190435302734375,-0.34982524506151674,0.8015951993376016,-0.43893136936053634
1772648235079475500,7.200475341796875,-0.339365810367465,0.7472937003076076,-0.49975847076699137
1772648235089516300,7.210516357421875,-0.2970499326854944,0.6223895557880401,-0.5599002202577888
1772648235099556400,7.220556396484375,-0.25151333939135073,0.4844909051388502,-0.5802705158524215
1772648235109597400,7.230597412109375,-0.15921411813944578,0.40237551651000975,-0.5575974962733685
1772648235119637500,7.240637451171875,-0.06233750596940517,0.3079875062853098,-0.5167458459250629
1772648235129678600,7.2506787109375,0.06046002165973186,0.10836568217277526,-0.5708239114627242
1772648235139718700,7.26071875,0.14894991375654934,-0.19414368496239184,-0.6095312432587147
1772648235149759500,7.270759521484375,0.13832125997543335,-0.5244605119556188,-0.6742619279749691
1772648235159800600,7.280800537109375,0.08788725002855062,-0.7798702742636203,-0.6646655398510396
1772648235169840400,7.29084033203125,0.018867197555303573,-0.8439981707811355,-0.6371360201515257
1772648235179881200,7.300881103515625,-0.01485270121693611,-0.8365519464284181,-0.5725974970065056
1772648235189921300,7.31092138671875,-0.043266602535545824,-0.734713620197773,-0.5083398366294801
1772648235199962400,7.32096240234375,-0.012076222240924835,-0.6403963371217251,-0.5244458989083767
1772648235210002400,7.33100244140625,-0.03336655528992414,-0.5123503874450922,-0.6513156444124877
1772648235220043500,7.34104345703125,0.11628653829991817,-0.444240727815032,-0.7460897313453256
1772648235230083600,7.35108349609375,0.15159692113399506,-0.5793856958419085,-0.6037026832357049
1772648235240124400,7.36112451171875,0.047404725253582,-0.7392945182472467,-0.41441052995771166
1772648235250164500,7.37116455078125,0.10834171677529811,-0.929166517239809,-0.3718267951197922
1772648235260205600,7.38120556640625,0.317604937197268,-1.2447002011209725,-0.40873087688609955
1772648235270245600,7.39124560546875,0.4525964682281017,-1.4629624282956122,-0.27442060611769553
1772648235280286500,7.401286376953125,0.42524873483628034,-1.5836106689363718,-0.15450784014463423
1772648235290326300,7.411326171875,0.35636078431010243,-1.4892144754052161,-0.12090689157694577
1772648235300367400,7.421367431640625,0.25742694734930993,-1.1296493420958518,-0.18723098296448587
1772648235310408400,7.431408447265625,0.02574351306557655,-0.8314467322438955,-0.258679139367491
1772648235320448500,7.441448486328125,-0.09058131141811608,-0.6454670645147562,-0.32662527899891136
1772648235330489300,7.4514892578125,-0.30029139882475137,-0.5993062018424272,-0.3778714821115136
1772648235340529400,7.461529296875,-0.6719944214344025,-0.5513333213120699,-0.4718040036536753
1772648235350570500,7.471570556640625,-0.766381262615323,-0.4113151942908764,-0.5656970699682832
1772648235360610600,7.481610595703125,-0.9185784877300261,-0.2994809592247009,-0.3851262755453586
1772648235370651400,7.4916513671875,-0.9824538707911967,-0.2770207056134939,-0.22622268465980885
1772648235380691500,7.50169140625,-0.8375678454726934,-0.39946401297748085,-0.1556451736114919
1772648235390732500,7.511732666015625,-0.8525760295122862,-0.29786300263404847,0.09022080754265188
1772648235400772400,7.5217724609375,-0.7841863838970661,-0.16634148580133915,0.35813451598435636
1772648235410813400,7.5318134765625,-0.7031693118989467,-0.137948919531703,0.5688235314257443
1772648235420853500,7.541853515625,-0.5580231743395329,-0.2575812611281872,0.6140643566437065
1772648235430894300,7.551894287109375,-0.5535498283177613,-0.46559565053284163,0.5540181764818728
1772648235440934400,7.561934326171875,-0.8465677290081978,-0.5436427668094634,0.5033312146872282
1772648235450975500,7.5719755859375,-1.240525545784831,-0.5056774855524301,0.32720117919072506
1772648235461016300,7.582016357421875,-1.4004869751602411,-0.4232043695271015,0.14906696426495908
1772648235471056400,7.592056396484375,-1.5311284942880272,-0.46818274441659447,0.019566139604896306
1772648235481097500,7.602097412109375,-1.628750956389308,-0.4872369889765978,0.005706102687120437
1772648235491137500,7.612137451171875,-1.5504536647439002,-0.3218231394141912,-0.06603007687702775
1772648235501178600,7.6221787109375,-0.8838385982602834,0.1491845992952585,-0.31085590132847424
1772648235511218400,7.632218505859375,-0.552168603092432,0.7997539553850889,-0.5506250269122421
1772648235521259500,7.642259521484375,-0.8334709315478801,1.5614420917481182,-0.48853258174508807
1772648235531299300,7.65229931640625,-1.1753308968186378,2.308021506306529,-0.23423048841804264
1772648235541340400,7.66234033203125,-1.295979721981287,2.7598949209570884,-0.0871202111788094
1772648235551380500,7.67238037109375,-1.000230935022235,2.7700305305242536,-0.5102279884636401
1772648235561421300,7.68242138671875,-0.720276514044404,2.481244568315148,-1.0906637778803705
1772648235571461400,7.69246142578125,-0.27452947331964966,1.8841262319058178,-1.4225272497937083
1772648235581502500,7.70250244140625,0.0538835658788681,1.104275831386447,-1.5144747349984944
1772648235591543600,7.71254345703125,0.24695640673935412,0.5100274974554777,-1.5167461870618164
1772648235601583400,7.722583251953125,0.27434768701195716,0.22868308342397212,-1.496919058433175
1772648235611624400,7.73262451171875,0.34625323179364204,0.1644739383637905,-1.4964230916097758
1772648235621664500,7.74266455078125,0.5916194467321038,0.1815408084988594,-1.4435279522463678
1772648235631705600,7.75270556640625,0.9963193145364523,0.11232114180028438,-1.3080046524263917
1772648235641745400,7.762745361328125,1.35578449460268,0.050175359010696405,-1.1876705923013389
1772648235651786200,7.7727861328125,1.7154963429063557,0.009345335972309111,-1.0737139582537114
1772648235661826300,7.782826416015625,1.9546184027582405,-0.025137363865971565,-0.8551955643609166
1772648235671867400,7.792867431640625,2.098155936077237,-0.03809036894142628,-0.5774684640437364
1772648235681907500,7.802907470703125,2.1108003135949374,-0.008279168045520782,-0.2805715299628675
1772648235691948300,7.8129482421875,2.0328052197664976,0.04182604833841324,0.007867372374236584
1772648235701988400,7.82298828125,1.9250544546216726,0.10455927562713623,0.23118980554789303
1772648235712029400,7.833029541015625,1.7972849837988614,0.20921967354118823,0.3352215501695871
1772648235722070500,7.843070556640625,1.5731597098097205,0.31336276958286763,0.30237083544731136
1772648235732110600,7.853110595703125,1.3691574786558747,0.40145138740241526,0.14441811554580927
1772648235742151400,7.8631513671875,1.2089777303546667,0.44185061780810353,-0.01403334765806794
1772648235752191500,7.87319140625,1.2136065591990948,0.38909810178577897,-0.24017463764473795
1772648235762232600,7.883232666015625,1.1012693430468439,0.28604572359025476,-0.40975305954068897
1772648235772272400,7.8932724609375,0.8884449230119585,0.16505144599080085,-0.4397818487100303
1772648235782313500,7.9033134765625,0.5976315466284752,0.09920037894248962,-0.44934316552057857
1772648235792353300,7.913353271484375,0.3515004847973585,0.02260521503984928,-0.33987273697629566
1772648235802394400,7.923394287109375,0.39285482397079463,-0.12576222265362738,-0.28220789899304505
1772648235812434400,7.933434326171875,0.5012669756338,-0.31344694073498247,-0.29518574624881144
1772648235822475500,7.9434755859375,0.6006377427071332,-0.5079115282148122,-0.25315248490050435
1772648235832515600,7.953515625,0.6642062517762184,-0.6740016696035862,-0.15305807972773908
1772648235842556400,7.963556396484375,0.729569827568531,-0.7894505880355834,-0.05848755254298448
1772648235852596500,7.973596435546875,0.761010090970993,-0.8151987772762775,0.022821780399978158
1772648235862637600,7.983637451171875,0.7331368724003434,-0.7692302223056554,0.10256590985283255
1772648235872678400,7.993678466796875,0.6536608923643827,-0.7087251924604177,0.14300634905174373
1772648235882718200,8.00371826171875,0.535025452850759,-0.5713216318517923,0.1742851382821798
1772648235892759300,8.01375927734375,0.5169435604542494,-0.4108107519000768,0.17804200659766792
1772648235902799000,8.023799072265625,0.5131847924426197,-0.2948141364574432,0.1335756728835404
1772648235912840200,8.033840087890624,0.474614238768816,-0.2142629284054041,0.06524053393453359
1772648235922880300,8.04388037109375,0.3767179281622171,-0.20929215425550937,0.023468553870916366
1772648235932921000,8.053921142578124,0.3042231853157282,-0.2577010881155729,0.019140899930149315
1772648235942961200,8.063961181640625,0.2771592373013496,-0.27528818273246286,0.09270867883563041
1772648235953002200,8.074002197265624,0.24485183567553756,-0.2605699215501547,0.1598657139159739
1772648235963042300,8.084042236328125,0.21636837625205516,-0.28576807569265367,0.24716522718444464
1772648235973083100,8.094083251953125,0.2120966902822256,-0.3759872758001089,0.3669925068311393
1772648235983123200,8.104123291015625,0.1948556326240301,-0.4001689463764429,0.47577641441598534
1772648235993164300,8.114164306640625,0.1150344924122095,-0.39758185249269007,0.6293420052744447
1772648236003204000,8.1242041015625,0.05589022952616214,-0.38928748687803744,0.7452936125315726
1772648236013245200,8.1342451171875,0.04412321936488151,-0.40971360431313514,0.7507854879461229
1772648236023286000,8.1442861328125,0.08337649460583925,-0.41912908291220663,0.7013431193850934
1772648236033326000,8.154326171875,0.09602437925487756,-0.43695115532875056,0.707416301818937
1772648236043367200,8.1643671875,0.11546002434790134,-0.45991818941831586,0.7851015990458429
1772648236053407200,8.1744072265625,0.06920213104188441,-0.42104105401337144,0.8438932491019367
1772648236063448000,8.184447998046876,0.16712620643824339,-0.34982115340828895,0.8036948019653558
1772648236073488100,8.194488037109375,0.216612998662889,-0.26712065836787224,0.6996563353419304
1772648236083529200,8.204529296875,0.21238865896612405,-0.20324118365347385,0.5955050559937953
1772648236093569300,8.2145693359375,0.2459659343972802,-0.1478606572151184,0.5176999317795038
1772648236103610400,8.2246103515625,0.1807327069863677,-0.1410240891933441,0.4756476734697819
1772648236113650200,8.234650146484375,0.0861696324557066,-0.17835750228762626,0.40561332938745615
1772648236123691000,8.24469091796875,0.04384644825011492,-0.21139584853649138,0.26432415951713917
1772648236133731000,8.25473095703125,0.11092618031054735,-0.1782674859166145,0.09687485860437155
1772648236143772200,8.264772216796874,0.16788491585105655,-0.11176233887374401,0.02254763963371515
1772648236153813200,8.274813232421875,0.10192512773126364,-0.019114450314641,0.037517537489533424
1772648236163853000,8.28485302734375,0.030448622016608713,0.1049696099936962,0.08755114994198084
1772648236173894100,8.29489404296875,-0.0765139153599739,0.1803898848980665,0.2474038582459092
1772648236183934200,8.304934326171875,-0.1781912058100104,0.11349369271099567,0.5654375422492623
1772648236193975300,8.314975341796876,-0.049397944897413254,0.4441372674405574,0.7041138992726802
1772648236204015400,8.325015380859375,-0.20100801777392624,0.40385669497847554,1.0321895232103764
1772648236214056200,8.33505615234375,-0.27311697617322206,0.22154139497578143,1.389870157947391
1772648236224096300,8.34509619140625,-0.3414505076870322,0.15951251656413076,1.6625117716938256
1772648236234137300,8.355137451171874,-0.44803135226964946,0.19825696550011634,1.842154783747345
1772648236244177200,8.36517724609375,-0.39737113235145805,0.4707534716874361,1.8109391228809952
1772648236254218000,8.375218017578124,-0.4398664582535624,0.6603308716475963,1.6786976212106643
1772648236264258000,8.385258056640625,-0.4183288724452257,0.8782137441158294,1.4858338930562138
1772648236274299100,8.395299072265624,-0.2902873066827655,1.2498866638481616,1.495579918783903
1772648236284339200,8.405339111328125,-0.3380199487164616,1.5946102018564938,1.4176451768405736
1772648236294380300,8.41538037109375,-0.19692893176674842,1.7377952684760092,1.3300417121894657
1772648236304421000,8.425421142578125,0.10848930855244397,1.5382190370708704,1.3500450741678476
1772648236314461200,8.435461181640624,0.2822115522548556,1.3282903384774922,1.2882668095164
1772648236324502300,8.445502197265625,0.2782406027972698,1.2638164050012826,1.0190645225688815
1772648236334542300,8.455542236328125,0.23747955334186552,1.1856062071174382,0.5945024548225104
1772648236344583200,8.465583251953126,0.26242373272329567,1.0495260040670633,0.25795579352900383
1772648236354623000,8.475623046875,0.2883162988707423,0.8708440921306609,-0.06297141995877027
1772648236364664000,8.4856640625,0.38718466937988993,0.7471025616496801,-0.4493694690056145
1772648236374704000,8.4957041015625,0.5357832854807376,0.5772270565032959,-0.765842333433032
1772648236384745200,8.5057451171875,0.6755231800824404,0.34157238050103184,-0.9332077554546296
1772648236394785300,8.515785400390625,0.9371540088623762,0.17599895646274089,-1.1231762005589903
1772648236404826000,8.525826171875,1.1001619663268327,-0.002039396873116493,-1.3219266486644745
1772648236414866200,8.5358662109375,1.0995172386825085,-0.19553250897228716,-1.6176003245607018
1772648236424907300,8.5459072265625,1.0350786687806248,-0.41464170836508274,-1.9552619613587856
1772648236434947300,8.555947265625,0.926381854957342,-0.6253992589980364,-2.2054235938802362
1772648236444988200,8.56598828125,0.7746534163981675,-0.8178905005782842,-2.233871251337975
1772648236455029200,8.576029296875,0.6686489103987813,-0.9238035289019346,-2.2035180525198577
1772648236465069300,8.5860693359375,0.5889928976207971,-0.8163304116547108,-2.1132219877839087
1772648236475110400,8.5961103515625,0.5355512302905321,-0.579716535231471,-1.972739750382304
1772648236485150200,8.606150146484374,0.5022065945714712,-0.29051147082746026,-1.7912817978613078
1772648236495191000,8.61619091796875,0.3924041575938463,0.0748579648464918,-1.5887648368291556
1772648236505231000,8.626231201171874,0.2761801631361246,0.5058317993313074,-1.4379095278427003
1772648236515272200,8.636272216796876,0.19276772043406962,0.9567594575643539,-1.3102978779301047
1772648236525312300,8.646312255859375,0.1373746267750859,1.2713970693886278,-1.08308822805956
1772648236535353000,8.65635302734375,0.04582242449820041,1.3567156379729508,-0.8964395750276744
1772648236545393200,8.66639306640625,-0.10326982033848763,1.3914981975406409,-0.8527316584654152
1772648236555434200,8.676434326171876,-0.22823797000497578,1.3319757489919661,-0.9310233971528709
1772648236565474300,8.686474365234375,-0.19004677103757858,1.147862459656596,-0.9126733553394675
1772648236575515400,8.696515380859376,-0.04895078565180301,0.8697101196646689,-0.9050913757778704
1772648236585555200,8.70655517578125,0.01653933912962675,0.49522389607727524,-0.9071997462339699
1772648236595596000,8.716595947265626,0.14070260215401648,0.11572539728581904,-0.9612855566866695
1772648236605637000,8.72663720703125,0.2383630581781268,-0.1593020886838436,-0.9163191644959151
1772648236615677200,8.73667724609375,0.30618893243074413,-0.45574119599461554,-0.7283063835039735
1772648236625718000,8.746718017578125,0.3685702775418758,-0.7719505871802568,-0.6317597339406609
1772648236635758000,8.756758056640624,0.40568011101335283,-1.0444792420715092,-0.5514185153774916
1772648236645799200,8.766799072265625,0.3370902666509151,-1.1568997525930405,-0.47199601909443734
1772648236655839200,8.776839111328124,0.10323650259077548,-1.0966653563827276,-0.46835342480838293
1772648236665880300,8.78688037109375,0.12465572271645069,-0.931816739487648,-0.5827816218905151
1772648236675920100,8.796920166015624,0.11463058778643608,-0.7207727731287479,-0.5703139161139726
1772648236685961200,8.806961181640625,-0.03469663484990597,-0.6322825887709855,-0.552018527097255
1772648236696001300,8.817001220703125,-0.08578969322741031,-0.49656595833599565,-0.5732223509065807
1772648236706042400,8.82704248046875,-0.26128479182124137,-0.4113602024763822,-0.6175862471595406
1772648236716082200,8.837082275390625,-0.30430794098973274,-0.40638709023892877,-0.7064309440433979
1772648236726123000,8.847123046875,-0.2566837277665734,-0.45658466108143325,-0.7154401799291372
1772648236736164000,8.8571640625,-0.16899521518051625,-0.5414204145848751,-0.7388530580900609
1772648236746204200,8.8672041015625,-0.038682489615678786,-0.6390215416371822,-0.730612322358787
1772648236756245200,8.877245361328125,-0.07768880435824393,-0.6455430523604154,-0.6958567969284951
1772648236766285000,8.88728515625,-0.20657500425130126,-0.5872206272512674,-0.6797136175096035
1772648236776326100,8.897326171875,-0.17438742961287498,-0.4884826051235199,-0.6436836882293224
1772648236786366200,8.9073662109375,-0.11944675589650869,-0.4452566268593073,-0.5667956788599491
1772648236796407300,8.9174072265625,-0.078365680706501,-0.4142804738372564,-0.6015780922971665
1772648236806447400,8.927447265625,-0.13371172035336493,-0.37797172761559483,-0.6324509310752153
1772648236816488200,8.93748828125,-0.286498435793817,-0.35847032380998134,-0.5630284352809191
1772648236826528000,8.947528076171874,-0.560460338358581,-0.26576047593057156,-0.4151445433206856
1772648236836569000,8.957569091796875,-0.7120575517535209,-0.34027357286214827,-0.26379268298894165
1772648236846609200,8.967609130859374,-0.26285510987788435,-0.022630349481105802,-0.44645548125505446
1772648236856650200,8.977650146484375,-0.458327120834589,0.3218208013266325,-0.34632015955001116
1772648236866690000,8.98768994140625,-0.8327917171120643,-0.06616261721551418,-0.1630354299932718
1772648236876731100,8.997731201171876,-0.8786568117082119,-0.47653322413265703,-0.21543051088005302
1772648236886772200,9.007772216796875,-0.8488526250749826,-0.3578448853880167,-0.21835355871990322
1772648236896812300,9.017812255859376,-0.7923693980917335,-0.16183189942240714,-0.1457819512449205
1772648236906853400,9.027853271484375,-0.8419257484212517,-0.20009411779940128,-0.05138868032321334
1772648236916893400,9.0378935546875,-0.8570324243992566,-0.3430751862794161,0.0365675432883203
1772648236926934500,9.0479345703125,-0.7876619510531425,-0.6078583416104316,0.11835837613791227
1772648236936974600,9.057974609375,-0.8211439494162798,-0.7788713263541459,0.12783800601437686
1772648236947015400,9.068015380859375,-0.777884653404355,-0.693325378754735,0.03147109693214297
1772648236957055500,9.078055419921874,-0.8528390643626451,-0.5368880318522453,0.11262217057347297
1772648236967096600,9.0880966796875,-0.9827738965258002,-0.5424719694644212,0.11630334330424666
1772648236977136400,9.098136474609374,-0.9476105209469795,-0.6663648911148309,-0.06252557588741182
1772648236987177500,9.108177490234375,-0.879432472255826,-0.8641910639822482,-0.2230311951421201
1772648236997217500,9.118217529296874,-1.0381737121865153,-0.992808091545105,-0.17666048911139368
1772648237007258400,9.12825830078125,-1.273659169101715,-0.9856851077973842,-0.030582623659819362
1772648237017299500,9.138299560546875,-1.3018337087064982,-0.8989701164186,0.010911562375724314
1772648237027339500,9.148339599609375,-1.1661562412381172,-0.8429431087702512,-0.15379633087441325
1772648237037380400,9.15838037109375,-1.076401151511073,-0.6783358994156122,-0.29700214802101255
1772648237047420400,9.16842041015625,-1.0422224030554295,-0.1908551648110151,-0.3950136094398796
1772648237057461500,9.17846142578125,-0.9797194773912429,0.5143868617087602,-0.48339229624718427
1772648237067501600,9.18850146484375,-0.9764122525393962,1.1613397808670998,-0.5036370657660066
1772648237077542700,9.198542724609375,-1.050998122446239,1.5782511877298355,-0.27394538982138034
1772648237087582500,9.20858251953125,-1.2495227989718318,1.7309972788989543,-0.10864040746092796
1772648237097623600,9.21862353515625,-1.2418225998580454,1.6371856072574853,-0.24945640686154363
1772648237107663400,9.228663330078126,-1.0159703559458255,1.3170061433970928,-0.16111249910667538
1772648237117704400,9.238704345703125,-0.9619257542863487,0.8969979395627975,-0.20954452158138154
1772648237127744500,9.24874462890625,-0.6517293397799134,0.6122334879547358,-0.4072711795970797
1772648237137785300,9.258785400390625,-0.45731969735771416,0.5489069709479808,-0.37609351265355945
1772648237147825400,9.268825439453124,-0.2596019533008337,0.615000614580512,-0.29857436577379703
1772648237157866500,9.278866455078125,0.005759294179081917,0.7410708802700042,-0.3511168923072517
1772648237167907600,9.288907470703125,0.21546236732304094,0.7357032157570124,-0.4306337888754904
1772648237177947600,9.29894775390625,0.4106394869863987,0.616488807311654,-0.5371102963007987
1772648237187988500,9.308988525390625,0.5731745662420987,0.5149082552343607,-0.720620651306957
1772648237198028500,9.319028564453125,0.8262409802943468,0.4052449344664812,-0.8865577940911054
1772648237208069600,9.329069580078125,1.048530563288927,0.22570903604924678,-0.9853856864593923
1772648237218109400,9.339109375,1.1408493660241366,0.06314706878662109,-1.0337393830008805
1772648237228150300,9.349150390625,1.2124316702008247,-0.07200842063426971,-1.1451513010017573
1772648237238190300,9.3591904296875,1.2091241530880332,-0.18655659083426,-1.1841413952618836
1772648237248231400,9.3692314453125,1.2045809567004442,-0.2286445049792528,-1.1712633551187812
1772648237258271500,9.379271484375,1.128515077368915,-0.7537298708349466,-1.0066801111616193
1772648237268312600,9.3893125,2.3029086933374403,-0.33062779263854025,-1.4641576294295489
1772648237278352400,9.399352294921876,2.70825007391572,0.9393652551710605,-1.5801106979914008
1772648237288393500,9.4093935546875,2.248707147550583,1.0713801084786654,-1.004333694165945
1772648237298433500,9.41943359375,1.865681059154868,0.3399468251258135,-0.7638209106080234
1772648237308474600,9.429474609375,1.6876517659083008,-0.06732289316654205,-0.9059786800064146
1772648237318515500,9.439515380859374,1.4684420287504791,-0.03571662554740906,-0.5837744323201477
1772648237328555500,9.449555419921875,1.2897574864655732,0.25122575462162494,-0.18046251174286007
1772648237338596600,9.4595966796875,1.227101123805344,0.7493845351070165,-0.19699936665445564
