time,seconds_elapsed,z,y,x
1772648227941915400,0.062915283203125,-0.05360214412212372,0.04603421688079834,-0.0071180141530931
1772648227951956500,0.07295654296875,-0.05131581798195839,0.044310882687568665,-0.01135190762579441
1772648227961996500,0.08299658203125,-0.05334807559847832,0.04646804556250572,-0.011818226426839828
1772648227972037600,0.09303759765625,-0.05361582338809967,0.048946913331747055,-0.010110151953995228
1772648227982077700,0.10307763671875,-0.05854107066988945,0.055566467344760895,-0.011113897897303104
1772648227992118500,0.113118408203125,-0.06375662237405777,0.055367350578308105,-0.009467060677707195
1772648228002158300,0.123158447265625,-0.06932529807090759,0.06422050297260284,-0.005752749741077423
1772648228012199400,0.133199462890625,-0.07227126508951187,0.08176957070827484,-0.005694098770618439
1772648228022239500,0.143239501953125,-0.07654031366109848,0.08917715400457382,0.012076908722519875
1772648228032280300,0.1532802734375,-0.07866622507572174,0.08533730357885361,0.05665071681141853
1772648228042320400,0.1633203125,-0.07771441340446472,0.07609879225492477,0.10205761343240738
1772648228052361500,0.173361572265625,-0.06691502779722214,0.10020653158426285,0.10890619456768036
1772648228062401500,0.183401611328125,-0.05460324138402939,0.13660794496536255,0.09975983947515488
1772648228072442600,0.193442626953125,-0.05231023579835892,0.12954488396644592,0.13721992075443268
1772648228082482700,0.203482666015625,-0.03886713087558746,0.14362740516662598,0.16470374166965485
1772648228092523500,0.2135234375,-0.03170999139547348,0.17487432062625885,0.1716156154870987
1772648228102563300,0.223563232421875,-0.035351067781448364,0.1911078840494156,0.18018725514411926
1772648228112604400,0.2336044921875,-0.035770781338214874,0.22153449058532715,0.18936504423618317
1772648228122644500,0.24364453125,-0.04789775237441063,0.23112639784812927,0.22278346121311188
1772648228132685300,0.253685302734375,-0.05267314612865448,0.23264533281326294,0.24935705959796906
1772648228142725400,0.263725341796875,-0.04629487544298172,0.28271088004112244,0.23683515191078186
1772648228152766500,0.273766357421875,-0.03958549350500107,0.3600276708602905,0.2115185558795929
1772648228162807600,0.2838076171875,-0.04574937745928764,0.41989046335220337,0.21171855926513672
1772648228172847600,0.29384765625,-0.050943151116371155,0.44169366359710693,0.22322605550289154
1772648228182888400,0.303888427734375,-0.0468573272228241,0.45440974831581116,0.2155849188566208
1772648228192928500,0.313928466796875,-0.03403298556804657,0.49479883909225464,0.17633476853370667
1772648228202969600,0.323969482421875,-0.013651279732584953,0.5437139272689819,0.15878453850746155
1772648228213009700,0.334009765625,0.005220952443778515,0.5626410245895386,0.14063289761543274
1772648228223050500,0.344050537109375,0.023309143260121346,0.5638232231140137,0.11445881426334381
1772648228233090300,0.35409033203125,0.03695899248123169,0.5447774529457092,0.07811390608549118
1772648228243131400,0.36413134765625,0.04874321445822716,0.5186529159545898,0.038798991590738297
1772648228253171500,0.37417138671875,0.043049827218055725,0.4765351116657257,0.010998839512467384
1772648228263212500,0.384212646484375,0.027658887207508087,0.4321817457675934,-0.004015264566987753
1772648228273252600,0.394252685546875,0.006778106093406677,0.389250248670578,-0.010113105177879333
1772648228283293400,0.40429345703125,-0.006995496340095997,0.352519154548645,-0.0030996697023510933
1772648228293333500,0.41433349609375,-0.016779974102973938,0.33202633261680603,0.01240482646971941
1772648228303374600,0.42437451171875,-0.022676479071378708,0.32442033290863037,0.036300837993621826
1772648228313414700,0.43441455078125,-0.022778015583753586,0.321257621049881,0.04416390508413315
1772648228323455500,0.44445556640625,-0.0185257475823164,0.3299725651741028,0.04851417988538742
1772648228333495300,0.454495361328125,-0.016313547268509865,0.33755171298980713,0.043728336691856384
1772648228343536400,0.464536376953125,-0.020479263737797737,0.3387623727321625,0.02667371556162834
1772648228353576400,0.474576416015625,-0.02372228540480137,0.3344431519508362,0.007057427894324064
1772648228363617500,0.484617431640625,-0.028454989194869995,0.3378245532512665,-0.017311029136180878
1772648228373658400,0.494658447265625,-0.031026972457766533,0.35269424319267273,-0.04058661311864853
1772648228383698400,0.504698486328125,-0.036282189190387726,0.3750879466533661,-0.06107058748602867
1772648228393739500,0.514739501953125,-0.045088183134794235,0.4010196328163147,-0.07823275774717331
1772648228403779600,0.524779541015625,-0.0628538727760315,0.42096805572509766,-0.08506909757852554
1772648228413820400,0.5348203125,-0.08156133443117142,0.44620123505592346,-0.08563535660505295
1772648228423860500,0.544860595703125,-0.10360192507505417,0.4887864887714386,-0.07591961324214935
1772648228433901600,0.554901611328125,-0.1224888265132904,0.5455223321914673,-0.061855021864175797
1772648228443941600,0.564941650390625,-0.1421477496623993,0.5868245363235474,-0.058546312153339386
1772648228453982500,0.574982421875,-0.16140255331993103,0.6022136807441711,-0.06291312724351883
1772648228464022300,0.585022216796875,-0.16904184222221375,0.6046326756477356,-0.0655541867017746
1772648228474063400,0.5950634765625,-0.16727173328399658,0.6086007952690125,-0.06657595187425613
1772648228484103400,0.605103515625,-0.1665918231010437,0.6122506856918335,-0.04522937908768654
1772648228494144500,0.61514453125,-0.17495493590831757,0.6058118343353271,-0.020032847300171852
1772648228504184600,0.6251845703125,-0.18566803634166718,0.5932531952857971,0.006670669186860323
1772648228514225400,0.635225341796875,-0.19654956459999084,0.58056640625,0.012157807126641273
1772648228524265500,0.645265380859375,-0.21615895628929138,0.5634676218032837,0.011948483064770699
1772648228534306600,0.655306640625,-0.23224905133247375,0.540856122970581,0.014311824925243855
1772648228544346600,0.6653466796875,-0.2390020340681076,0.5257493257522583,0.01401328481733799
1772648228554387500,0.675387451171875,-0.24103285372257233,0.5129440426826477,0.00847641471773386
1772648228564427300,0.68542724609375,-0.24365605413913727,0.49605000019073486,-0.0006664837710559368
1772648228574468400,0.69546826171875,-0.23949627578258514,0.47857844829559326,-0.0056505342945456505
1772648228584508400,0.70550830078125,-0.230391725897789,0.4477262794971466,-0.004440394230186939
1772648228594549500,0.715549560546875,-0.22228571772575378,0.4031897783279419,-0.0015619236510246992
1772648228604589600,0.725589599609375,-0.21300433576107025,0.3644535541534424,0.00008604046888649464
1772648228614630400,0.73563037109375,-0.20834815502166748,0.33346953988075256,0.00682345824316144
1772648228624671500,0.74567138671875,-0.20558378100395203,0.30584990978240967,0.0029070135205984116
1772648228634711600,0.755711669921875,-0.20804497599601746,0.2763198912143707,-0.007035722490400076
1772648228644752400,0.76575244140625,-0.2160096913576126,0.2352004051208496,-0.008684219792485237
1772648228654792400,0.77579248046875,-0.21859677135944366,0.19804637134075165,-0.005724458023905754
1772648228664833500,0.78583349609375,-0.21803778409957886,0.18095554411411285,0.0005952226929366589
1772648228674873600,0.79587353515625,-0.2163820117712021,0.1937340795993805,0.014330422505736351
1772648228684914700,0.805914794921875,-0.21062958240509033,0.25007617473602295,0.021751053631305695
1772648228694954500,0.81595458984375,-0.20348592102527618,0.32870718836784363,0.032977741211652756
1772648228704995300,0.825995361328125,-0.19617660343647003,0.4119357764720917,0.04135098308324814
1772648228715035400,0.836035400390625,-0.18825140595436096,0.475551962852478,0.03618737310171127
1772648228725076500,0.846076416015625,-0.1778392344713211,0.5154826045036316,0.03214336186647415
1772648228735116500,0.856116455078125,-0.1747426837682724,0.5465409755706787,0.026820512488484383
1772648228745157400,0.866157470703125,-0.17375944554805756,0.5695480704307556,0.02505057491362095
1772648228755197400,0.876197509765625,-0.17667420208454132,0.5860846638679504,0.01408751867711544
1772648228765238500,0.886238525390625,-0.1808020919561386,0.5997642874717712,-0.0005215175915509462
1772648228775278600,0.896278564453125,-0.17693321406841278,0.6037665605545044,-0.019232679158449173
1772648228785319700,0.906319580078125,-0.16087062656879425,0.6197018623352051,-0.03568302467465401
1772648228795359500,0.916359375,-0.1276385635137558,0.6354475021362305,-0.05307275429368019
1772648228805400300,0.926400390625,-0.0828322097659111,0.6477323770523071,-0.07679885625839233
1772648228815440400,0.9364404296875,-0.041046593338251114,0.6088358163833618,-0.10082681477069855
1772648228825481500,0.9464814453125,-0.003748756367713213,0.5155487060546875,-0.13000787794589996
1772648228835521500,0.956521484375,0.0369676798582077,0.4246102273464203,-0.15765228867530823
1772648228845562400,0.966562255859375,0.08068746328353882,0.34238940477371216,-0.1769905686378479
1772648228855603500,0.976603515625,0.11741096526384354,0.26385486125946045,-0.2009144276380539
1772648228865643500,0.9866435546875,0.12632828950881958,0.1927143633365631,-0.22262798249721527
1772648228875684600,0.9966845703125,0.12178972363471985,0.133518248796463,-0.23208896815776825
1772648228885724700,1.006724609375,0.11162444204092026,0.08466894924640656,-0.23615054786205292
1772648228895765200,1.01676513671875,0.10928840935230255,0.04568187892436981,-0.231644406914711
1772648228905805300,1.026805419921875,0.12157117575407028,0.02508418820798397,-0.22207939624786377
1772648228915846400,1.036846435546875,0.13791552186012268,0.005950813181698322,-0.20013824105262756
1772648228925886500,1.046886474609375,0.15953239798545837,-0.031091362237930298,-0.16005925834178925
1772648228935927300,1.05692724609375,0.19560864567756653,-0.0907912328839302,-0.12095919996500015
1772648228945967000,1.066967041015625,0.24840527772903442,-0.1485764980316162,-0.09611830115318298
1772648228956008200,1.07700830078125,0.31092414259910583,-0.19959211349487305,-0.0759659931063652
1772648228966048300,1.08704833984375,0.3669368028640747,-0.2555062472820282,-0.057546764612197876
1772648228976089300,1.09708935546875,0.4051285982131958,-0.3250744640827179,-0.05690388381481171
1772648228986129400,1.10712939453125,0.4342465102672577,-0.39636194705963135,-0.08013943582773209
1772648228996170200,1.117170166015625,0.4502555727958679,-0.4706796705722809,-0.12241998314857483
1772648229006210300,1.127210205078125,0.4563475251197815,-0.5393271446228027,-0.15569111704826355
1772648229016251400,1.13725146484375,0.45573335886001587,-0.5981774926185608,-0.17651598155498505
1772648229026291500,1.14729150390625,0.44039326906204224,-0.6137279868125916,-0.20485042035579681
1772648229036332300,1.157332275390625,0.4111696779727936,-0.6089165210723877,-0.21004366874694824
1772648229046372400,1.167372314453125,0.3784756362438202,-0.5600075721740723,-0.18765820562839508
1772648229056413400,1.177413330078125,0.34259694814682007,-0.4640658497810364,-0.15775421261787415
1772648229066453200,1.187453369140625,0.30983874201774597,-0.326984703540802,-0.12539787590503693
1772648229076494300,1.197494384765625,0.27402162551879883,-0.17431627213954926,-0.09597830474376678
1772648229086535200,1.20753515625,0.2322494089603424,-0.0364563949406147,-0.0646803006529808
1772648229096575200,1.2175751953125,0.19365231692790985,0.06391974538564682,-0.0343548059463501
1772648229106616300,1.2276162109375,0.14805686473846436,0.1120276227593422,-0.008989795111119747
1772648229116656400,1.237656494140625,0.10621042549610138,0.11020664870738983,0.006136439274996519
1772648229126697200,1.247697265625,0.05842585116624832,0.06549430638551712,0.019485533237457275
1772648229136737300,1.2577373046875,0.015156162902712822,-0.020183568820357323,0.0374932624399662
1772648229146778400,1.2677783203125,-0.03901306539773941,-0.14583177864551544,0.06680028885602951
1772648229156818400,1.277818359375,-0.08417301625013351,-0.28679466247558594,0.10094362497329712
1772648229166859300,1.287859375,-0.11880289763212204,-0.4394869804382324,0.1647673398256302
1772648229176899000,1.297899169921875,-0.13686829805374146,-0.5842423439025879,0.23697598278522491
1772648229186940400,1.3079404296875,-0.15122751891613007,-0.6672229766845703,0.29118356108665466
1772648229196980200,1.317980224609375,-0.15022066235542297,-0.6955226063728333,0.34171169996261597
1772648229207021300,1.328021240234375,-0.1374252438545227,-0.686506986618042,0.3898765742778778
1772648229217061400,1.338061279296875,-0.13251765072345734,-0.6531522870063782,0.43273741006851196
1772648229227102200,1.348102294921875,-0.12811784446239471,-0.6172206401824951,0.46252647042274475
1772648229237142300,1.358142333984375,-0.13326723873615265,-0.5865776538848877,0.4518045485019684
1772648229247183400,1.368183349609375,-0.1628216803073883,-0.5643796920776367,0.386609822511673
1772648229257223400,1.378223388671875,-0.18000608682632446,-0.528043270111084,0.2916451692581177
1772648229267264300,1.38826416015625,-0.1603040248155594,-0.461967796087265,0.21276818215847015
1772648229277304300,1.39830419921875,-0.16325600445270538,-0.39431118965148926,0.16902999579906464
1772648229287345400,1.408345458984375,-0.17020472884178162,-0.34082508087158203,0.14161649346351624
1772648229297385200,1.41838525390625,-0.16629399359226227,-0.302485853433609,0.10258395969867706
1772648229307426300,1.42842626953125,-0.15737080574035645,-0.2703857123851776,0.06558599323034286
1772648229317467100,1.438467041015625,-0.1461523026227951,-0.2422012835741043,0.03706192970275879
1772648229327507200,1.448507080078125,-0.12805984914302826,-0.2102992832660675,0.023309100419282913
1772648229337548300,1.45854833984375,-0.10430252552032471,-0.1739564836025238,0.012062983587384224
1772648229347588400,1.46858837890625,-0.08415678143501282,-0.14039212465286255,0.010451771318912506
1772648229357629200,1.478629150390625,-0.05783906206488609,-0.10514039546251297,0.0065287454053759575
1772648229367669200,1.488669189453125,-0.0034008531365543604,-0.05510412156581879,-0.0046996744349598885
1772648229377710300,1.49871044921875,-0.004094963893294334,-0.004402438178658485,0.012988265603780746
1772648229387750400,1.50875048828125,0.015698181465268135,0.03064609318971634,0.01889808475971222
1772648229397791500,1.51879150390625,0.04367655888199806,0.07277469336986542,0.03388628736138344
1772648229407831600,1.52883154296875,0.07898714393377304,0.12164263427257538,0.0647541880607605
1772648229417872400,1.538872314453125,0.10719028115272522,0.1517639011144638,0.10201624035835266
1772648229427912200,1.548912109375,0.13490954041481018,0.1647220402956009,0.13452012836933136
1772648229437953300,1.558953369140625,0.14619538187980652,0.16238106787204742,0.1509869396686554
1772648229447993300,1.568993408203125,0.16373363137245178,0.1557133048772812,0.1545979082584381
1772648229458034200,1.5790341796875,0.1927298605442047,0.146661177277565,0.1741762012243271
1772648229468074200,1.58907421875,0.2079293131828308,0.12812183797359467,0.20174631476402283
1772648229478115300,1.599115234375,0.21285420656204224,0.09651537984609604,0.21082796156406403
1772648229488155400,1.6091552734375,0.2091289758682251,0.05832085385918617,0.2109224945306778
1772648229498196500,1.619196533203125,0.20034250617027283,0.017466222867369652,0.2109173834323883
1772648229508236300,1.629236328125,0.19367821514606476,-0.017733575776219368,0.21823041141033173
1772648229518277400,1.63927734375,0.1799989640712738,-0.0445048026740551,0.2213004231452942
1772648229528318500,1.649318359375,0.16826187074184418,-0.050085991621017456,0.2051510214805603
1772648229538358300,1.659358154296875,0.15653139352798462,-0.0329376682639122,0.18124321103096008
1772648229548399000,1.669399169921875,0.14742258191108704,-0.024339385330677032,0.16114112734794617
1772648229558439200,1.679439208984375,0.1276697814464569,-0.04376376047730446,0.1361553817987442
1772648229568480300,1.689480224609375,0.09768206626176834,-0.08213458210229874,0.1035417839884758
1772648229578520300,1.699520263671875,0.06358138471841812,-0.14222894608974457,0.0680624470114708
1772648229588561400,1.7095615234375,0.03276462107896805,-0.20511017739772797,0.02513175643980503
1772648229598601200,1.719601318359375,0.01209990493953228,-0.21128946542739868,0.008218863978981972
1772648229608642300,1.729642333984375,-0.031547173857688904,-0.272762656211853,0.0483577586710453
1772648229618682400,1.739682373046875,-0.11668939888477325,-0.4383194148540497,0.0626227930188179
1772648229628723500,1.749723388671875,-0.20004715025424957,-0.5086361765861511,0.11926742643117905
1772648229638763500,1.759763427734375,-0.24352078139781952,-0.4484269618988037,0.23997379839420319
1772648229648804400,1.769804443359375,-0.22640091180801392,-0.3054386377334595,0.3158237934112549
1772648229658844200,1.77984423828125,-0.1460755467414856,-0.1135193333029747,0.4037485718727112
1772648229668885200,1.78988525390625,-0.04866829141974449,0.08328693360090256,0.4098357558250427
1772648229678925300,1.79992529296875,-0.01391491387039423,0.2081226110458374,0.32488560676574707
1772648229688966400,1.80996630859375,-0.025484485551714897,0.23997695744037628,0.21465948224067688
1772648229699006200,1.820006103515625,-0.03818138688802719,0.25387880206108093,0.16056016087532043
1772648229709047300,1.83004736328125,-0.037951819598674774,0.3232663869857788,0.13009066879749298
1772648229719087400,1.84008740234375,-0.03961486741900444,0.40713509917259216,0.08865126967430115
1772648229729128400,1.85012841796875,-0.03213245049118996,0.5061048269271851,0.05082585662603378
1772648229739168500,1.86016845703125,-0.029585231095552444,0.574414074420929,0.03133996203541756
1772648229749209300,1.870209228515625,-0.05021620914340019,0.573891282081604,0.03268033266067505
1772648229759249200,1.880249267578125,-0.09287302941083908,0.5013625621795654,0.009776957333087921
1772648229769290200,1.890290283203125,-0.15259787440299988,0.3940826952457428,-0.0251232348382473
1772648229779331300,1.900331298828125,-0.21811304986476898,0.2943746745586395,-0.06363978236913681
1772648229789371100,1.91037109375,-0.27972209453582764,0.20765230059623718,-0.09203946590423584
1772648229799412200,1.920412109375,-0.3319776952266693,0.15457282960414886,-0.11685807257890701
1772648229809452300,1.930452392578125,-0.36952558159828186,0.14498013257980347,-0.12827745079994202
1772648229819493400,1.940493408203125,-0.3864794969558716,0.17504392564296722,-0.12152010202407837
1772648229829533400,1.950533447265625,-0.3790964186191559,0.25098153948783875,-0.10924452543258667
1772648229839574300,1.96057421875,-0.343446284532547,0.3578954041004181,-0.09281112253665924
1772648229849614300,1.9706142578125,-0.27662384510040283,0.4925546646118164,-0.06308704614639282
1772648229859655400,1.980655517578125,-0.20098592340946198,0.640577495098114,-0.03386249765753746
1772648229869695500,1.990695556640625,-0.12018215656280518,0.7714992761611938,-0.01682998426258564
1772648229879736300,2.000736328125,-0.038588929921388626,0.8560007214546204,-0.0029346980154514313
1772648229889776000,2.010776123046875,0.02835415117442608,0.8936327695846558,-0.005375219043344259
1772648229899817700,2.020817626953125,0.07897631078958511,0.886776328086853,-0.019351854920387268
1772648229909857800,2.03085791015625,0.09707195311784744,0.8274144530296326,-0.053090378642082214
1772648229919898600,2.040898681640625,0.08663959056138992,0.732477605342865,-0.10381277650594711
1772648229929938700,2.050938720703125,0.05175377056002617,0.6196858286857605,-0.16276930272579193
1772648229939979800,2.060979736328125,-0.008104804903268814,0.5073869824409485,-0.21923011541366577
1772648229950019800,2.071019775390625,-0.07952093333005905,0.42167872190475464,-0.26140180230140686
1772648229960061000,2.08106103515625,-0.14558090269565582,0.37355610728263855,-0.2802731394767761
1772648229970101800,2.091101806640625,-0.19992616772651672,0.35702240467071533,-0.2832857072353363
1772648229980141800,2.101141845703125,-0.23375622928142548,0.3610881268978119,-0.27200913429260254
1772648229990183000,2.111182861328125,-0.2503945827484131,0.37705111503601074,-0.24994535744190216
1772648230000223000,2.121222900390625,-0.2457292377948761,0.40518054366111755,-0.21669776737689972
1772648230010263800,2.131263916015625,-0.22389450669288635,0.43159323930740356,-0.18893378973007202
1772648230020303600,2.1413037109375,-0.20282429456710815,0.4480573236942291,-0.16712574660778046
1772648230030344700,2.1513447265625,-0.19348086416721344,0.4381367862224579,-0.1532203108072281
1772648230040384800,2.161384765625,-0.19480100274085999,0.4080105423927307,-0.15438298881053925
1772648230050425900,2.17142578125,-0.1966998428106308,0.37869793176651,-0.15629006922245026
1772648230060466000,2.1814658203125,-0.1979351043701172,0.3663645088672638,-0.1454515904188156
1772648230070506800,2.1915068359375,-0.20297540724277496,0.36246004700660706,-0.12405815720558167
1772648230080546800,2.201546875,-0.21162843704223633,0.35954371094703674,-0.1036708727478981
1772648230090588000,2.211587890625,-0.22154125571250916,0.35414519906044006,-0.07446584850549698
1772648230100628000,2.2216279296875,-0.21977700293064117,0.3508208394050598,-0.04618854820728302
1772648230110668800,2.231668701171875,-0.20953688025474548,0.3481843173503876,-0.028251629322767258
1772648230120708600,2.24170849609375,-0.19155797362327576,0.34942781925201416,-0.029370300471782684
1772648230130749700,2.251749755859375,-0.17171236872673035,0.3561996817588806,-0.04389091953635216
1772648230140789800,2.261789794921875,-0.15740659832954407,0.3464127779006958,-0.07185153663158417
1772648230150830800,2.271830810546875,-0.14962004125118256,0.29883965849876404,-0.11029133200645447
1772648230160871000,2.281870849609375,-0.14418460428714752,0.21754610538482666,-0.14652664959430695
1772648230170911700,2.291911865234375,-0.13203579187393188,0.1433483064174652,-0.17964652180671692
1772648230180952800,2.301952880859375,-0.12119469046592712,0.07077956199645996,-0.20232979953289032
1772648230190993000,2.311992919921875,-0.11173593997955322,0.003918771166354418,-0.21096962690353394
1772648230201033700,2.32203369140625,-0.11136328428983688,-0.04155711084604263,-0.2006806582212448
1772648230211073800,2.33207373046875,-0.11690212786197662,-0.06113693490624428,-0.17434386909008026
1772648230221115000,2.342114990234375,-0.1145409345626831,-0.048104628920555115,-0.14407934248447418
1772648230231155000,2.352155029296875,-0.11537636816501617,-0.018751533702015877,-0.11827224493026733
1772648230241196000,2.362196044921875,-0.11308206617832184,0.026869794353842735,-0.10028208792209625
1772648230251235800,2.37223583984375,-0.10704175382852554,0.0846279039978981,-0.0821765884757042
1772648230261276700,2.382276611328125,-0.0868440791964531,0.16035573184490204,-0.08131269365549088
1772648230271316700,2.392316650390625,-0.06605145335197449,0.2413264811038971,-0.08794156461954117
1772648230281357800,2.40235791015625,-0.04892429709434509,0.3199301064014435,-0.09617641568183899
1772648230291398000,2.41239794921875,-0.040629882365465164,0.3987109363079071,-0.09939485043287277
1772648230301438700,2.422438720703125,-0.034340113401412964,0.4736682176589966,-0.08855316042900085
1772648230311478800,2.432478759765625,-0.033511869609355927,0.5308843851089478,-0.07196246832609177
1772648230321519900,2.442519775390625,-0.03602048009634018,0.5607239603996277,-0.053611014038324356
1772648230331560000,2.452559814453125,-0.0989387258887291,0.6285213828086853,-0.042602572590112686
1772648230341600800,2.462600830078125,-0.09557721763849258,0.5956396460533142,-0.07279794663190842
1772648230351640600,2.472640625,0.03252642601728439,0.5117157101631165,-0.08802137523889542
1772648230361681700,2.482681640625,0.04975683614611626,0.44401583075523376,-0.07221108675003052
1772648230371721700,2.4927216796875,0.08370121568441391,0.36362218856811523,-0.09382423758506775
1772648230381762800,2.5027626953125,0.14654843509197235,0.25931137800216675,-0.12815643846988678
1772648230391803000,2.512802978515625,0.224692240357399,0.14931271970272064,-0.15649273991584778
1772648230401843700,2.52284375,0.310970664024353,0.04148048534989357,-0.19130101799964905
1772648230411884800,2.532884765625,0.38211461901664734,-0.05870657041668892,-0.221845343708992
1772648230421924900,2.5429248046875,0.4153652489185333,-0.1567068099975586,-0.23242346942424774
1772648230431966000,2.552966064453125,0.4185165464878082,-0.2481648176908493,-0.22208961844444275
1772648230442005800,2.563005859375,0.4113190174102783,-0.30930274724960327,-0.1947486251592636
1772648230452046800,2.573046875,0.3944401741027832,-0.3428729474544525,-0.13021889328956604
1772648230462087000,2.5830869140625,0.37204858660697937,-0.37586408853530884,-0.03656364232301712
1772648230472128000,2.5931279296875,0.36190593242645264,-0.4018237590789795,0.06417308747768402
1772648230482167800,2.603167724609375,0.3599652051925659,-0.41771891713142395,0.15381397306919098
1772648230492208600,2.613208740234375,0.3605481684207916,-0.420256644487381,0.22005371749401093
1772648230502248700,2.623248779296875,0.35639870166778564,-0.3951353132724762,0.26810967922210693
1772648230512289800,2.633289794921875,0.34491515159606934,-0.33210572600364685,0.29596954584121704
1772648230522329900,2.643329833984375,0.3276757001876831,-0.23455195128917694,0.30376026034355164
1772648230532370700,2.65337060546875,0.3086700737476349,-0.09299349039793015,0.2859077453613281
1772648230542410800,2.66341064453125,0.2830018997192383,0.06121120974421501,0.25834426283836365
1772648230552451800,2.673451904296875,0.26389583945274353,0.1913985013961792,0.21894359588623047
1772648230562492000,2.683491943359375,0.2588484585285187,0.27140504121780396,0.1755942702293396
1772648230572533000,2.693532958984375,0.2469952404499054,0.2865496277809143,0.14235375821590424
1772648230582572800,2.70357275390625,0.23065751791000366,0.23327530920505524,0.1136951595544815
1772648230592613600,2.713613525390625,0.20166422426700592,0.12811213731765747,0.09475874900817871
1772648230602654700,2.72365478515625,0.156368225812912,-0.03400026634335518,0.10037879645824432
1772648230612694800,2.73369482421875,0.10379556566476822,-0.2198263257741928,0.13316231966018677
1772648230622735600,2.743735595703125,0.06399285048246384,-0.40693289041519165,0.18875007331371307
1772648230632775700,2.753775634765625,0.03458143025636673,-0.5504676699638367,0.2556779682636261
1772648230642816800,2.763816650390625,0.030818887054920197,-0.6499742865562439,0.3177970051765442
1772648230652856800,2.77385693359375,0.03462747484445572,-0.7285817265510559,0.36031782627105713
1772648230662898000,2.78389794921875,0.055855460464954376,-0.7701923847198486,0.39140409231185913
1772648230672938000,2.79393798828125,0.0772227942943573,-0.7806980013847351,0.4064136743545532
1772648230682978800,2.803978759765625,0.09659509360790253,-0.7538092136383057,0.390709787607193
1772648230693019000,2.814018798828125,0.09916504472494125,-0.7304890155792236,0.36503612995147705
1772648230703060000,2.82406005859375,0.09029912203550339,-0.7048316597938538,0.31886768341064453
1772648230713099800,2.834099853515625,0.083659328520298,-0.6832696199417114,0.2677517533302307
1772648230723140600,2.844140625,0.07723131030797958,-0.6632569432258606,0.22446313500404358
1772648230733180700,2.8541806640625,0.07755035907030106,-0.6458094716072083,0.19514624774456024
1772648230743221800,2.8642216796875,0.08535043150186539,-0.6469245553016663,0.18614648282527924
1772648230753261800,2.87426171875,0.08414029330015182,-0.6609434485435486,0.17864596843719482
1772648230763303000,2.884302978515625,0.06990579515695572,-0.6800698041915894,0.1757161170244217
1772648230773342700,2.8943427734375,0.055275723338127136,-0.6864126324653625,0.18094657361507416
1772648230783383800,2.9043837890625,0.041014306247234344,-0.6947037577629089,0.1776559203863144
1772648230793425000,2.9144248046875,0.042647093534469604,-0.6939767003059387,0.16643255949020386
1772648230803465000,2.92446484375,0.059907007962465286,-0.6747450828552246,0.16178685426712036
1772648230813505800,2.934505859375,0.08156649768352509,-0.6307653188705444,0.15393903851509094
1772648230823545600,2.944545654296875,0.10644516348838806,-0.5704262852668762,0.13471639156341553
1772648230833587000,2.9545869140625,0.12626440823078156,-0.5100303292274475,0.10637184232473373
1772648230843626800,2.964626708984375,0.13586826622486115,-0.45488259196281433,0.07451823353767395
1772648230853667800,2.974667724609375,0.14410462975502014,-0.40443113446235657,0.03601159155368805
1772648230863708000,2.9847080078125,0.1494736522436142,-0.3503146767616272,-0.004859531298279762
1772648230873748700,2.994748779296875,0.14972850680351257,-0.29797983169555664,-0.04352836310863495
1772648230883788800,3.004788818359375,0.1403641551733017,-0.2602332830429077,-0.07390639930963516
1772648230893828900,3.014828857421875,0.11404572427272797,-0.23675060272216797,-0.09274160116910934
1772648230903869000,3.024868896484375,0.09181062877178192,-0.20982520282268524,-0.08443904668092728
1772648230913910000,3.034909912109375,0.07504602521657944,-0.17793038487434387,-0.053676605224609375
1772648230923950000,3.0449501953125,0.07800240814685822,-0.13516820967197418,-0.005185835063457489
1772648230933991000,3.054990966796875,0.09688182175159454,-0.09546847641468048,0.05812442675232887
1772648230944031000,3.065031005859375,0.12408992648124695,-0.06763609498739243,0.10817556828260422
1772648230954072000,3.075072021484375,0.14604529738426208,-0.060291893780231476,0.12154090404510498
1772648230964112100,3.085112060546875,0.15846121311187744,-0.06186678633093834,0.0956205204129219
1772648230974153000,3.095153076171875,0.1663697361946106,-0.08340216428041458,0.04957686737179756
1772648230984194000,3.105194091796875,0.16862979531288147,-0.11146032810211182,0.0034247965086251497
1772648230994234000,3.115234130859375,0.16271570324897766,-0.14803777635097504,-0.028366422280669212
1772648231004275200,3.125275146484375,0.14430446922779083,-0.18836581707000732,-0.05040188506245613
1772648231014315000,3.13531494140625,0.11227408796548843,-0.2274988442659378,-0.06300289183855057
1772648231024355800,3.14535595703125,0.08024150133132935,-0.2504786550998688,-0.06834587454795837
1772648231034396000,3.15539599609375,0.055073030292987823,-0.2494182139635086,-0.08103583753108978
1772648231044437000,3.16543701171875,0.03425687551498413,-0.22933009266853333,-0.11270612478256226
1772648231054477000,3.17547705078125,0.019173264503479004,-0.19759613275527954,-0.15288390219211578
1772648231064518000,3.185517822265625,0.009160934947431087,-0.17307762801647186,-0.19864314794540405
1772648231074558000,3.195557861328125,0.000004454632289707661,-0.1504703164100647,-0.24119088053703308
1772648231084599000,3.20559912109375,-0.024480735883116722,-0.1637011170387268,-0.26547372341156006
1772648231094639000,3.21563916015625,-0.07234998792409897,-0.25440943241119385,-0.2719625234603882
1772648231104680000,3.225679931640625,-0.09753655642271042,-0.24457032978534698,-0.20518648624420166
1772648231114719700,3.2357197265625,-0.10898788273334503,-0.1362752914428711,-0.0918724462389946
1772648231124760800,3.2457607421875,-0.12014157325029373,-0.06068785488605499,0.007438346743583679
1772648231134801000,3.25580078125,-0.11479686945676804,-0.003608325030654669,0.11270938068628311
1772648231144842000,3.265842041015625,-0.061572086066007614,0.07856383174657822,0.250415176153183
1772648231154882000,3.275882080078125,-0.007253454066812992,0.19231195747852325,0.3459123969078064
1772648231164923000,3.2859228515625,0.02174421027302742,0.2753094434738159,0.3689362406730652
1772648231174964000,3.2959638671875,0.04600241407752037,0.2869628965854645,0.3684520721435547
1772648231185004000,3.306004150390625,0.050009652972221375,0.23763050138950348,0.3682963252067566
1772648231195045000,3.316045166015625,0.05034174770116806,0.21036985516548157,0.331172376871109
1772648231205085000,3.3260849609375,0.04197916015982628,0.22122585773468018,0.26209938526153564
1772648231215126000,3.3361259765625,0.013447650708258152,0.22194091975688934,0.20832617580890656
1772648231225166000,3.346166015625,-0.038614485412836075,0.21276898682117462,0.15195824205875397
1772648231235207200,3.356207275390625,-0.10462412983179092,0.18907670676708221,0.11053916811943054
1772648231245247000,3.3662470703125,-0.16731904447078705,0.14558812975883484,0.062146492302417755
1772648231255287800,3.376287841796875,-0.24063773453235626,0.09866056591272354,0.010150667279958725
1772648231265327900,3.386327880859375,-0.3113619387149811,0.05218825489282608,-0.03758662939071655
1772648231275369000,3.396368896484375,-0.3749321401119232,0.017417490482330322,-0.06620363146066666
1772648231285409000,3.406408935546875,-0.4239659905433655,0.014609452337026596,-0.08528810739517212
1772648231295449900,3.416449951171875,-0.4428192973136902,0.04633409157395363,-0.10388043522834778
1772648231305490000,3.426489990234375,-0.4512932300567627,0.10727158188819885,-0.12486890703439713
1772648231315531000,3.436531005859375,-0.43656566739082336,0.18853048980236053,-0.14527083933353424
1772648231325571000,3.446571044921875,-0.4012472927570343,0.2909230887889862,-0.15537044405937195
1772648231335612200,3.456612060546875,-0.3526754677295685,0.39622047543525696,-0.15547750890254974
1772648231345653000,3.466653076171875,-0.28066956996917725,0.5154622197151184,-0.15044796466827393
1772648231355692800,3.47669287109375,-0.2010144144296646,0.6313528418540955,-0.1419716477394104
1772648231365734000,3.48673388671875,-0.1341899186372757,0.721575915813446,-0.1342349797487259
1772648231375774000,3.49677392578125,-0.08498348295688629,0.7628908753395081,-0.12369951605796814
1772648231385814800,3.506814697265625,-0.05470477417111397,0.7600083351135254,-0.12099525332450867
1772648231395854800,3.516854736328125,-0.04375145956873894,0.7151716351509094,-0.12745343148708344
1772648231405896000,3.52689599609375,-0.04156684875488281,0.6458118557929993,-0.13781031966209412
1772648231415936000,3.53693603515625,-0.04854566231369972,0.5657668113708496,-0.14873941242694855
1772648231425977000,3.54697705078125,-0.07701725512742996,0.4771527647972107,-0.17537681758403778
1772648231436017200,3.55701708984375,-0.12423297762870789,0.4176870286464691,-0.21848300099372864
1772648231446058000,3.56705810546875,-0.17580083012580872,0.390093594789505,-0.25879135727882385
1772648231456098000,3.57709814453125,-0.2152310609817505,0.3960556089878082,-0.2784857153892517
1772648231466139100,3.58713916015625,-0.24349813163280487,0.41494056582450867,-0.27604299783706665
1772648231476179000,3.597178955078125,-0.25936976075172424,0.44082754850387573,-0.2580741047859192
1772648231486219800,3.6072197265625,-0.2653483748435974,0.466921329498291,-0.23856987059116364
1772648231496259800,3.617259765625,-0.2720116078853607,0.4850497245788574,-0.22411848604679108
1772648231506301000,3.627301025390625,-0.2882581055164337,0.48981499671936035,-0.21168231964111328
1772648231516341000,3.637341064453125,-0.31268757581710815,0.4928576648235321,-0.21726296842098236
1772648231526382000,3.647382080078125,-0.34140756726264954,0.5139444470405579,-0.21234500408172607
1772648231536423000,3.6574228515625,-0.37325602769851685,0.5468055009841919,-0.19661131501197815
1772648231546463000,3.667462890625,-0.40382394194602966,0.5485602617263794,-0.1887296438217163
1772648231556504000,3.677504150390625,-0.42801451683044434,0.5340383052825928,-0.1877908855676651
1772648231566544100,3.687544189453125,-0.4487420320510864,0.4969485402107239,-0.18797555565834045
1772648231576585000,3.6975849609375,-0.4528704583644867,0.4412781000137329,-0.1782323718070984
1772648231586624800,3.707624755859375,-0.4421125054359436,0.3930386006832123,-0.1739962249994278
1772648231596666000,3.717666015625,-0.4171411097049713,0.3542003929615021,-0.16976100206375122
1772648231606706000,3.727705810546875,-0.3838333189487457,0.32635223865509033,-0.1710902452468872
1772648231616747000,3.7377470703125,-0.350343257188797,0.3065550923347473,-0.16665154695510864
1772648231626787000,3.747787109375,-0.31835034489631653,0.297157347202301,-0.1550355851650238
1772648231636828000,3.757827880859375,-0.290364533662796,0.2812047600746155,-0.1462934911251068
1772648231646868000,3.767867919921875,-0.2623749077320099,0.2718411386013031,-0.14655178785324097
1772648231656909000,3.777908935546875,-0.2301730066537857,0.2679899334907532,-0.15066903829574585
1772648231666949000,3.78794921875,-0.20864683389663696,0.2526390850543976,-0.1628328114748001
1772648231676990000,3.797989990234375,-0.191961869597435,0.21318860352039337,-0.16225330531597137
1772648231687030000,3.808030029296875,-0.17814414203166962,0.17470937967300415,-0.1546977311372757
1772648231697071000,3.818071044921875,-0.1657729595899582,0.15090258419513702,-0.14402298629283905
1772648231707112200,3.8281123046875,-0.146793395280838,0.14181210100650787,-0.13027198612689972
1772648231717152000,3.838152099609375,-0.1321510672569275,0.1562110185623169,-0.10920664668083191
1772648231727192800,3.84819287109375,-0.11749489605426788,0.19891460239887238,-0.09515347331762314
1772648231737233000,3.85823291015625,-0.11113233864307404,0.2703634798526764,-0.08002352714538574
1772648231747274000,3.86827392578125,-0.11715421080589294,0.33371907472610474,-0.06889969110488892
1772648231757314000,3.87831396484375,-0.13007614016532898,0.39293017983436584,-0.06386364996433258
1772648231767355000,3.88835498046875,-0.14443250000476837,0.4494202435016632,-0.07198870182037354
1772648231777395000,3.89839501953125,-0.15966685116291046,0.5030680298805237,-0.0760369747877121
1772648231787436000,3.90843603515625,-0.17286993563175201,0.5227225422859192,-0.07702046632766724
1772648231797476000,3.91847607421875,-0.1938047856092453,0.5112370848655701,-0.08524137735366821
1772648231807517000,3.928516845703125,-0.2192261517047882,0.48122304677963257,-0.09744150936603546
1772648231817557000,3.938556884765625,-0.24853263795375824,0.44457289576530457,-0.11300688982009888
1772648231827598000,3.94859814453125,-0.27737483382225037,0.4062592685222626,-0.134287029504776
1772648231837638000,3.958637939453125,-0.2973698675632477,0.3746368885040283,-0.1649053990840912
1772648231847679000,3.968678955078125,-0.2684325873851776,0.3757041096687317,-0.21597617864608765
1772648231857719000,3.978718994140625,-0.2818586528301239,0.3672355115413666,-0.24251537024974823
1772648231867759900,3.988759765625,-0.15562976896762848,0.20775996148586273,-0.2683872580528259
1772648231877800000,3.998800048828125,-0.06061990186572075,0.1356000155210495,-0.25819292664527893
1772648231887841000,4.008841064453125,0.04160072281956673,0.07440311461687088,-0.2391919493675232
1772648231897882000,4.018882080078125,0.17030569911003113,0.009165527299046516,-0.21288897097110748
1772648231907922000,4.028921875,0.26999297738075256,-0.06618674844503403,-0.1701105237007141
1772648231917963000,4.038962890625,0.3326651453971863,-0.0996008962392807,-0.132906973361969
1772648231928003000,4.049003173828125,0.35245561599731445,-0.11654676496982574,-0.09810058772563934
1772648231938044200,4.059044189453125,0.3252253234386444,-0.14788497984409332,-0.054545383900403976
1772648231948084200,4.069084228515625,0.27167749404907227,-0.1910134255886078,0.0024390509352087975
1772648231958125000,4.079125,0.2191743403673172,-0.2352738380432129,0.06122113764286041
1772648231968165000,4.0891650390625,0.177104651927948,-0.3096690773963928,0.1236523985862732
1772648231978206200,4.099206298828125,0.14465510845184326,-0.40067169070243835,0.1872721165418625
1772648231988246300,4.109246337890625,0.1264549046754837,-0.4742475152015686,0.2314208745956421
1772648231998287000,4.119287109375,0.1308203637599945,-0.47648003697395325,0.24693964421749115
1772648232008327000,4.129326904296875,0.14562192559242249,-0.41697487235069275,0.2520691454410553
1772648232018368000,4.139367919921875,0.15820643305778503,-0.33928221464157104,0.25491392612457275
1772648232028408000,4.149407958984375,0.16578233242034912,-0.27329689264297485,0.24921618402004242
1772648232038449200,4.15944921875,0.1684364378452301,-0.21912872791290283,0.21451438963413239
1772648232048489200,4.1694892578125,0.17086577415466309,-0.17313283681869507,0.15721552073955536
1772648232058530000,4.179530029296875,0.15887729823589325,-0.1591067910194397,0.09949443489313126
1772648232068571100,4.189571044921875,0.1339048147201538,-0.18939442932605743,0.06154419109225273
1772648232078611200,4.199611083984375,0.10106991231441498,-0.2376442551612854,0.04793703556060791
1772648232088652000,4.209652099609375,0.06770085543394089,-0.28857937455177307,0.06277710944414139
1772648232098692000,4.219692138671875,0.04413694143295288,-0.3381844758987427,0.10587292164564133
1772648232108733200,4.229733154296875,0.028123123571276665,-0.3791898488998413,0.18333958089351654
1772648232118773200,4.239773193359375,0.012129243463277817,-0.41674840450286865,0.2734457552433014
1772648232128814300,4.249814453125,-0.000019760685972869396,-0.4575873613357544,0.35383301973342896
1772648232138854100,4.259854248046875,0.004110002890229225,-0.48820945620536804,0.4310127794742584
1772648232148895000,4.26989501953125,0.005232674069702625,-0.4905199408531189,0.45989781618118286
1772648232158935000,4.27993505859375,0.0113717932254076,-0.47953227162361145,0.45742055773735046
1772648232168976100,4.28997607421875,0.023028207942843437,-0.45988285541534424,0.46831488609313965
1772648232179016200,4.30001611328125,0.034980740398168564,-0.4318206012248993,0.46554574370384216
1772648232189057000,4.31005712890625,0.02877831645309925,-0.4018946588039398,0.4363307058811188
1772648232199097000,4.32009716796875,0.02317609079182148,-0.3668394684791565,0.39119410514831543
1772648232209138200,4.33013818359375,0.03422117978334427,-0.3025190234184265,0.3499371111392975
1772648232219178200,4.34017822265625,0.027230912819504738,-0.24842169880867004,0.3167349398136139
1772648232229219000,4.350218994140625,0.01678919419646263,-0.20448525249958038,0.2875761091709137
1772648232239260200,4.36026025390625,-0.008356105536222458,-0.196090966463089,0.26197221875190735
1772648232249300000,4.370300048828125,-0.02987496927380562,-0.210966095328331,0.21845220029354095
1772648232259341000,4.380341064453125,-0.03616322576999664,-0.21824131906032562,0.16902045905590057
1772648232269381000,4.390381103515625,-0.03222207725048065,-0.2199319303035736,0.13402804732322693
1772648232279422000,4.400421875,-0.03830020874738693,-0.22471444308757782,0.09992040693759918
1772648232289462000,4.4104619140625,-0.03499799221754074,-0.2256830930709839,0.06084383651614189
1772648232299503000,4.420503173828125,-0.025044428184628487,-0.21522751450538635,0.027474960312247276
1772648232309543200,4.430543212890625,-0.019748032093048096,-0.19997549057006836,-0.003770221257582307
1772648232319584300,4.440584228515625,-0.025110306218266487,-0.17802439630031586,-0.026329059153795242
1772648232329624000,4.4506240234375,-0.03181295841932297,-0.14916910231113434,-0.03140178322792053
1772648232339665200,4.4606650390625,-0.03445081785321236,-0.1264965534210205,-0.027799056842923164
1772648232349705200,4.470705322265625,-0.03057343140244484,-0.12436404079198837,-0.02787764184176922
1772648232359746300,4.480746337890625,-0.013044239021837711,-0.14783447980880737,-0.028466200456023216
1772648232369786000,4.4907861328125,0.023243723437190056,-0.17037616670131683,-0.01772577315568924
1772648232379827000,4.500826904296875,0.09048055112361908,-0.15092922747135162,0.015236170962452888
1772648232389868000,4.510867919921875,0.16471020877361298,-0.11075246334075928,0.057330481708049774
1772648232399908000,4.520908203125,0.22269362211227417,-0.0975077673792839,0.10388307273387909
1772648232409949200,4.53094921875,0.2769903242588043,-0.10083118826150894,0.13774250447750092
1772648232419989000,4.540989013671875,0.3191867768764496,-0.10272469371557236,0.15450389683246613
1772648232430030000,4.551030029296875,0.3574806749820709,-0.089885413646698,0.15217791497707367
1772648232440070100,4.561070068359375,0.38452932238578796,-0.10734669119119644,0.12170017510652542
1772648232450111200,4.571111328125,0.3826054632663727,-0.1663130819797516,0.06898023933172226
1772648232460151300,4.5811513671875,0.35184621810913086,-0.2591295540332794,0.0014560555573552847
1772648232470192000,4.591192138671875,0.2998885214328766,-0.35923224687576294,-0.07234596461057663
1772648232480232000,4.60123193359375,0.2406720370054245,-0.42079228162765503,-0.12881696224212646
1772648232490273000,4.61127294921875,0.1855585277080536,-0.4299280345439911,-0.1604335606098175
1772648232500313000,4.62131298828125,0.13292567431926727,-0.40361762046813965,-0.17571531236171722
1772648232510354000,4.63135400390625,0.09845656156539917,-0.3493339717388153,-0.17658428847789764
1772648232520394000,4.64139404296875,0.07665379345417023,-0.28959181904792786,-0.1663881093263626
1772648232530435000,4.65143505859375,0.07467585057020187,-0.22937306761741638,-0.1425260603427887
1772648232540475100,4.66147509765625,0.06915777921676636,-0.2052011489868164,-0.09092330932617188
1772648232550516200,4.67151611328125,0.025435585528612137,-0.28408846259117126,-0.06991872936487198
1772648232560557000,4.68155712890625,-0.0028141620568931103,-0.2789224684238434,-0.015440568327903748
1772648232570597000,4.69159716796875,-0.014758680015802383,-0.18205496668815613,0.1376173198223114
1772648232580638200,4.70163818359375,-0.04318579286336899,-0.11219839006662369,0.2706531286239624
1772648232590678300,4.71167822265625,-0.045754410326480865,-0.02016630955040455,0.37321823835372925
1772648232600719000,4.721718994140625,-0.008641395717859268,0.0974106565117836,0.46115821599960327
1772648232610759000,4.731759033203125,0.038513943552970886,0.17786650359630585,0.536673367023468
1772648232620800000,4.741800048828125,0.06465154141187668,0.20162776112556458,0.5112018585205078
1772648232630840000,4.751840087890625,0.06751001626253128,0.19854937493801117,0.44576600193977356
1772648232640881200,4.761881103515625,0.058400675654411316,0.2033558487892151,0.3944820463657379
1772648232650921200,4.771921142578125,0.03749191761016846,0.23350350558757782,0.34960150718688965
1772648232660962000,4.781962158203125,0.028857681900262833,0.3051081895828247,0.24000497162342072
1772648232671002000,4.792002197265625,0.03055988997220993,0.38774603605270386,0.12620991468429565
1772648232681043200,4.802043212890625,0.021801020950078964,0.42832276225090027,0.0639963448047638
1772648232691083300,4.812083251953125,-0.007040587719529867,0.38857829570770264,0.0451759397983551
1772648232701124000,4.8221240234375,-0.032074037939310074,0.2947508692741394,0.01620553992688656
1772648232711165200,4.832165283203125,-0.06882884353399277,0.15581105649471283,-0.01763814501464367
1772648232721205000,4.842205078125,-0.11512896418571472,-0.002412669826298952,-0.05019715428352356
1772648232731246000,4.85224609375,-0.1532682627439499,-0.14834675192832947,-0.0631842091679573
1772648232741286100,4.8622861328125,-0.17786920070648193,-0.24810238182544708,-0.07523474842309952
1772648232751327000,4.872326904296875,-0.18168659508228302,-0.2873975336551666,-0.09692090004682541
1772648232761367000,4.882366943359375,-0.16548551619052887,-0.25414636731147766,-0.1200171634554863
1772648232771408100,4.892408203125,-0.12825585901737213,-0.17500057816505432,-0.14535537362098694
1772648232781448200,4.9024482421875,-0.08170539885759354,-0.05297533795237541,-0.17259925603866577
1772648232791489000,4.912489013671875,-0.02323346585035324,0.09477131068706512,-0.1880972534418106
1772648232801529000,4.922529052734375,0.04821355268359184,0.23779185116291046,-0.20003965497016907
1772648232811570200,4.932570068359375,0.12592998147010803,0.3495088219642639,-0.23068749904632568
1772648232821610200,4.9426103515625,0.1817018985748291,0.3881736695766449,-0.26661059260368347
1772648232831651300,4.9526513671875,0.22893892228603363,0.37794744968414307,-0.2961898446083069
1772648232841691100,4.962691162109375,0.25575533509254456,0.33377519249916077,-0.31589725613594055
1772648232851732000,4.97273193359375,0.26880884170532227,0.2725379467010498,-0.32224276661872864
1772648232861773000,4.98277294921875,0.2612648904323578,0.19773134589195251,-0.3222385048866272
1772648232871813000,4.992813232421875,0.2311074435710907,0.11829184740781784,-0.32689613103866577
1772648232881854000,5.00285400390625,0.1870635449886322,0.0455569252371788,-0.33876052498817444
1772648232891894000,5.01289404296875,0.13815903663635254,-0.0047005414962768555,-0.353341281414032
1772648232901935600,5.022935546875,0.08737655729055405,-0.0194667037576437,-0.35530349612236023
1772648232911975700,5.0329755859375,0.04919038712978363,0.003306951140984893,-0.3415057361125946
1772648232922016500,5.0430166015625,0.016897961497306824,0.05603327974677086,-0.31762251257896423
1772648232932056600,5.053056640625,-0.013945357874035835,0.12594647705554962,-0.293785959482193
1772648232942097700,5.06309765625,-0.034761425107717514,0.20594251155853271,-0.2744463384151459
1772648232952137700,5.0731376953125,-0.04700244218111038,0.29738131165504456,-0.2538926601409912
1772648232962178800,5.0831787109375,-0.06606162339448929,0.39193445444107056,-0.23886738717556
1772648232972218600,5.093218505859375,-0.09336579591035843,0.4701310694217682,-0.22727371752262115
1772648232982259500,5.103259521484375,-0.1306481808423996,0.5333327054977417,-0.21909062564373016
1772648232992299500,5.113299560546875,-0.17394737899303436,0.5686156153678894,-0.2149331122636795
1772648233002340600,5.123340576171875,-0.21286414563655853,0.5882201790809631,-0.21101346611976624
1772648233012380700,5.133380615234375,-0.23688887059688568,0.5970935821533203,-0.18835514783859253
1772648233022421500,5.14342138671875,-0.24942225217819214,0.5843114852905273,-0.159107506275177
1772648233032462600,5.153462646484375,-0.2502082288265228,0.5656347870826721,-0.12643733620643616
1772648233042502700,5.163502685546875,-0.24651546776294708,0.5303018689155579,-0.09988641738891602
1772648233052543700,5.173543701171875,-0.23876747488975525,0.48872217535972595,-0.07819432020187378
1772648233062583800,5.183583740234375,-0.23070555925369263,0.44901442527770996,-0.0648241862654686
1772648233072624600,5.193624755859375,-0.21926885843276978,0.4128612279891968,-0.052745454013347626
1772648233082664400,5.20366455078125,-0.21592259407043457,0.3924022912979126,-0.042082156985998154
1772648233092705500,5.21370556640625,-0.21472381055355072,0.38510242104530334,-0.03699660673737526
1772648233102745600,5.22374560546875,-0.21160311996936798,0.3913147747516632,-0.037262123078107834
1772648233112786400,5.233786376953125,-0.20319606363773346,0.39613083004951477,-0.03266284614801407
1772648233122826500,5.243826416015625,-0.18421012163162231,0.4193733036518097,-0.032939545810222626
1772648233132867600,5.25386767578125,-0.1626492589712143,0.4615404009819031,-0.04311895743012428
1772648233142907600,5.26390771484375,-0.13423731923103333,0.49933385848999023,-0.05629467964172363
1772648233152948700,5.27394873046875,-0.10633748769760132,0.5130297541618347,-0.06966011971235275
1772648233162988500,5.283988525390625,-0.09182805567979813,0.48646074533462524,-0.08692645281553268
1772648233173029600,5.294029541015625,-0.08197998255491257,0.41924726963043213,-0.10144831240177155
1772648233183070700,5.30407080078125,-0.07856234908103943,0.3400281071662903,-0.11590581387281418
1772648233201895700,5.322895751953125,-0.08971723914146423,0.22737239301204681,-0.11063411831855774
1772648233211936800,5.332936767578125,-0.1088094413280487,0.20476828515529633,-0.08929473906755447
1772648233221976600,5.3429765625,-0.12799212336540222,0.2190207690000534,-0.05944838747382164
1772648233232017400,5.353017333984375,-0.13990044593811035,0.24289892613887787,-0.037022706121206284
1772648233242057500,5.363057373046875,-0.13989484310150146,0.27284660935401917,-0.02651190757751465
1772648233252098600,5.3730986328125,-0.10310886055231094,0.31750407814979553,-0.051453474909067154
1772648233262139600,5.3831396484375,-0.06842520087957382,0.33310529589653015,-0.057635605335235596
1772648233272179700,5.3931796875,-0.03868807479739189,0.2947171628475189,-0.05278519168496132
1772648233282220500,5.403220458984375,0.11541431397199631,0.16981437802314758,-0.06765289604663849
1772648233292260600,5.413260498046875,0.21865469217300415,0.0744127556681633,-0.0709027498960495
1772648233302301700,5.4233017578125,0.35027673840522766,-0.03894084319472313,-0.1451629251241684
1772648233312341800,5.433341796875,0.47532734274864197,-0.18627198040485382,-0.22272136807441711
1772648233322382600,5.443382568359375,0.5448470711708069,-0.3703944683074951,-0.27426350116729736
1772648233332422400,5.45342236328125,0.5592880845069885,-0.5256945490837097,-0.30762597918510437
1772648233342463500,5.46346337890625,0.540366530418396,-0.6118793487548828,-0.2979840338230133
1772648233352503600,5.473503662109375,0.5013115406036377,-0.6316197514533997,-0.21340762078762054
1772648233362544600,5.483544677734375,0.44337424635887146,-0.5962862372398376,-0.06354425102472305
1772648233372584700,5.493584716796875,0.4064604341983795,-0.49877995252609253,0.10536061972379684
1772648233382625500,5.50362548828125,0.39419323205947876,-0.3779543340206146,0.27297165989875793
1772648233392665600,5.51366552734375,0.37502166628837585,-0.2659929096698761,0.41403183341026306
1772648233402706700,5.523706787109375,0.34461507201194763,-0.15687011182308197,0.5148901343345642
1772648233412747500,5.53374755859375,0.3002289831638336,-0.009394903667271137,0.5618925094604492
1772648233422787600,5.54378759765625,0.25161319971084595,0.18505576252937317,0.5655175447463989
1772648233432828700,5.55382861328125,0.20687445998191833,0.3980676531791687,0.5512826442718506
1772648233442868700,5.56386865234375,0.1723828911781311,0.5925353765487671,0.5294219851493835
1772648233452909800,5.573909912109375,0.13515456020832062,0.7336059212684631,0.4620645046234131
1772648233462949600,5.58394970703125,0.0841498076915741,0.8129628896713257,0.34937363862991333
1772648233472990500,5.593990478515625,0.028115034103393555,0.8282978534698486,0.21243123710155487
1772648233483030500,5.604030517578125,-0.020571820437908173,0.752081036567688,0.11924650520086288
1772648233493071600,5.614071533203125,-0.06222046539187431,0.5706390738487244,0.09592786431312561
1772648233503111700,5.624111572265625,-0.09852414578199387,0.3385334014892578,0.10244035720825195
1772648233513152500,5.634152587890625,-0.12178286164999008,0.07649808377027512,0.15804024040699005
1772648233523192600,5.644192626953125,-0.13734398782253265,-0.16718116402626038,0.21970336139202118
1772648233533233700,5.654233642578125,-0.1285390555858612,-0.3887239396572113,0.28715193271636963
1772648233543273700,5.664273681640625,-0.09706182032823563,-0.5769259333610535,0.36908602714538574
1772648233553314600,5.674314453125,-0.06733321398496628,-0.7444297075271606,0.4302588403224945
1772648233563355600,5.684355712890625,-0.03639126196503639,-0.8711422681808472,0.4746789038181305
1772648233573395500,5.6943955078125,-0.013232414610683918,-0.9332708716392517,0.4920256733894348
1772648233583436500,5.7044365234375,-0.004078488796949387,-0.9454457759857178,0.4755637049674988
1772648233593476600,5.7144765625,-0.0023165412712842226,-0.9171635508537292,0.4295338988304138
1772648233603517400,5.724517333984375,0.0038213999941945076,-0.871186375617981,0.376338392496109
1772648233613557500,5.7345576171875,0.003048550570383668,-0.8214010000228882,0.3253633677959442
1772648233623598600,5.7445986328125,-0.01485278457403183,-0.7874053120613098,0.26006007194519043
1772648233633638700,5.754638671875,-0.02266756445169449,-0.7578277587890625,0.20066305994987488
1772648233643679700,5.7646796875,-0.02526962384581566,-0.7389723062515259,0.16271039843559265
1772648233653719600,5.774719482421875,0.0006671685259789228,-0.7139981985092163,0.15223857760429382
1772648233663760600,5.7847607421875,0.027522539719939232,-0.6917959451675415,0.1609344780445099
1772648233673800700,5.79480078125,0.04813993349671364,-0.6712499260902405,0.17335918545722961
1772648233683841800,5.804841796875,0.07575321942567825,-0.6429030895233154,0.1760079711675644
1772648233693882600,5.814882568359375,0.109860859811306,-0.6013697385787964,0.17206116020679474
1772648233703922400,5.82492236328125,0.15755236148834229,-0.5628125071525574,0.15089750289916992
1772648233713963500,5.834963623046875,0.17277392745018005,-0.5558571219444275,0.12041603773832321
1772648233724003600,5.845003662109375,0.198947474360466,-0.5331169962882996,0.07101175934076309
1772648233734044700,5.855044677734375,0.22694236040115356,-0.49279695749282837,0.026753753423690796
1772648233744084500,5.86508447265625,0.23870845139026642,-0.4510892331600189,0.009399868547916412
1772648233754125600,5.87512548828125,0.24757224321365356,-0.412005752325058,0.008679749444127083
1772648233764165600,5.88516552734375,0.24812328815460205,-0.39259639382362366,0.027046769857406616
1772648233774206700,5.895206787109375,0.24666334688663483,-0.3787634074687958,0.03758542984724045
1772648233784246800,5.905246826171875,0.2494298219680786,-0.3362523317337036,0.04039682820439339
1772648233794287600,5.91528759765625,0.25072038173675537,-0.28023940324783325,0.042620301246643066
1772648233804327400,5.925327392578125,0.24379964172840118,-0.23309509456157684,0.05020874738693237
1772648233814368500,5.935368408203125,0.24222570657730103,-0.1794515699148178,0.06277700513601303
1772648233824408600,5.94540869140625,0.2435537576675415,-0.12409445643424988,0.06434858590364456
1772648233834449400,5.955449462890625,0.23634164035320282,-0.07978425174951553,0.055001430213451385
1772648233844490500,5.965490478515625,0.22454382479190826,-0.06365930289030075,0.045034248381853104
1772648233854530600,5.975530517578125,0.20185263454914093,-0.1002599224448204,0.043814517557621
1772648233864571600,5.985571533203125,0.16651177406311035,-0.16637080907821655,0.05266487970948219
1772648233874611700,5.99561181640625,0.14858630299568176,-0.2168464958667755,0.06328503042459488
1772648233884652500,6.005652587890625,0.14443790912628174,-0.23462875187397003,0.07732950896024704
1772648233894692600,6.015692626953125,0.14776712656021118,-0.23257757723331451,0.09040509909391403
1772648233904734000,6.02573388671875,0.17391261458396912,-0.19794386625289917,0.092445969581604
1772648233914773800,6.035773681640625,0.20612487196922302,-0.14561861753463745,0.08297017961740494
1772648233924814600,6.045814697265625,0.2067745178937912,-0.13058027625083923,0.06503493338823318
1772648233934854700,6.055854736328125,0.150992751121521,-0.21541447937488556,0.06123433634638786
1772648233944895700,6.065895751953125,0.0816047191619873,-0.30632922053337097,0.08513365685939789
1772648233954935800,6.075935791015625,0.028287174180150032,-0.31007149815559387,0.1567188948392868
1772648233964977000,6.085976806640625,-0.024376431480050087,-0.2654512822628021,0.2525270879268646
1772648233975017000,6.096016845703125,-0.06596515327692032,-0.1859777569770813,0.334157794713974
1772648233985057800,6.106057861328125,-0.07841940224170685,-0.09234324097633362,0.3929862976074219
1772648233995099000,6.116098876953125,-0.05344534292817116,-0.004285821225494146,0.4120153784751892
1772648234005139000,6.126138916015625,-0.0414619967341423,0.0744815394282341,0.39083316922187805
1772648234015179800,6.1361796875,-0.0404643751680851,0.14167150855064392,0.384968101978302
1772648234025219800,6.1462197265625,-0.034340716898441315,0.23428989946842194,0.36776161193847656
1772648234035261000,6.156260986328125,-0.03491409495472908,0.3357589840888977,0.32850876450538635
1772648234045300700,6.16630078125,-0.039283543825149536,0.42485398054122925,0.2931302785873413
1772648234055341800,6.176341796875,-0.018316209316253662,0.5207216739654541,0.2432902753353119
1772648234065382000,6.1863818359375,-0.002278224565088749,0.5911627411842346,0.18160879611968994
1772648234075422700,6.196422607421875,0.003872079774737358,0.6011165380477905,0.11011943221092224
1772648234085462800,6.206462890625,-0.021136755123734474,0.5558665990829468,0.037193238735198975
1772648234095504000,6.21650390625,-0.06675377488136292,0.4714929163455963,-0.04131035879254341
1772648234105544000,6.2265439453125,-0.10997626930475235,0.3503810167312622,-0.12263989448547363
1772648234115584800,6.236584716796875,-0.16075581312179565,0.19452831149101257,-0.16466404497623444
1772648234125624800,6.246624755859375,-0.21269606053829193,0.07135552167892456,-0.17369946837425232
1772648234135666000,6.256666015625,-0.24143530428409576,0.007939531467854977,-0.1775149703025818
1772648234145707000,6.26670703125,-0.2552137076854706,-0.011748697608709335,-0.21087954938411713
1772648234155746800,6.276746826171875,-0.25023677945137024,0.028327615931630135,-0.24729560315608978
1772648234165787600,6.28678759765625,-0.2208934873342514,0.04930415749549866,-0.2429930716753006
1772648234175827700,6.29682763671875,-0.1753166764974594,0.05746248736977577,-0.2066079080104828
1772648234185868800,6.306868896484375,-0.10020545870065689,0.07792773097753525,-0.19463863968849182
1772648234195908900,6.316908935546875,-0.02703644335269928,0.09506464004516602,-0.21368849277496338
1772648234205949700,6.32694970703125,0.036377061158418655,0.10671975463628769,-0.2517542541027069
1772648234215989800,6.33698974609375,0.08103614300489426,0.09622716158628464,-0.2714850902557373
1772648234226030800,6.34703076171875,0.08737202733755112,0.07475540041923523,-0.29011011123657227
1772648234236071000,6.35707080078125,0.06501825153827667,0.031471844762563705,-0.31300291419029236
1772648234246111700,6.36711181640625,0.02304573357105255,-0.004691616632044315,-0.35983484983444214
1772648234256151800,6.37715185546875,-0.04507233574986458,-0.010603834874927998,-0.43744897842407227
1772648234266193000,6.38719287109375,-0.1185302659869194,0.015567341819405556,-0.5085771083831787
1772648234276234000,6.39723388671875,-0.1786244958639145,0.03465075418353081,-0.5425987243652344
1772648234286273800,6.407273681640625,-0.2155444175004959,0.05076383799314499,-0.5573368072509766
1772648234296314600,6.417314697265625,-0.22794489562511444,0.08243894577026367,-0.5498040318489075
1772648234306354700,6.427354736328125,-0.2191522866487503,0.13561151921749115,-0.5285499095916748
1772648234316395800,6.437395751953125,-0.20108486711978912,0.20652511715888977,-0.5066629648208618
1772648234326435800,6.447435791015625,-0.1854613572359085,0.2806263864040375,-0.48414677381515503
1772648234336477000,6.457476806640625,-0.17823567986488342,0.3348968029022217,-0.44120171666145325
1772648234346516700,6.467516845703125,-0.17926950752735138,0.3657425343990326,-0.4047219753265381
1772648234356557800,6.477557861328125,-0.188227578997612,0.37806418538093567,-0.3762644827365875
1772648234366598000,6.487597900390625,-0.1951301246881485,0.37031835317611694,-0.3548608422279358
1772648234376639000,6.497638916015625,-0.1951064169406891,0.34725937247276306,-0.3463115394115448
1772648234386678800,6.5076787109375,-0.19490544497966766,0.3225051760673523,-0.34037721157073975
1772648234396719600,6.5177197265625,-0.19616565108299255,0.2904479205608368,-0.3379838168621063
1772648234406759700,6.527759765625,-0.20675987005233765,0.2467731535434723,-0.34043437242507935
1772648234416800800,6.53780078125,-0.2294795662164688,0.19333496689796448,-0.3388332724571228
1772648234426841900,6.547841796875,-0.2567983865737915,0.1522611826658249,-0.3405592739582062
1772648234436881700,6.557881591796875,-0.27925974130630493,0.1450682431459427,-0.3406229317188263
1772648234446922800,6.5679228515625,-0.2970453202724457,0.15750037133693695,-0.3277581036090851
1772648234456962800,6.577962890625,-0.31291934847831726,0.18003231287002563,-0.306167334318161
1772648234467004000,6.58800390625,-0.3153132498264313,0.21131516993045807,-0.28280210494995117
1772648234477044000,6.5980439453125,-0.30873578786849976,0.23888474702835083,-0.26035377383232117
1772648234487084800,6.608084716796875,-0.29610610008239746,0.2703893780708313,-0.24473600089550018
1772648234497124900,6.618124755859375,-0.285936564207077,0.2965453267097473,-0.2307775616645813
1772648234507166000,6.628166015625,-0.28141698241233826,0.2993304133415222,-0.21722692251205444
1772648234517205800,6.638205810546875,-0.27540090680122375,0.29114893078804016,-0.193257138133049
1772648234527246600,6.64824658203125,-0.26435473561286926,0.28077441453933716,-0.16039711236953735
1772648234537286700,6.65828662109375,-0.25386321544647217,0.27464649081230164,-0.12673449516296387
1772648234547327700,6.66832763671875,-0.23669525980949402,0.2832087576389313,-0.09081004559993744
1772648234557367800,6.678367919921875,-0.22210060060024261,0.28690335154533386,-0.06609431654214859
1772648234567409000,6.688408935546875,-0.2114647924900055,0.2728171944618225,-0.0547068789601326
1772648234577449700,6.69844970703125,-0.19872157275676727,0.23907975852489471,-0.041631825268268585
1772648234587489800,6.70848974609375,-0.19076476991176605,0.20630119740962982,-0.0184519961476326
1772648234597531000,6.71853076171875,-0.18424561619758606,0.17528335750102997,0.0019925604574382305
1772648234607571000,6.728571044921875,-0.18497759103775024,0.14949384331703186,0.012482801452279091
1772648234617611800,6.73861181640625,-0.1911926120519638,0.1178368553519249,0.005534614436328411
1772648234627651800,6.74865185546875,-0.1991657018661499,0.10789908468723297,-0.0038052413146942854
1772648234637693000,6.75869287109375,-0.2038523405790329,0.10971376299858093,-0.00955527275800705
1772648234647732700,6.768732666015625,-0.2127683311700821,0.12028837949037552,-0.01942761056125164
1772648234657773800,6.77877392578125,-0.22441619634628296,0.13701090216636658,-0.03201344609260559
1772648234667814000,6.78881396484375,-0.2355751395225525,0.13905923068523407,-0.049662280827760696
1772648234677854700,6.798854736328125,-0.24286527931690216,0.13761445879936218,-0.07451143860816956
1772648234687894800,6.808894775390625,-0.2539805769920349,0.14527161419391632,-0.09912505000829697
1772648234697936000,6.818935791015625,-0.26568570733070374,0.18413299322128296,-0.11896852403879166
1772648234707976000,6.828975830078125,-0.2818613648414612,0.2432822287082672,-0.13051554560661316
1772648234718016800,6.839016845703125,-0.30058178305625916,0.2976895570755005,-0.1318734884262085
1772648234728056800,6.849056884765625,-0.31552568078041077,0.3451685905456543,-0.13066469132900238
1772648234738098000,6.859097900390625,-0.3243327736854553,0.38296815752983093,-0.12629897892475128
1772648234748139000,6.869138916015625,-0.2910524308681488,0.44628897309303284,-0.1299320012331009
1772648234758178800,6.8791787109375,-0.23551325500011444,0.48871365189552307,-0.13580800592899323
1772648234768219600,6.8892197265625,-0.1750485599040985,0.4820394515991211,-0.13301968574523926
1772648234778259700,6.899259765625,-0.10039056092500687,0.47472721338272095,-0.1281391680240631
1772648234788300800,6.90930078125,-0.012857628054916859,0.43461933732032776,-0.121101975440979
1772648234798340900,6.9193408203125,0.061573728919029236,0.34944480657577515,-0.1200215294957161
1772648234808381700,6.929381591796875,0.12026647478342056,0.2353731244802475,-0.11016248911619186
1772648234818421800,6.939421875,0.15401698648929596,0.10649291425943375,-0.08974536508321762
1772648234828462800,6.949462890625,0.17777030169963837,0.010025369934737682,-0.0784091204404831
1772648234838503000,6.9595029296875,0.1984121948480606,-0.03630830720067024,-0.06691784411668777
1772648234848544000,6.9695439453125,0.19727112352848053,-0.07118548452854156,-0.0384603887796402
1772648234858583800,6.979583740234375,0.185482919216156,-0.09859100729227066,0.006933191791176796
1772648234868625000,6.989625,0.16778922080993652,-0.13815398514270782,0.09603691101074219
1772648234878666000,6.999666015625,0.14994125068187714,-0.19854195415973663,0.218997985124588
1772648234888705800,7.009705810546875,0.1529158055782318,-0.23957154154777527,0.34342560172080994
1772648234898746400,7.019746337890625,0.18536002933979034,-0.23376449942588806,0.4410986304283142
1772648234908786400,7.029786376953125,0.2257276177406311,-0.18572212755680084,0.5231677889823914
1772648234918827500,7.03982763671875,0.27027538418769836,-0.1085599735379219,0.5891923904418945
1772648234928867300,7.049867431640625,0.3056905269622803,-0.04160843417048454,0.6170562505722046
1772648234938908400,7.059908447265625,0.33973610401153564,-0.001635451102629304,0.6146658062934875
1772648234948948500,7.069948486328125,0.36552563309669495,0.027031775563955307,0.5862584710121155
1772648234958989300,7.0799892578125,0.3738616108894348,0.030389489606022835,0.5347079634666443
1772648234969029400,7.090029296875,0.3712165355682373,-0.012562550604343414,0.4698599874973297
1772648234979070500,7.100070556640625,0.36855924129486084,-0.08164574950933456,0.40211743116378784
1772648234989110500,7.110110595703125,0.36235252022743225,-0.15168949961662292,0.3373327851295471
1772648234999151400,7.1201513671875,0.3459434509277344,-0.21054348349571228,0.2863641381263733
1772648235009192400,7.1301923828125,0.319389671087265,-0.26139363646507263,0.24242660403251648
1772648235019232500,7.140232421875,0.2822529375553131,-0.3184795379638672,0.2031194120645523
1772648235029273600,7.150273681640625,0.2396208792924881,-0.3908207416534424,0.17674531042575836
1772648235039313700,7.160313720703125,0.19887079298496246,-0.4716343581676483,0.16319169104099274
1772648235049354500,7.1703544921875,0.16647733747959137,-0.5557818412780762,0.1689143031835556
1772648235059394300,7.180394287109375,0.14451664686203003,-0.6208385825157166,0.18680302798748016
1772648235069435400,7.190435302734375,0.12820406258106232,-0.6700247526168823,0.21198272705078125
1772648235079475500,7.200475341796875,0.11723265051841736,-0.696942150592804,0.23983007669448853
1772648235089516300,7.210516357421875,0.11307316273450851,-0.715411901473999,0.2674555778503418
1772648235099556400,7.220556396484375,0.10537076741456985,-0.7213736176490784,0.30007797479629517
1772648235109597400,7.230597412109375,0.09918200224637985,-0.7273831367492676,0.31515979766845703
1772648235119637500,7.240637451171875,0.09435688704252243,-0.7418161630630493,0.31897664070129395
1772648235129678600,7.2506787109375,0.09822415560483932,-0.7611158490180969,0.31476515531539917
1772648235139718700,7.26071875,0.10933992266654968,-0.7723717093467712,0.30909264087677
1772648235149759500,7.270759521484375,0.120725117623806,-0.7687088251113892,0.30881616473197937
1772648235159800600,7.280800537109375,0.1246921643614769,-0.7656243443489075,0.313586950302124
1772648235169840400,7.29084033203125,0.1289938986301422,-0.7483892440795898,0.30108627676963806
1772648235179881200,7.300881103515625,0.13560999929904938,-0.7437976598739624,0.2895824611186981
1772648235189921300,7.31092138671875,0.139862522482872,-0.749988853931427,0.2781088948249817
1772648235199962400,7.32096240234375,0.13460783660411835,-0.7914779782295227,0.2688504159450531
1772648235210002400,7.33100244140625,0.1232956051826477,-0.8574987053871155,0.26219871640205383
1772648235220043500,7.34104345703125,0.11603929102420807,-0.8598412275314331,0.2290215641260147
1772648235230083600,7.35108349609375,0.12094056606292725,-0.77476567029953,0.20071984827518463
1772648235240124400,7.36112451171875,0.1309812068939209,-0.6795041561126709,0.18977773189544678
1772648235250164500,7.37116455078125,0.1255210041999817,-0.6250064373016357,0.1644635945558548
1772648235260205600,7.38120556640625,0.11320068687200546,-0.5705482959747314,0.1176055371761322
1772648235270245600,7.39124560546875,0.11715994030237198,-0.49316146969795227,0.06390581279993057
1772648235280286500,7.401286376953125,0.1123710423707962,-0.4123973846435547,0.025135785341262817
1772648235290326300,7.411326171875,0.13083714246749878,-0.3608033061027527,0.0036074891686439514
1772648235300367400,7.421367431640625,0.14792904257774353,-0.3149482011795044,0.0038519673980772495
1772648235310408400,7.431408447265625,0.1703607589006424,-0.28138303756713867,0.016605468466877937
1772648235320448500,7.441448486328125,0.19434252381324768,-0.26696574687957764,0.03600925952196121
1772648235330489300,7.4514892578125,0.21778260171413422,-0.25815269351005554,0.06827948242425919
1772648235340529400,7.461529296875,0.2162078619003296,-0.27943694591522217,0.10706629604101181
1772648235350570500,7.471570556640625,0.21620391309261322,-0.26640722155570984,0.12345033138990402
1772648235360610600,7.481610595703125,0.2464691400527954,-0.21980297565460205,0.1518944948911667
1772648235370651400,7.4916513671875,0.2662201523780823,-0.1711883246898651,0.17670083045959473
1772648235380691500,7.50169140625,0.2941244840621948,-0.12109452486038208,0.19808655977249146
1772648235390732500,7.511732666015625,0.3195604681968689,-0.10072751343250275,0.21343152225017548
1772648235400772400,7.5217724609375,0.34080156683921814,-0.11655307561159134,0.2194358855485916
1772648235410813400,7.5318134765625,0.35233134031295776,-0.17503781616687775,0.20537179708480835
1772648235420853500,7.541853515625,0.3428446352481842,-0.2553712725639343,0.1664574146270752
1772648235430894300,7.551894287109375,0.31873515248298645,-0.3132498264312744,0.12626913189888
1772648235440934400,7.561934326171875,0.28819429874420166,-0.3314562737941742,0.10052914172410965
1772648235450975500,7.5719755859375,0.24688856303691864,-0.3312944173812866,0.08067606389522552
1772648235461016300,7.582016357421875,0.2057320773601532,-0.3016190826892853,0.05391902104020119
1772648235471056400,7.592056396484375,0.17891962826251984,-0.2513521611690521,0.02426578663289547
1772648235481097500,7.602097412109375,0.16408182680606842,-0.21300345659255981,0.0020446362905204296
1772648235491137500,7.612137451171875,0.14966045320034027,-0.21366626024246216,-0.0245937779545784
1772648235501178600,7.6221787109375,0.12244055420160294,-0.26771271228790283,-0.06141464039683342
1772648235511218400,7.632218505859375,0.10267475247383118,-0.29125964641571045,-0.06489543616771698
1772648235521259500,7.642259521484375,0.08984124660491943,-0.2727583944797516,-0.025581587105989456
1772648235531299300,7.65229931640625,0.09958814084529877,-0.194893479347229,0.047524649649858475
1772648235541340400,7.66234033203125,0.09516675770282745,-0.13180772960186005,0.12086118012666702
1772648235551380500,7.67238037109375,0.0713505670428276,-0.11340809613466263,0.19254286587238312
1772648235561421300,7.68242138671875,0.053773701190948486,-0.09135472774505615,0.24437198042869568
1772648235571461400,7.69246142578125,0.05578385293483734,-0.01988629810512066,0.24698683619499207
1772648235581502500,7.70250244140625,0.053708452731370926,0.07852496206760406,0.22438378632068634
1772648235591543600,7.71254345703125,0.04480019211769104,0.18002356588840485,0.1976640671491623
1772648235601583400,7.722583251953125,0.03101939894258976,0.27519136667251587,0.1810121238231659
1772648235611624400,7.73262451171875,0.017558254301548004,0.35662585496902466,0.17867015302181244
1772648235621664500,7.74266455078125,0.0213756300508976,0.44478660821914673,0.1526164412498474
1772648235631705600,7.75270556640625,0.02490057796239853,0.518419623374939,0.12141108512878418
1772648235641745400,7.762745361328125,0.01623518578708172,0.5440165996551514,0.07534398883581161
1772648235651786200,7.7727861328125,-0.0036017997190356255,0.5240626335144043,0.027290992438793182
1772648235661826300,7.782826416015625,-0.03122011199593544,0.4736681878566742,-0.02668888494372368
1772648235671867400,7.792867431640625,-0.058375123888254166,0.3887723386287689,-0.07546199858188629
1772648235681907500,7.802907470703125,-0.08626534789800644,0.2632732689380646,-0.1120423823595047
1772648235691948300,7.8129482421875,-0.1107480451464653,0.13533322513103485,-0.1318499743938446
1772648235701988400,7.82298828125,-0.13105705380439758,0.013020360842347145,-0.1599375307559967
1772648235712029400,7.833029541015625,-0.14190100133419037,-0.06750617921352386,-0.1799749732017517
1772648235722070500,7.843070556640625,-0.13834887742996216,-0.10288973152637482,-0.1987350732088089
1772648235732110600,7.853110595703125,-0.12046780437231064,-0.10277868807315826,-0.20858679711818695
1772648235742151400,7.8631513671875,-0.09135359525680542,-0.07568555325269699,-0.22668829560279846
1772648235752191500,7.87319140625,-0.06674536317586899,-0.04315269738435745,-0.2511304020881653
1772648235762232600,7.883232666015625,-0.03541221097111702,0.0032206608448177576,-0.26807716488838196
1772648235772272400,7.8932724609375,-0.006685290485620499,0.05127320811152458,-0.27488061785697937
1772648235782313500,7.9033134765625,0.014290031976997852,0.11551211029291153,-0.26513025164604187
1772648235792353300,7.913353271484375,0.031323064118623734,0.1834198385477066,-0.2693825662136078
1772648235802394400,7.923394287109375,0.029212510213255882,0.24610371887683868,-0.2884425222873688
1772648235812434400,7.933434326171875,0.0034101163037121296,0.28249862790107727,-0.30625107884407043
1772648235822475500,7.9434755859375,-0.03108154982328415,0.30012503266334534,-0.31965503096580505
1772648235832515600,7.953515625,-0.06887917965650558,0.30168259143829346,-0.3355315327644348
1772648235842556400,7.963556396484375,-0.10088318586349487,0.29514774680137634,-0.34990009665489197
1772648235852596500,7.973596435546875,-0.11964257061481476,0.2744865119457245,-0.35544446110725403
1772648235862637600,7.983637451171875,-0.13125741481781006,0.2612844407558441,-0.35603487491607666
1772648235872678400,7.993678466796875,-0.1345842331647873,0.2582568824291229,-0.3515031933784485
1772648235882718200,8.00371826171875,-0.13494855165481567,0.255367636680603,-0.34048277139663696
1772648235892759300,8.01375927734375,-0.1365577131509781,0.25500455498695374,-0.33058035373687744
1772648235902799000,8.023799072265625,-0.13953779637813568,0.2568187117576599,-0.3217293322086334
1772648235912840200,8.033840087890624,-0.1417299509048462,0.2666689455509186,-0.3075025677680969
1772648235922880300,8.04388037109375,-0.14373132586479187,0.2900105118751526,-0.2922314703464508
1772648235932921000,8.053921142578124,-0.1491154432296753,0.3146020472049713,-0.287286639213562
1772648235942961200,8.063961181640625,-0.16100725531578064,0.32805711030960083,-0.2819776237010956
1772648235953002200,8.074002197265624,-0.17034898698329926,0.31679201126098633,-0.2742629647254944
1772648235963042300,8.084042236328125,-0.18089191615581512,0.2858562171459198,-0.2638247013092041
1772648235973083100,8.094083251953125,-0.18780554831027985,0.24223250150680542,-0.2555348873138428
1772648235983123200,8.104123291015625,-0.1941036581993103,0.19578245282173157,-0.24085316061973572
1772648235993164300,8.114164306640625,-0.19254866242408752,0.15183798968791962,-0.21293796598911285
1772648236003204000,8.1242041015625,-0.19198407232761383,0.11892158538103104,-0.1911378651857376
1772648236013245200,8.1342451171875,-0.19377298653125763,0.08117906749248505,-0.17674073576927185
1772648236023286000,8.1442861328125,-0.19461481273174286,0.048430174589157104,-0.1620989292860031
1772648236033326000,8.154326171875,-0.19185642898082733,0.03515413776040077,-0.1564451903104782
1772648236043367200,8.1643671875,-0.19117625057697296,0.04026767238974571,-0.15774081647396088
1772648236053407200,8.1744072265625,-0.18953147530555725,0.04473704844713211,-0.1609707623720169
1772648236063448000,8.184447998046876,-0.19460932910442352,0.024923397228121758,-0.1745600700378418
1772648236073488100,8.194488037109375,-0.20285561680793762,0.0039254454895854,-0.18077200651168823
1772648236083529200,8.204529296875,-0.2084820717573166,-0.009383702650666237,-0.186786487698555
1772648236093569300,8.2145693359375,-0.20743846893310547,-0.008699956350028515,-0.18072828650474548
1772648236103610400,8.2246103515625,-0.20390471816062927,-0.002312897238880396,-0.17090867459774017
1772648236113650200,8.234650146484375,-0.19800645112991333,0.024232307448983192,-0.16261738538742065
1772648236123691000,8.24469091796875,-0.19391663372516632,0.061064090579748154,-0.1641356647014618
1772648236133731000,8.25473095703125,-0.19113405048847198,0.106745146214962,-0.16742205619812012
1772648236143772200,8.264772216796874,-0.18691295385360718,0.17150789499282837,-0.17035287618637085
1772648236153813200,8.274813232421875,-0.18005281686782837,0.24494706094264984,-0.1696612685918808
1772648236163853000,8.28485302734375,-0.17868156731128693,0.33752572536468506,-0.16832782328128815
1772648236173894100,8.29489404296875,-0.2244822382926941,0.47225067019462585,-0.15810851752758026
1772648236183934200,8.304934326171875,-0.21822914481163025,0.5077791213989258,-0.1501094549894333
1772648236193975300,8.314975341796876,-0.1634821891784668,0.5303020477294922,-0.12681923806667328
1772648236204015400,8.325015380859375,-0.16098786890506744,0.5791595578193665,-0.0999591276049614
1772648236214056200,8.33505615234375,-0.1776951402425766,0.619263768196106,-0.08951322734355927
1772648236224096300,8.34509619140625,-0.2001325488090515,0.6518195867538452,-0.07765790075063705
1772648236234137300,8.355137451171874,-0.1692737638950348,0.6277655363082886,-0.07969283312559128
1772648236244177200,8.36517724609375,-0.10882506519556046,0.5796324014663696,-0.09509975463151932
1772648236254218000,8.375218017578124,-0.06659514456987381,0.4986792504787445,-0.10818427801132202
1772648236264258000,8.385258056640625,-0.011750273406505585,0.39253872632980347,-0.1196899265050888
1772648236274299100,8.395299072265624,0.05206437408924103,0.28613850474357605,-0.1002672016620636
1772648236284339200,8.405339111328125,0.11141984164714813,0.16593937575817108,-0.07452881336212158
1772648236294380300,8.41538037109375,0.16151650249958038,0.046616725623607635,-0.06320945918560028
1772648236304421000,8.425421142578125,0.21070881187915802,-0.041601814329624176,-0.05878248065710068
1772648236314461200,8.435461181640624,0.2647291123867035,-0.0867515578866005,-0.04943929240107536
1772648236324502300,8.445502197265625,0.3031497299671173,-0.11664900183677673,-0.029836829751729965
1772648236334542300,8.455542236328125,0.32458558678627014,-0.14247778058052063,0.0018810960464179516
1772648236344583200,8.465583251953126,0.34823817014694214,-0.1583116054534912,0.04070279747247696
1772648236354623000,8.475623046875,0.37844958901405334,-0.19349713623523712,0.08888563513755798
1772648236364664000,8.4856640625,0.41027408838272095,-0.25224432349205017,0.15122410655021667
1772648236374704000,8.4957041015625,0.446215957403183,-0.29771268367767334,0.2372940331697464
1772648236384745200,8.5057451171875,0.4722827076911926,-0.3407323360443115,0.3141115605831146
1772648236394785300,8.515785400390625,0.4800310730934143,-0.3535238206386566,0.3594958484172821
1772648236404826000,8.525826171875,0.4746301770210266,-0.35604289174079895,0.3906550705432892
1772648236414866200,8.5358662109375,0.4519309997558594,-0.35630935430526733,0.42587313055992126
1772648236424907300,8.5459072265625,0.422700971364975,-0.35703134536743164,0.44975849986076355
1772648236434947300,8.555947265625,0.4008709490299225,-0.3537779450416565,0.4649476110935211
1772648236444988200,8.56598828125,0.3750617206096649,-0.3204684555530548,0.44624555110931396
1772648236455029200,8.576029296875,0.35289543867111206,-0.2757394015789032,0.38452664017677307
1772648236465069300,8.5860693359375,0.323420912027359,-0.24090741574764252,0.30192068219184875
1772648236475110400,8.5961103515625,0.2893560528755188,-0.21808522939682007,0.21209996938705444
1772648236485150200,8.606150146484374,0.25333067774772644,-0.20961052179336548,0.1293417066335678
1772648236495191000,8.61619091796875,0.21055221557617188,-0.21677039563655853,0.07319415360689163
1772648236505231000,8.626231201171874,0.14272096753120422,-0.23528096079826355,0.039523281157016754
1772648236515272200,8.636272216796876,0.08895637094974518,-0.2639809548854828,0.026115307584404945
1772648236525312300,8.646312255859375,0.05581226199865341,-0.2881363332271576,0.01965074986219406
1772648236535353000,8.65635302734375,0.03689372166991234,-0.3127530813217163,0.03825007379055023
1772648236545393200,8.66639306640625,0.022732632234692574,-0.35178303718566895,0.09150370955467224
1772648236555434200,8.676434326171876,0.018533416092395782,-0.39850541949272156,0.17244486510753632
1772648236565474300,8.686474365234375,0.01618291065096855,-0.42592504620552063,0.24139942228794098
1772648236575515400,8.696515380859376,0.019159352406859398,-0.43297645449638367,0.2864779531955719
1772648236585555200,8.70655517578125,0.026425786316394806,-0.4336118698120117,0.3095201551914215
1772648236595596000,8.716595947265626,0.020825078710913658,-0.46752846240997314,0.31218549609184265
1772648236605637000,8.72663720703125,0.020087650045752525,-0.49787625670433044,0.2989743649959564
1772648236615677200,8.73667724609375,0.012474380433559418,-0.52705317735672,0.2789122462272644
1772648236625718000,8.746718017578125,0.01029218640178442,-0.5519673228263855,0.2521067261695862
1772648236635758000,8.756758056640624,0.004277328960597515,-0.5701547265052795,0.22614771127700806
1772648236645799200,8.766799072265625,0.003165725851431489,-0.5825120806694031,0.2080819010734558
1772648236655839200,8.776839111328124,-0.0011175861582159996,-0.6426252126693726,0.21403971314430237
1772648236665880300,8.78688037109375,0.00034688611049205065,-0.6961355805397034,0.20190395414829254
1772648236675920100,8.796920166015624,0.005436253268271685,-0.6746583580970764,0.17567864060401917
1772648236685961200,8.806961181640625,-0.006837456952780485,-0.6227211356163025,0.13847163319587708
1772648236696001300,8.817001220703125,0.0019835447892546654,-0.562742292881012,0.10104988515377045
1772648236706042400,8.82704248046875,0.008339977823197842,-0.5246036648750305,0.09613262861967087
1772648236716082200,8.837082275390625,0.013880246318876743,-0.49295735359191895,0.09839027374982834
1772648236726123000,8.847123046875,0.021579178050160408,-0.44056472182273865,0.08949477970600128
1772648236736164000,8.8571640625,0.03790091723203659,-0.3847827613353729,0.06498098373413086
1772648236746204200,8.8672041015625,0.04828697815537453,-0.3268427550792694,0.035514701157808304
1772648236756245200,8.877245361328125,0.058885637670755386,-0.2768848240375519,0.01711183600127697
1772648236766285000,8.88728515625,0.053459446877241135,-0.24192547798156738,0.008855771273374557
1772648236776326100,8.897326171875,0.051786359399557114,-0.19862990081310272,-0.010096758604049683
1772648236786366200,8.9073662109375,0.054198917001485825,-0.14862824976444244,-0.015282733365893364
1772648236796407300,8.9174072265625,0.055639058351516724,-0.10585777461528778,-0.01654871180653572
1772648236806447400,8.927447265625,0.05592720955610275,-0.06514789909124374,-0.010336621664464474
1772648236816488200,8.93748828125,0.05524136871099472,-0.025281596928834915,0.019685782492160797
1772648236826528000,8.947528076171874,0.047622598707675934,0.011684144847095013,0.2545981705188751
1772648236836569000,8.957569091796875,0.026891687884926796,0.007644994184374809,0.3510001301765442
1772648236846609200,8.967609130859374,-0.0029820562340319157,0.007184267044067383,0.19448910653591156
1772648236856650200,8.977650146484375,-0.005913264118134975,0.024849681183695793,0.05346629023551941
1772648236866690000,8.98768994140625,0.009022009558975697,0.06405513733625412,-0.005765073001384735
1772648236876731100,8.997731201171876,0.027681991457939148,0.08689703047275543,-0.010116644203662872
1772648236886772200,9.007772216796875,0.03602194786071777,0.09042119234800339,0.004400512203574181
1772648236896812300,9.017812255859376,0.03742117062211037,0.08038773387670517,-0.003784713102504611
1772648236906853400,9.027853271484375,0.030806943774223328,0.06860297918319702,-0.04284529387950897
1772648236916893400,9.0378935546875,-0.003167354967445135,0.029206087812781334,-0.07044750452041626
1772648236926934500,9.0479345703125,-0.005503479856997728,-0.00833968911319971,-0.048226624727249146
1772648236936974600,9.057974609375,-0.00014492508489638567,-0.054999012500047684,0.00037227128632366657
1772648236947015400,9.068015380859375,-0.011513160541653633,-0.08951783925294876,0.0053108371794223785
1772648236957055500,9.078055419921874,-0.014673994854092598,-0.09793839603662491,-0.004331660456955433
1772648236967096600,9.0880966796875,-0.016289468854665756,-0.10171635448932648,-0.017566772177815437
1772648236977136400,9.098136474609374,-0.03445310518145561,-0.11325199156999588,-0.045274242758750916
1772648236987177500,9.108177490234375,-0.04846799001097679,-0.1096724346280098,-0.08108097314834595
1772648236997217500,9.118217529296874,-0.04999211058020592,-0.07146613299846649,-0.1122267097234726
1772648237007258400,9.12825830078125,-0.0471089705824852,-0.029917094856500626,-0.14703397452831268
1772648237017299500,9.138299560546875,-0.05172564461827278,-0.015248452313244343,-0.19178469479084015
1772648237027339500,9.148339599609375,-0.06408856809139252,-0.0294090136885643,-0.22454583644866943
1772648237037380400,9.15838037109375,-0.08031568676233292,-0.05183172971010208,-0.2230735570192337
1772648237047420400,9.16842041015625,-0.09949150681495667,-0.08856124430894852,-0.18774113059043884
1772648237057461500,9.17846142578125,-0.11949750781059265,-0.12420881539583206,-0.13044483959674835
1772648237067501600,9.18850146484375,-0.12931738793849945,-0.10613474249839783,-0.09244712442159653
1772648237077542700,9.198542724609375,-0.12629017233848572,-0.042944055050611496,-0.04855183884501457
1772648237087582500,9.20858251953125,-0.10751648247241974,0.007761466782540083,0.00196779309771955
1772648237097623600,9.21862353515625,-0.07740586996078491,0.04806613177061081,0.029895246028900146
1772648237107663400,9.228663330078126,-0.027362942695617676,0.09935514628887177,0.04681457579135895
1772648237117704400,9.238704345703125,-0.022756146267056465,0.11394798755645752,0.04645192623138428
1772648237127744500,9.24874462890625,-0.02988622710108757,0.08766791224479675,0.05478229373693466
1772648237137785300,9.258785400390625,-0.021767038851976395,0.07520250976085663,0.07775705307722092
1772648237147825400,9.268825439453124,-0.016166942194104195,0.06861145049333572,0.08812260627746582
1772648237157866500,9.278866455078125,-0.0032215346582233906,0.07192008197307587,0.0834985002875328
1772648237167907600,9.288907470703125,0.017721030861139297,0.08818480372428894,0.07917086780071259
1772648237177947600,9.29894775390625,0.030685514211654663,0.09934389591217041,0.09817273914813995
1772648237187988500,9.308988525390625,0.034480251371860504,0.08787605911493301,0.13048328459262848
1772648237198028500,9.319028564453125,0.030948461964726448,0.0853244960308075,0.14098766446113586
1772648237208069600,9.329069580078125,0.030932484194636345,0.11163466423749924,0.12522122263908386
1772648237218109400,9.339109375,0.029581889510154724,0.15285873413085938,0.09234261512756348
1772648237228150300,9.349150390625,0.01867304928600788,0.19763872027397156,0.07432153820991516
1772648237238190300,9.3591904296875,0.006671598181128502,0.2441823035478592,0.07041286677122116
1772648237248231400,9.3692314453125,-0.02709035947918892,0.3301829397678375,0.314090758562088
1772648237258271500,9.379271484375,-0.08555728942155838,0.2764034569263458,0.7269304990768433
1772648237268312600,9.3893125,-0.1288325935602188,0.31898021697998047,0.3097628355026245
1772648237278352400,9.399352294921876,-0.20001454651355743,0.19397176802158356,-0.02812330797314644
1772648237288393500,9.4093935546875,-0.17307746410369873,0.2041114866733551,-0.27073729038238525
1772648237298433500,9.41943359375,-0.1808934211730957,0.21813127398490906,-0.4201285243034363
1772648237308474600,9.429474609375,-0.21356721222400665,0.22083091735839844,-0.4582388997077942
1772648237318515500,9.439515380859374,-0.24582073092460632,0.19738982617855072,-0.3472088575363159
1772648237328555500,9.449555419921875,-0.19580231606960297,0.1856066733598709,-0.15801285207271576
1772648237338596600,9.4595966796875,-0.16569927334785461,0.2010384052991867,-0.05973397567868233
