time,seconds_elapsed,z,y,x
1772642653654296600,0.089296630859375,0.029003391644358632,-0.059710080075263974,-0.030436200926452873
1772642653664338700,0.099338623046875,0.03447831592410803,-0.05779051018953323,-0.02182750866562128
1772642653674379500,0.109379638671875,0.07824234658777714,-0.04171908083260059,-0.03743146664127707
1772642653684421400,0.11942138671875,0.06587678601145744,-0.04398585672080516,-0.03640139294117689
1772642653694463200,0.129463134765625,0.03647241235077381,-0.06592939298152924,-0.0314314955741167
1772642653704504300,0.13950439453125,0.007715688943862915,-0.07789630962908267,-0.019493074368685484
1772642653714546200,0.149546142578125,0.00010725976675748824,-0.10596505077183246,0.007572919472306966
1772642653724587300,0.159587158203125,0.006828384715318679,-0.10330255356431006,0.02119184111058712
1772642653734629000,0.169629150390625,0.0158247611194849,-0.10824760875105857,-0.010628507650643586
1772642653744670200,0.179670166015625,0.03023965544104576,-0.0636783991843462,-0.006983283016085624
1772642653754711000,0.1897109375,0.03194704388082027,-0.02947802341878414,0.014012158739566802
1772642653764753400,0.19975341796875,0.03336450946331024,-0.024783143600821494,-0.010144523525983095
1772642653774794200,0.209794189453125,0.007001403194665908,-0.02218435927927494,-0.017870441602915524
1772642653784836400,0.21983642578125,0.0012537994533777237,-0.030407413223385808,-0.009243483033031224
1772642653794877200,0.229877197265625,0.00329261180460453,-0.024518939706683156,0.02771422861665487
1772642653804918300,0.239918212890625,0.025251930156350133,-0.025772154638171195,-0.024413287375122307
1772642653814960000,0.249960205078125,0.012149287477135657,-0.014316694644093513,-0.016266513537615535
1772642653825001200,0.260001220703125,0.03816197287291288,-0.011118190863728523,-0.010955255386978387
1772642653835043000,0.27004296875,0.058259589006006716,0.009095160603523254,-0.061429012822359796
1772642653845084200,0.280084228515625,0.06569324613809585,0.010186462971568108,-0.10838190265521407
1772642653855125200,0.290125244140625,0.07375526430159807,-0.0478968926846981,-0.02516016021966934
1772642653865167000,0.3001669921875,0.03369154946058989,-0.02613222012221813,0.05476575554087758
1772642653875208200,0.310208251953125,0.04090542636215687,-0.04048340155780315,0.03624839433655143
1772642653885250300,0.320250244140625,0.05551905812621116,-0.045536008772253986,0.02554360657930374
1772642653895291400,0.33029150390625,0.051120530906319614,-0.037248657420277595,-0.005211304907500744
1772642653905332200,0.340332275390625,0.02595627903342247,-0.03421674237847328,-0.02309504438340664
1772642653915374300,0.350374267578125,0.009253566035628318,-0.0416273108959198,-0.02216755427494645
1772642653925415200,0.360415283203125,0.00882218888103962,-0.0574520720154047,-0.0028638649985194206
1772642653935457300,0.370457275390625,0.013206687575578689,-0.06083820732235908,0.010848726272583008
1772642653945498000,0.380498046875,0.0206327459231019,-0.05033201087713241,-0.0161764971666038
1772642653955540200,0.390540283203125,0.009558394201099872,-0.05024024094045162,-0.013070493975281714
1772642653965581000,0.4005810546875,-0.0009153612792491912,-0.09286766878962516,-0.0018980887062847614
1772642653975622100,0.4106220703125,-0.015747019708156586,-0.12319675607979297,0.0177386319167912
1772642653985664300,0.420664306640625,-0.00784486828148365,-0.15253858589828012,0.034086393997073174
1772642653995705000,0.430705078125,0.006741290953755378,-0.14638824657499788,0.04130348576903343
1772642654005747200,0.440747314453125,0.026582009716331956,-0.12325345470309257,0.02744622533023357
1772642654015788300,0.450788330078125,0.021772271347045898,-0.08448854750096797,-0.0003416530445218086
1772642654025829400,0.460829345703125,-0.04063654629290104,-0.07487433145940303,0.00016337386816740035
1772642654035871200,0.470871337890625,-0.059844812370836734,-0.11163958927690983,0.01967296098023653
1772642654045912300,0.480912353515625,-0.05972761573195457,-0.14473872580230235,0.03665449091941118
1772642654055954200,0.4909541015625,-0.04665215332061052,-0.15308803647458552,0.06047229661941528
1772642654065995300,0.500995361328125,-0.021901742945611476,-0.14077508286833762,0.081642510420084
1772642654076036000,0.5110361328125,0.027849253173172474,-0.06471767910420895,0.06962400971576571
1772642654086078200,0.521078125,0.07608838342428206,0.016799743631482122,-0.0022300971396267415
1772642654096119000,0.531119140625,0.03471826215982437,0.04792904138863086,-0.06522445958256722
1772642654106161200,0.5411611328125,-0.06644055737406016,0.01750701511800289,-0.05978226852864027
1772642654116202200,0.5512021484375,-0.06946984206736087,-0.04931026661396026,-0.028464170201122758
1772642654126243000,0.5612431640625,-0.01785860503464937,-0.11267185493409633,-0.012775894942879677
1772642654136285200,0.57128515625,0.012370236751437187,-0.13843115009069443,-0.002154255424439907
1772642654146326300,0.581326171875,0.06879501154571771,-0.07740823385119437,-0.02890446131452918
1772642654156368100,0.5913681640625,0.08217062594741582,-0.021113515177369115,-0.09228139333426952
1772642654166409200,0.6014091796875,0.09032675213515758,0.0430085361212492,-0.15600728492215274
1772642654176451300,0.611451416015625,0.057796939930319785,0.07299976975917816,-0.19369608732536434
1772642654186492200,0.6214921875,0.023117548476159572,0.042722704917192454,-0.23017463715597986
1772642654196533200,0.631533203125,0.010936989077925681,0.017942483925819395,-0.2396715104281902
1772642654206575000,0.6415751953125,0.029808862808346746,-0.021632570615410802,-0.22022738976776599
1772642654216616200,0.6516162109375,0.0774570414289832,-0.03520341532826424,-0.22817294194474816
1772642654226658300,0.661658203125,0.13302724522054193,-0.027210663008689878,-0.22243556733652947
1772642654236699400,0.671699462890625,0.13269991296231745,-0.013833879563212394,-0.20811083551645276
1772642654246740200,0.681740234375,0.11878098546415566,-0.026559505623579022,-0.18535744417756794
1772642654256782300,0.6917822265625,0.09381985494792461,-0.056335635206103324,-0.13980097713917494
1772642654266823200,0.7018232421875,0.04619330363720655,-0.08906535389721393,-0.12332841963544487
1772642654276865300,0.711865234375,0.027773849849402902,-0.10087328059077262,-0.11246084253191947
1772642654286906400,0.72190625,0.020243162083625792,-0.09137947605848312,-0.13267068686783312
1772642654296947200,0.731947265625,0.00104132574647665,-0.07508592838346957,-0.19019655477181077
1772642654306989300,0.7419892578125,-0.04553104033619165,-0.11477613373696803,-0.23522023010775445
1772642654317030100,0.752030029296875,-0.08669044145941734,-0.1424409702539444,-0.26330519173294303
1772642654327072300,0.762072265625,-0.08076601984649896,-0.17402093438804148,-0.21006080054044723
1772642654337113000,0.772113037109375,-0.052200142836570734,-0.20640286255478857,-0.14110343803986905
1772642654347154200,0.782154296875,-0.05164572382420301,-0.19377251356244085,-0.07995733381211757
1772642654357196300,0.7921962890625,0.006336509545147418,-0.12337737334370612,-0.025693390313535926
1772642654367237400,0.8022373046875,0.049774669255316255,-0.06279226399958134,0.0444613652780652
1772642654377279200,0.812279296875,0.057951838231086725,-0.005312719455361366,0.13591945953071116
1772642654387320300,0.8223203125,0.06551584374457597,0.024130232650041578,0.19425649768710135
1772642654397361200,0.832361083984375,0.08581804253906011,0.0380716642409563,0.2315257595039904
1772642654407403300,0.8424033203125,0.10846563541591167,0.032277883270382876,0.2501731768287718
1772642654417444400,0.8524443359375,0.07709200750887393,0.0374748673915863,0.21876813087016342
1772642654427486200,0.862486328125,0.0187505854383111,0.04526128348410129,0.18303864584118126
1772642654437527300,0.87252734375,-0.01784983720630407,0.023659692528843878,0.17092822906970978
1772642654447568100,0.882568115234375,-0.056870472735166544,-0.032171500286459924,0.17371406039595602
1772642654457610200,0.8926103515625,-0.07731295678317546,-0.09545651623904705,0.17855185581594704
1772642654467651000,0.902651123046875,-0.0402305958405137,-0.13018997596800327,0.1743963435716927
1772642654477693400,0.912693359375,-0.00015986673682928085,-0.13310147950053214,0.19113734275326133
1772642654487734300,0.922734375,-0.0040355391263961786,-0.14227613508105277,0.22044731612876056
1772642654497776400,0.9327763671875,-0.006233049170672893,-0.12159925775527954,0.24899536522105334
1772642654507817200,0.942817138671875,0.028654432076215743,-0.08506722417175769,0.26577859610915183
1772642654517858300,0.9528583984375,0.04441489578783512,-0.06142156016826629,0.25989479876756666
1772642654527900200,0.962900146484375,0.062467269828915595,-0.02709901932775974,0.26646424028575416
1772642654537941200,0.972941162109375,0.1046583520874381,0.008087444865703583,0.2730409883275628
1772642654547983000,0.982983154296875,0.12420564086139202,0.039464579904079436,0.23052973420396447
1772642654558024200,0.993024169921875,0.10053104302436112,0.037733226066827774,0.17181173390597104
1772642654568065300,1.003065185546875,0.08186784360855817,0.010539514192938804,0.10903539812788367
1772642654578107100,1.013107177734375,0.051667935656011105,-0.032737317475676535,0.04517535876631736
1772642654588148200,1.023148193359375,0.03391249873489141,-0.04053834661543369,-0.018894962345063684
1772642654598190300,1.0331904296875,0.037545302279293535,-0.02844108158648014,0.11874795997738838
1772642654608231400,1.0432314453125,0.1113207325860858,-0.06490355706512928,0.1007907168738544
1772642654618272300,1.053272216796875,0.11082651932835579,-0.09057751202583313,0.040446722809225316
1772642654628314400,1.063314453125,0.0997241105556488,-0.07943126411139964,0.048152913272380825
1772642654638355200,1.073355224609375,0.12679419604986905,-0.08633622119426727,0.33529081601351496
1772642654648397300,1.083397216796875,0.019786358226835728,-0.09288637349009514,0.5744647521831094
1772642654658438100,1.093438232421875,-0.1862760203272104,-0.15080840110480784,0.6095363578252494
1772642654668479200,1.103479248046875,-0.1369336050093174,-0.40296705266237254,0.39408743450567124
1772642654678521000,1.11352099609375,-0.19130700023174285,-0.40220542064011094,0.22733254559785127
1772642654688561700,1.123561767578125,-0.26220424475371834,-0.37915713800787926,0.08796937535405158
1772642654698603500,1.133603515625,-0.14181085565686224,-0.42334231669306754,-0.044111967318505044
1772642654708644600,1.14364453125,-0.1058195048213005,-0.3682049513608217,-0.19366788414418695
1772642654718685700,1.153685791015625,-0.21889438759833574,-0.27006080347299577,-0.2872774573422968
1772642654728727600,1.1637275390625,-0.22151099983751774,-0.06612403877079487,-0.34872385969087477
1772642654738768600,1.1737685546875,-0.21681582775861025,0.09154664931893348,-0.36751989170610905
1772642654748810500,1.183810546875,-0.19185177463293074,0.2226964102298021,-0.26963848640769716
1772642654758851600,1.1938515625,-0.13968991798013447,0.2784673972904682,-0.1791455839253962
1772642654768892400,1.203892333984375,-0.06375234120339154,0.22113632130622862,-0.1836734366133809
1772642654778934800,1.213934814453125,0.007926409085094928,0.1597597693234682,-0.17335779430419204
1772642654788975600,1.2239755859375,0.08118658334612847,0.10830722998380661,-0.15530848900303243
1772642654799017700,1.234017822265625,0.20772972724437713,0.03642974225282669,-0.17164894455969332
1772642654809058600,1.24405859375,0.3058411419063806,0.00864215613901615,-0.26402868370190263
1772642654819099600,1.254099609375,0.3350190133348107,0.044458734929561615,-0.3519860763572156
1772642654829141500,1.2641416015625,0.3039771016001701,0.07536649889051913,-0.3945123819194734
1772642654839182600,1.2741826171875,0.24881986252367494,0.02433364626765251,-0.36996596968397494
1772642654849224400,1.284224365234375,0.19093933596312998,-0.0413572617828846,-0.3051626581229269
1772642654859265500,1.294265625,0.17837036176919935,-0.06548106469213962,-0.24527429887130855
1772642654869306600,1.304306640625,0.16815496496409177,-0.03502104449868202,-0.19485884749442337
1772642654879348500,1.314348388671875,0.16869067927598952,-0.01055062010884285,-0.16764716157242654
1772642654889389600,1.3243896484375,0.14371201310306786,0.05299684617221355,-0.13148045416995882
1772642654899431700,1.334431640625,0.12459990087598562,0.09773615160882472,-0.10649711182191968
1772642654909472800,1.34447265625,0.09474076918512582,0.06308160233497619,-0.07000511798784137
1772642654919513600,1.354513671875,0.0698433515548706,0.020365327158570288,-0.05098112243562936
1772642654929555700,1.3645556640625,0.03547317218035459,-0.04280395345985889,-0.030482670416682955
1772642654939596500,1.374596435546875,-0.0018763152658939361,-0.12308861953020095,-0.01449322025477886
1772642654949638700,1.384638671875,-0.040004385869204996,-0.16269348468780517,-0.007684270892292261
1772642654959679500,1.394679443359375,-0.09901303967684506,-0.18054595224261283,0.007669803975522518
1772642654969720600,1.404720458984375,-0.09965309114605188,-0.17084113530814646,0.014822890600562095
1772642654979762400,1.414762451171875,-0.11831102986484765,-0.1367506496578455,0.06085778880566358
1772642654989803500,1.424803466796875,-0.12392770070284605,-0.08563187231719493,0.054774377238750456
1772642654999845600,1.434845703125,-0.14410948798805476,-0.040455344507098194,0.06579612199068069
1772642655009886500,1.444886474609375,-0.1260410395950079,0.04412205032110214,0.08192161962240933
1772642655019927600,1.454927490234375,-0.13690963961184024,0.07488193024396896,0.1042431954152882
1772642655029969700,1.4649697265625,-0.11036591607928276,0.05051321266293526,0.1323294722147286
1772642655040010800,1.4750107421875,-0.0936895065665245,0.010558218893408775,0.14943009848892688
1772642655050052600,1.485052490234375,-0.07836392714083194,-0.017160393637418746,0.1573044851258397
1772642655060093700,1.49509375,-0.08102817791402339,-0.02025543704330921,0.1659670995309949
1772642655070134500,1.505134521484375,-0.06691869627982377,-0.005315642064809799,0.15532076396271585
1772642655080176600,1.5151767578125,-0.04077653928548097,-0.021392332118749618,0.10954583186805247
1772642655090217500,1.525217529296875,-0.010930559337139129,0.0031926585614681243,0.08064940772950649
1772642655100259600,1.535259521484375,0.008042436680197716,0.011840075397491455,0.05414397038072347
1772642655110300400,1.545300537109375,0.014980126988887786,0.02034779150187969,0.04913213356807827
1772642655120341500,1.555341552734375,0.004322247113287448,0.022956512695550917,0.02603372818380594
1772642655130383600,1.565383544921875,0.011862871751189231,-0.004780804535746574,0.019220541037619113
1772642655140424400,1.575424560546875,0.02305880402624607,-0.039784897899627684,0.013119301553070544
1772642655150466600,1.585466552734375,0.024675007051229474,-0.05040098446011543,0.005609510444849729
1772642655160507600,1.595507568359375,0.035359774933755396,-0.06550093843638896,0.011010346575081348
1772642655170548700,1.605548828125,0.033281507354974746,-0.06044482409060001,0.014194383438676595
1772642655180590600,1.615590576171875,0.016126082153618333,-0.03911971198916435,0.0013709960922598837
1772642655190631700,1.625631591796875,-0.0063280339777469635,-0.027197803527116773,0.013223930971324443
1772642655200673500,1.635673583984375,0.02744885567873716,-0.025250761112570762,0.014860592262446879
1772642655210714600,1.645714599609375,0.07136135490238667,0.013044775012135504,0.009094283820688723
1772642655220755500,1.65575537109375,0.07520984702408313,0.05498948129415512,0.01348550451695919
1772642655230797600,1.665797607421875,0.07589841381013393,0.06818097130060195,0.023239567420631647
1772642655240838400,1.67583837890625,0.060112231135368344,0.0670154346525669,0.04261500675901771
1772642655250880800,1.685880859375,0.07263970427513122,0.03860416368246078,0.04083922925814986
1772642655260921600,1.695921630859375,0.07014496484994888,0.010320903006196022,0.053123979683220385
1772642655270962700,1.705962646484375,0.06387567532211542,-0.006430325308442115,0.05263751134052872
1772642655281004500,1.716004638671875,0.058903147606551645,-0.008552139768004417,0.02034603793621063
1772642655291045600,1.726045654296875,0.0613230682298541,0.010500351226329804,-0.02368190436065197
1772642655301087700,1.736087646484375,0.060412090864777564,0.02159749930202961,-0.06288812558948993
1772642655311128600,1.746128662109375,0.06693857002407312,0.01712181519269943,-0.07190130699798464
1772642655321169700,1.756169677734375,0.09085428314059972,0.028777766194939613,-0.08145984732955694
1772642655331211500,1.76621142578125,0.10357669433057308,0.0034942718565464017,-0.06401917544603347
1772642655341252600,1.776252685546875,0.0972951298430562,-0.013832125997543333,-0.08929346356466412
1772642655351294500,1.78629443359375,0.11496756465584039,-0.024131986215710638,-0.08791720677539706
1772642655361335600,1.79633544921875,0.10982990950644016,0.02023497877717018,-0.11525704912170767
1772642655371376600,1.806376708984375,0.07965747408270836,0.08302665825486183,-0.09827230431213975
1772642655381418800,1.816418701171875,0.05223842902034521,0.10539631097316741,-0.08719444545879959
1772642655391459600,1.82645947265625,0.05594020614773035,0.12293255218565463,-0.09247618525400757
1772642655401501700,1.836501708984375,0.0572124180406332,0.09562368949949741,-0.09215718243271112
1772642655411542500,1.84654248046875,0.09295183994174003,0.05570610513091087,-0.10090557542517781
1772642655421583600,1.85658349609375,0.12216039876937866,0.018627543580532074,-0.10743526945486664
1772642655431625700,1.866625732421875,0.14774842901229857,0.0038321255087852475,-0.1321088152013719
1772642655441666600,1.87666650390625,0.11183949576318264,-0.004230769437551498,-0.11376710282489656
1772642655451708700,1.886708740234375,0.1260512687280774,-0.07120996373295783,-0.04552811772674322
1772642655461749500,1.89674951171875,0.12617051119357348,-0.14240648346245288,0.0030653789199888704
1772642655471790600,1.90679052734375,0.15455460189580916,-0.17186580218076705,0.06899842516332864
1772642655481832400,1.91683251953125,0.199234870621562,-0.18958207613527775,0.11743863094449043
1772642655491873500,1.92687353515625,0.19384820914715528,-0.18804712165296075,0.14553411396369337
1772642655501915600,1.93691552734375,0.214514857339859,-0.14531447986364363,0.13238193305432797
1772642655511956700,1.946956787109375,0.22159137159734962,-0.05516366881728172,0.13544117449447513
1772642655521997600,1.95699755859375,0.22221067253947258,0.05624152718186378,0.16755407646149395
1772642655532039700,1.967039794921875,0.17856822242885828,0.0781388862133026,0.18908581705093383
1772642655542080800,1.977080810546875,0.14458938045948744,0.029662147814035415,0.16683628358095884
1772642655552122600,1.98712255859375,0.10979863758534192,-0.04190554331541061,0.07796206834167242
1772642655562163700,1.997163818359375,0.0981336264938116,-0.13002981697022914,-0.032524843768775465
1772642655572204500,2.00720458984375,0.06357844594120979,-0.20994564972817897,-0.07555413041710853
1772642655582246700,2.01724658203125,0.035194939760863776,-0.3068669778227806,-0.020138386534899473
1772642655592287500,2.02728759765625,0.044829321807622904,-0.40582127304971216,-0.08888196015432477
1772642655602329600,2.03732958984375,0.024384499672055242,-0.21591887891888617,-0.2144311245791614
1772642655612370400,2.047370361328125,-0.00030336686074733735,-0.14288871402144432,-0.19219503511264918
1772642655622411500,2.05741162109375,0.03297375658005476,-0.18965747945904732,-0.08700432971417904
1772642655632453600,2.06745361328125,0.032032676337659355,-0.1504495046645403,0.03339183586165309
1772642655642494700,2.07749462890625,0.04333820646703243,-0.10980302149951457,0.010183248101174831
1772642655652536600,2.08753662109375,0.02131166809797287,-0.0642751960337162,0.03295928966328501
1772642655662577700,2.09757763671875,0.05445639733076095,-0.05035831436216831,0.010421440771222115
1772642655672618800,2.10761865234375,0.043263972187042234,-0.06438683971464633,-0.028735096096992492
1772642655682660600,2.11766064453125,0.024374855060875413,-0.031817864543199535,-0.020025281549245117
1772642655692702000,2.127701904296875,0.02594955703169107,-0.0013677812218666075,-0.018910159914195538
1772642655702744000,2.137744140625,0.03840162684768438,-0.02297521739602089,0.004140460805594921
1772642655712785000,2.147784912109375,0.05302548774480819,-0.09477788632512092,-0.016163491554558276
1772642655722826000,2.157825927734375,0.06061433543860912,-0.11842939554750918,-0.07006020917594433
1772642655732868000,2.1678681640625,0.05518412708342075,-0.10960779118835925,-0.15929785090014337
1772642655742909200,2.1779091796875,0.018532851034402845,-0.04679506892263889,-0.17785905124619603
1772642655752950300,2.1879501953125,-0.019865268681943417,-0.0034592005431652068,-0.10346402773633599
1772642655762992000,2.1979921875,-0.03551730358302593,0.04358545922636985,-0.017030337516963482
1772642655773033200,2.208033203125,-0.029786358715593812,0.09633154550790786,0.03790975167751312
1772642655783075000,2.218074951171875,-0.008481120358407496,0.1107078613847494,0.0698601565591991
1772642655793116200,2.2281162109375,-0.013730711449682713,0.11672785232663153,0.08889993420243263
1772642655803157000,2.238156982421875,0.02153027928471565,0.09969488446116447,0.08965732844099401
1772642655813199000,2.24819921875,0.011545476365089416,0.05832359415292739,0.0699830522865057
1772642655823240000,2.258239990234375,0.016354922473430632,0.02301905653774738,0.046737347386032344
1772642655833282000,2.268281982421875,0.008702361893653868,-0.03460720300078392,0.022445494433492422
1772642655843323000,2.278322998046875,0.03461187917590141,-0.07559387790560722,0.010233224722743033
1772642655853364000,2.288364013671875,0.028439620281755923,-0.11825403898060322,-0.0003647416591644287
1772642655863406000,2.298406005859375,0.016380056914687156,-0.11889175236225127,-0.00402326416671276
1772642655873447200,2.308447265625,-0.0025239655196666716,-0.11752981635928153,0.013528320745378733
1772642655883489000,2.318489013671875,-0.00317453838288784,-0.08703297128677367,0.0348879196383059
1772642655893530000,2.328530029296875,-0.016018822386860847,-0.08513327514529227,0.06588175444751977
1772642655903571200,2.3385712890625,-0.04134264873564243,-0.05856091004014015,0.09672039869502186
1772642655913613000,2.348613037109375,-0.037529520188272,-0.07988309953212737,0.10111191165223717
1772642655923654100,2.358654052734375,0.005295183798670769,-0.12045885554850101,0.08412731297314166
1772642655933696000,2.368696044921875,0.012188742704689502,-0.13576865288317203,0.044168665941804644
1772642655943737000,2.378737060546875,0.009938041168451308,-0.14040274242460726,0.04923983172625303
1772642655953778000,2.38877783203125,-0.029912323182821273,-0.13040975619852543,0.07495353417545557
1772642655963820300,2.3988203125,-0.02909165444970131,-0.0980944635272026,0.09220862035900354
1772642655973861000,2.408861083984375,-0.02306932542026043,-0.05870762503445148,0.05722776174023747
1772642655983903200,2.4189033203125,-0.006119651924073695,-0.0252490075469017,0.038071518110483885
1772642655993944000,2.428944091796875,0.007115384963154793,0.006503975066542625,0.03428396239578724
1772642656003985200,2.438985107421875,0.037167993399500845,-0.0013414777368307112,-0.004006459162384271
1772642656014027000,2.449027099609375,0.04155366113781929,-0.0307563727915287,-0.01645882123932242
1772642656024068000,2.459068115234375,0.005761632266640663,-0.028489596903324126,-0.04455795752033591
1772642656034110000,2.46910986328125,-0.015215104788541793,-0.027476035946607587,-0.03268719472363591
1772642656044151000,2.479151123046875,-0.021067045687139033,-0.04487199190557003,-0.03527984156534075
1772642656054192000,2.489192138671875,-0.01687777730375528,-0.053555649098753925,-0.031634032408893106
1772642656064234000,2.49923388671875,0.02768909417539835,-0.062470192438364026,-0.02783580916970968
1772642656074275000,2.509275146484375,0.029029110607504842,-0.047637949487566944,-0.025551351494342088
1772642656084317200,2.519317138671875,0.03458703699558973,-0.035920039165019985,-0.018314970500022173
1772642656094358300,2.529358154296875,0.04403729464709759,-0.04949205292165279,-0.02310322768986225
1772642656104399000,2.539399169921875,0.025550328581035137,-0.03262216666340828,-0.03062763184532523
1772642656114441200,2.549441162109375,0.016729016482830046,-0.020134441012144087,-0.04014861664548516
1772642656124482000,2.55948193359375,-0.007084405303001404,-0.034570378121733664,-0.045915948000550266
1772642656134524200,2.569524169921875,-0.022770050212740898,-0.03598725918233395,-0.04665887532234192
1772642656144565000,2.57956494140625,0.0006435586005449295,-0.0167266783952713,-0.07324088503867388
1772642656154606000,2.589606201171875,-0.02505436175763607,-0.018736849173903464,-0.09755158882215618
1772642656164648000,2.59964794921875,-0.03116056967824697,-0.0029909985095262527,-0.10559197967574
1772642656174689000,2.60968896484375,-0.022673019579052923,-0.019730536386370658,-0.10355652832537889
1772642656184730000,2.619730224609375,0.002805120548605919,-0.026085458371043205,-0.10799041911959648
1772642656194772000,2.62977197265625,0.018866905294358728,-0.027979309293627738,-0.09879135975018143
1772642656204813000,2.63981298828125,0.01535159064978361,-0.011569441762566565,-0.10361863377615808
1772642656214855200,2.649855224609375,0.00120820674598217,-0.009829320096969603,-0.11159311978667974
1772642656224896300,2.659896240234375,0.00547112488746643,0.0031663550764322278,-0.1178036648645997
1772642656234937000,2.66993701171875,0.0043988194808363915,-0.001499298647046089,-0.09843582431077956
1772642656244979200,2.679979248046875,-0.0030640637457370755,-0.0214759187489748,-0.07269727968126535
1772642656255020000,2.69002001953125,-0.0067144029468297955,-0.0375356576681137,-0.06042144321501255
1772642656265062100,2.700062255859375,-0.0077598203465342516,-0.04634674063324928,-0.054677784996479746
1772642656275103000,2.71010302734375,0.02233078201264143,-0.029362872606515884,-0.05732537689581513
1772642656285144000,2.72014404296875,0.03764437873959541,-0.009560440027713776,-0.07828633185997605
1772642656295186000,2.73018603515625,0.006591653349995613,-0.0044160628765821455,-0.10772753039970993
1772642656305227000,2.74022705078125,-0.014114742331206798,0.010178279665112495,-0.12239333074241876
1772642656315269000,2.75026904296875,-0.007328150931000709,-0.02159048503935337,-0.11583543353155254
1772642656325310000,2.76031005859375,0.011987667174637317,-0.06510346355140209,-0.08179887002557516
1772642656335351000,2.77035107421875,0.031494331677258014,-0.09210954389870166,-0.0590007627621293
1772642656345393200,2.78039306640625,0.04508417335152626,-0.09540507831275463,-0.01910202922448516
1772642656355434200,2.790434326171875,0.0419040820106864,-0.09616320320367812,-0.014009382260590791
1772642656365476000,2.80047607421875,0.042242812445759774,-0.0815203453451395,-0.007471943315863609
1772642656375517200,2.81051708984375,0.07445172213315963,-0.052715691143274304,0.003007365122437477
1772642656385558000,2.82055810546875,0.0876373669207096,-0.05284954665601253,0.005435615182667971
1772642656395600100,2.83060009765625,0.08087240283042192,-0.051639586344361305,-0.004912760352343321
1772642656405641000,2.840640869140625,0.06610299598276614,-0.05592354727387428,-0.04169569995701313
1772642656415683000,2.85068310546875,0.05623860457241535,-0.05447217942178249,-0.05024579389840364
1772642656425724000,2.860723876953125,0.0592404167369008,-0.06149871705770492,-0.06643120502382517
1772642656435765000,2.870764892578125,0.04501607655137777,-0.05561550423800945,-0.06988222226053475
1772642656445807000,2.88080712890625,0.03920943609923124,-0.05459551354050636,-0.056348348557204005
1772642656455848200,2.89084814453125,0.043780689537525175,-0.05189151527881622,-0.0540253124371171
1772642656465890000,2.90089013671875,0.05176671985536813,-0.039677930393815036,-0.03998085886314511
1772642656475931100,2.91093115234375,0.07834025400429964,-0.038082185634970664,-0.03683291622623801
1772642656485972200,2.92097216796875,0.07569090853929519,-0.042889293655753134,-0.012559037321805954
1772642656496014000,2.93101416015625,0.059542614553868764,-0.034405542948842044,0.012868980053812264
1772642656506055200,2.94105517578125,0.07428513339459895,-0.030481647503376005,0.040742783146351574
1772642656516097000,2.951096923828125,0.09541735327243804,-0.04937748663127422,0.043034108953922984
1772642656526138000,2.96113818359375,0.10937865860760211,-0.027043489748239516,0.05399097177609801
1772642656536179000,2.971178955078125,0.09580021511018276,-0.01675064379274845,0.03514613218307495
1772642656546221000,2.981220947265625,0.055007016950845714,-0.03132511259019374,0.05260740846320987
1772642656556262100,2.99126220703125,0.03972703023254871,-0.03979366572797298,0.06845014363080262
1772642656566303000,3.001302978515625,0.052934886851906775,-0.08135317208468913,0.08105038974583148
1772642656576345000,3.011344970703125,0.05970072772502899,-0.12794248930215835,0.0882908623933792
1772642656586386200,3.02138623046875,0.03775543789863586,-0.12697393653094768,0.08760638726055621
1772642656596428000,3.031427978515625,0.013925649499893188,-0.13923019151389598,0.09919643341973423
1772642656606469000,3.04146923828125,0.005603811356425285,-0.14317396070361135,0.10702683478444815
1772642656616510200,3.05151025390625,0.005180032986402511,-0.1065992570221424,0.13039426636844872
1772642656626552000,3.061552001953125,0.013135083644092082,-0.10325871442258358,0.12975041550695895
1772642656636593200,3.07159326171875,0.03547784835547209,-0.07353343824446201,0.10149068183675408
1772642656646635000,3.081635009765625,0.05637187556326389,-0.06698503951430321,0.101811584354192
1772642656656676000,3.091676025390625,0.055174774733185765,-0.060925301083922384,0.10983648537769913
1772642656666717000,3.101717041015625,0.04528758696913719,-0.057363224688172336,0.09034458005279301
1772642656676759000,3.111759033203125,0.035031565892696376,-0.06720189713537693,0.0962210708707571
1772642656686799600,3.121799560546875,0.03242109113335609,-0.06371873119473458,0.07606982485428453
1772642656696841500,3.131841552734375,0.03302139511406421,-0.06870937908887863,0.05768237363994121
1772642656706882600,3.141882568359375,0.022044658547639845,-0.07624737337827682,0.057755585006624456
1772642656716923400,3.15192333984375,0.014339490997791289,-0.06735737995803356,0.04166793516725301
1772642656726965500,3.161965576171875,0.02153553998172283,-0.04865209496617317,0.022213293112814426
1772642656737006300,3.17200634765625,0.01573591379225254,-0.0407207174450159,0.015225041660666464
1772642656747048400,3.18204833984375,0.013896423405408859,-0.01789046147763729,-0.013069763322919606
1772642656757089300,3.19208935546875,0.013067279104888438,-0.004965513452887535,-0.009661854575574398
1772642656767130400,3.20213037109375,0.04344868110418319,0.0025561142235994336,-0.020920622953772543
1772642656777172500,3.21217236328125,0.05481733959764242,0.0034650457620620727,-0.044705841558426614
1772642656787213600,3.222213623046875,0.05403174217790365,0.009542319849133491,-0.03641147594377398
1772642656797255400,3.23225537109375,0.027817688991129397,-0.017290742018818854,-0.04774754734188318
1772642656807296500,3.242296630859375,0.03220978647023439,-0.04068681517541408,-0.05216097986996174
1772642656817337600,3.252337646484375,0.0373074018701911,-0.06294833134412765,-0.05614522720053792
1772642656827379500,3.26237939453125,0.03641805181503296,-0.06293079568743705,-0.043429684142768384
1772642656837420500,3.272420654296875,0.0418231257289648,-0.05545183810889721,-0.06334522170722484
1772642656847462400,3.28246240234375,0.026575872236490248,-0.04963058460950851,-0.06000540976002812
1772642656857503500,3.29250341796875,0.03125935387760401,-0.04198679185807705,-0.06244768834561109
1772642656867544300,3.30254443359375,0.023296412174403668,-0.05031038356721401,-0.0367538596406579
1772642656877586400,3.31258642578125,0.02611789933592081,-0.04283317955434322,-0.01966784641370177
1772642656887627300,3.322627197265625,0.02193856782466173,-0.06448094773888588,-0.014835019429773092
1772642656897668400,3.33266845703125,0.04047521825134754,-0.07615560344159603,0.0011608604729175568
1772642656907710500,3.34271044921875,0.029104806192219255,-0.06776829884648322,-0.009344605319947004
1772642656917751600,3.35275146484375,0.012193711140751838,-0.07524550285935401,-0.02478562781885266
1772642656927793400,3.36279345703125,0.003544540739059448,-0.08014087368547916,-0.025862901661545038
1772642656937834500,3.37283447265625,-0.0015448913544416428,-0.10050853893160819,-0.014239245493710041
1772642656947875600,3.38287548828125,-0.0038461540341377257,-0.11217091967463493,-0.011587415810674429
1772642656957917400,3.39291748046875,0.0029559271961450573,-0.11198211910426616,-0.0003609422668814659
1772642656967958500,3.40295849609375,0.018395196129381657,-0.08619768950641155,-0.010371464149653911
1772642656978000400,3.41300048828125,0.02379208673685789,-0.05162906495034694,-0.014580460146814583
1772642656988041500,3.42304150390625,-0.009663023619353771,-0.037651977524161336,-0.006454144575446844
1772642656998082300,3.433082275390625,-0.010499182182550429,-0.047294250616431235,-0.019865853203833102
1772642657008124700,3.443124755859375,0.0001204115092754364,-0.06888298209011555,-0.009910130248218775
1772642657018165500,3.45316552734375,-0.016601590710878373,-0.07390168703496455,-0.02014335497096181
1772642657028207600,3.46320751953125,-0.02747428238093853,-0.08444003218412399,-0.024350012880563734
1772642657038248400,3.47324853515625,-0.007375497204065323,-0.08371288695335388,-0.030192601428925988
1772642657048289500,3.48328955078125,0.0021884499549865723,-0.06691197427809238,-0.06317936362102627
1772642657058331400,3.493331298828125,0.007895137163996696,-0.04888298111259937,-0.07279401805400848
1772642657068372500,3.50337255859375,0.004048983129858971,-0.02867722842991352,-0.05769070307686924
1772642657078414300,3.513414306640625,-0.00016015899777412413,-0.031847090637683866,-0.06598010025545954
1772642657088455400,3.523455322265625,-0.016382979524135588,-0.025505028134584426,-0.076499740704149
1772642657098496500,3.53349658203125,-0.010610533602535725,-0.028476152899861332,-0.073910162602365
1772642657108538400,3.543538330078125,-0.015232055923342704,-0.02324175937771797,-0.056199441605806345
1772642657118579500,3.553579345703125,-0.002270575280487537,-0.02763619494438171,-0.05884601059183478
1772642657128620300,3.563620361328125,-0.01682341676801443,-0.04937281045615673,-0.05465703446939587
1772642657138662700,3.57366259765625,-0.008350771977007388,-0.053555064576864236,-0.04916910457760095
1772642657148703500,3.583703369140625,0.0043827451288700105,-0.06045651452839374,-0.05731178676187992
1772642657158745600,3.59374560546875,0.0056014732688665385,-0.03267009745836258,-0.06034545536935329
1772642657168786400,3.603786376953125,0.01239274084419012,-0.03328735257387161,-0.053891018532961604
1772642657178827500,3.61382763671875,0.014032617005705832,-0.02736088513433933,-0.06720043583065272
1772642657188869400,3.623869384765625,0.0157268537029624,-0.01667699403464794,-0.06418035735711455
1772642657198910500,3.633910400390625,0.015850772343575955,-0.01727963610291481,-0.04687485616058111
1772642657208952300,3.643952392578125,0.01270955170840025,-0.03489595681428909,-0.023194120843708515
1772642657218993400,3.653993408203125,-0.0026768179938197133,-0.06208265442550182,-0.03211582457646727
1772642657229035300,3.66403515625,0.005931143614649772,-0.09261807794272899,-0.04805296002924442
1772642657239076400,3.674076416015625,-0.001597206063568592,-0.07920680770576,-0.03250467776358128
1772642657249117400,3.684117431640625,0.0013303718209266662,-0.06862696150243282,-0.015744535490125416
1772642657259159600,3.69415966796875,-0.013320084822177886,-0.0660480509251356,-0.01791179652661085
1772642657269200600,3.70420068359375,-0.0015825930163264274,-0.06529635577499866,-0.0006308452494442463
1772642657279241500,3.714241455078125,-0.013511808001995087,-0.061797992265224456,0.0240682733297348
1772642657289283600,3.72428369140625,0.015792320154607294,-0.09651800799071789,0.03208192230686545
1772642657299324400,3.734324462890625,0.023036592194437978,-0.08477671679258346,0.03591623977273702
1772642657309366500,3.744366455078125,0.03657645724713802,-0.06748071407675743,0.013636603425443171
1772642657319407400,3.754407470703125,0.03466711649447679,-0.06101531745493412,0.0004699555993080139
1772642657329448400,3.764448486328125,0.0348278600141406,-0.05269932453036308,-0.014225801490247249
1772642657339490300,3.774490234375,-0.000542144052684307,-0.03911971198916435,-0.009861468800902365
1772642657349531400,3.784531494140625,-0.00012567220628261565,-0.03875672389566898,0.017421090400218962
1772642657359573200,3.7945732421875,0.012829963217675685,-0.04252513651847839,0.037237113112956285
1772642657369614300,3.8046142578125,0.02259644721150398,-0.04746376196444034,0.027141835556179283
1772642657379655400,3.814655517578125,0.020766309174895286,-0.042752515533566474,0.006271189223974943
1772642657389697500,3.824697509765625,0.02932107929140329,-0.041894437399506566,0.007896160077303647
1772642657399738600,3.834738525390625,0.012715104666352272,-0.04411035988330841,0.003549363044649362
1772642657409780500,3.844780517578125,-0.0064200961753726,-0.05257306780219078,0.0238144446991384
1772642657419821600,3.854821533203125,0.011999065351486206,-0.06361527082026004,0.019139000234007834
1772642657429862400,3.8648623046875,0.03261339883506298,-0.07319616911411285,0.021294570832699537
1772642657439904500,3.874904541015625,0.04398907159119844,-0.06738309892117977,0.01945449592396617
1772642657449945300,3.8849453125,0.04852028528004884,-0.053128363597393036,0.008803338050097226
1772642657459987500,3.894987548828125,0.03641308337897062,-0.04907938046753406,-0.0003458908282220363
1772642657470028300,3.9050283203125,0.020156652843952176,-0.06974865900874137,0.003161094379425049
1772642657480069400,3.9150693359375,0.02298164713680744,-0.06884381912350654,0.004394727827608585
1772642657490111500,3.925111572265625,0.02857873649150133,-0.06713467711806297,0.003939093014597893
1772642657500152600,3.935152587890625,0.03288432473093271,-0.0507031822770834,0.017136428239941597
1772642657510194400,3.9451943359375,0.023658523485064507,-0.02920212908685207,0.022526742976158858
1772642657520235500,3.955235595703125,0.01840162587016821,-0.019915829825401306,0.018626959058642385
1772642657530276600,3.965276611328125,0.017361761428415775,-0.028706454524397847,0.030922815399616953
1772642657540318500,3.975318359375,0.02018441763371229,-0.04252221390902996,0.024399551110714672
1772642657550359600,3.985359619140625,0.022046412113308905,-0.054770285585522646,0.02017988758906722
1772642657560400400,3.995400390625,0.048182139366865155,-0.05745967079997062,0.018219985692948103
1772642657570442500,4.0054423828125,0.02827770771831274,-0.057904491958022115,0.007986322578787803
1772642657580483300,4.0154833984375,0.0228679576292634,-0.06439619206488133,0.010334493140131235
1772642657590525400,4.025525390625,0.013344927002489565,-0.0653600686609745,0.006903934169560671
1772642657600566300,4.035566162109375,0.012521043398976325,-0.05359715015292167,0.013945815505087375
1772642657610607400,4.045607421875,0.013130699729919433,-0.07054185521304607,0.017287088757008313
1772642657620649500,4.0556494140625,0.03185644298791885,-0.07100421202778816,0.030812779153883457
1772642657630690600,4.065690673828125,0.03700169692188501,-0.0550730679243803,0.015467618244886397
1772642657640732400,4.075732421875,0.049286301216483114,-0.05897182892858982,0.0054191024392843245
1772642657650773500,4.0857734375,0.04300912064313888,-0.03498597318530083,0.0019486498497426508
1772642657660814600,4.095814697265625,0.044593759486079215,-0.028722821137309073,0.0012928162895143032
1772642657670856400,4.1058564453125,0.030002047292888162,-0.03423603160083294,-0.0023494857355952263
1772642657680897500,4.1158974609375,0.022445932824909684,-0.020581015735864638,0.002162146469950676
1772642657690939600,4.125939697265625,0.00813420661687851,-0.03461129465401173,-0.01849310354590416
1772642657700980700,4.135980712890625,0.03574205224961042,-0.03671323536932468,-0.02015694510489702
1772642657711021600,4.146021484375,0.020311551144719123,-0.04857435355484485,-0.030192893689870832
1772642657721063700,4.156063720703125,0.02492927407324314,-0.037568975415825843,-0.026305530862510203
1772642657731104500,4.1661044921875,0.026103578549623488,-0.03149754654765129,-0.019301497319340704
1772642657741147000,4.17614697265625,0.018703823687136172,-0.02913432454764843,-0.021550883681327102
1772642657751187700,4.186187744140625,0.003663198682665825,-0.05129764103889465,-0.012538140664249658
1772642657761228800,4.196228759765625,0.03440349712222814,-0.04731353983879089,-0.00597001432031393
1772642657771270700,4.206270751953125,0.04238017508983612,-0.036490532529354094,0.0015795242764055728
1772642657781311700,4.216311767578125,0.03231792301982641,-0.027296587726473805,0.004981880065798759
1772642657791353600,4.226353515625,0.033896132121980185,-0.01679039128124714,-0.009106120388954878
1772642657801394700,4.236394775390625,0.013542203140258788,-0.02142564986646175,0.007323036364465951
1772642657811435800,4.246435791015625,0.030628947019577024,-0.05534954677820205,0.004855477207154036
1772642657821477600,4.2564775390625,0.026414251933991908,-0.07183189502358436,0.00011763503029942511
1772642657831518700,4.266518798828125,0.021163784059882163,-0.0725794985204935,0.00365033920109272
1772642657841560800,4.276560791015625,0.028846155256032943,-0.058554480299353596,-0.0059086395218968385
1772642657851602000,4.286601806640625,0.03906272110491991,-0.043323593419790266,-0.003421937272697687
1772642657861642800,4.296642822265625,0.03747399060875177,-0.04787234276533127,-0.015256459712237118
1772642657871684900,4.306684814453125,0.03266746710985899,-0.04884557171165943,-0.011287848342210053
1772642657881725700,4.3167255859375,0.008298457267880439,-0.06349836644232272,-0.010432108295708894
1772642657891766800,4.326766845703125,0.0037733810588717457,-0.07397475227117538,0.0011569149501621722
1772642657901808600,4.33680859375,0.014972820465266703,-0.08021101631224155,0.003921265096962452
1772642657911849700,4.346849609375,-0.003396364440023899,-0.06691898854076862,0.011883768408745526
1772642657921891600,4.3568916015625,0.014500526778399943,-0.06461421872973441,0.008649462662637233
1772642657931932700,4.3669326171875,0.01358224288970232,-0.03651274436116218,0.002152209597826004
1772642657941973800,4.376973876953125,0.004800970540940762,-0.04141279136240482,0.0016799159109592437
1772642657952015600,4.387015625,0.024889526584744453,-0.04660509930849075,0.022848376145958898
1772642657962056700,4.397056640625,0.024157997439801692,-0.0665928253263235,0.029641689547896383
1772642657972098800,4.407098876953125,0.021310499054193497,-0.05290040006041526,0.02106763020902872
1772642657982140000,4.417139892578125,0.048536067371070385,-0.07158931843936443,0.013732757276296614
1772642657992180700,4.4271806640625,0.05150602309256792,-0.051072600111365316,0.0011304653346538543
1772642658002222800,4.437222900390625,0.04771656768172979,-0.029462825849652288,-0.02660612124428153
1772642658012263700,4.447263671875,0.03950111252218485,-0.013450433203577994,-0.029293606762588024
1772642658022305800,4.457305908203125,0.009537351413071155,-0.012900982627272605,-0.020094255132228137
1772642658032346600,4.4673466796875,0.004133154281973838,-0.014109189373254775,-0.018704554339498282
1772642658042387700,4.4773876953125,0.03915624460726976,-0.025369419056177137,-0.002295417460799217
1772642658052429600,4.4874296875,0.03386602924466133,-0.027154548907279967,-0.023395927026122806
1772642658062470700,4.497470703125,0.046373044118285175,-0.022222937723994255,-0.03020180764868855
1772642658072512500,4.507512451171875,0.058765784962475295,-0.016423311534523963,-0.039134325036406514
1772642658082553600,4.5175537109375,0.06177110425829887,-0.020389292556047437,-0.028738749358803033
1772642658092594700,4.5275947265625,0.045783261531591415,-0.0454395626604557,-0.02124430195018649
1772642658102636800,4.53763671875,0.04068973778486252,-0.06725508862733841,-0.008978840747475623
1772642658112678000,4.547677978515625,0.02531272043287754,-0.06754091983139515,0.001806464900076389
1772642658122719700,4.5577197265625,0.030251638139784334,-0.07159808626770973,0.001918839233368635
1772642658132760800,4.5677607421875,0.05497574502974748,-0.06446399660408496,-0.012686170832812786
1772642658142801700,4.5778017578125,0.04824351416528225,-0.05238368270993232,-0.0236740133151412
1772642658152843800,4.58784375,0.046181028677523134,-0.043760231271386146,-0.024178894097357986
1772642658162884600,4.597884521484375,0.03621609950214624,-0.04416530494093895,-0.016408698487281798
1772642658172926700,4.6079267578125,0.03682721713781357,-0.05705225904285907,-0.015408581534028052
1772642658182967600,4.617967529296875,0.02973638209402561,-0.06641220806241036,-0.010125964955985545
1772642658193008600,4.628008544921875,0.029352351212501526,-0.07859305972158909,-0.007296002227067947
1772642658203050500,4.638050537109375,0.04835135845392942,-0.08080605959594249,-0.002624941676110029
1772642658213091600,4.648091552734375,0.0656651890873909,-0.06118775141239166,-0.006317220322787761
1772642658223133700,4.6581337890625,0.06102116267383098,-0.04676292021870613,-0.021115268743038176
1772642658233174800,4.6681748046875,0.03588789046108722,-0.033194413593411444,-0.01548471551015973
1772642658243216000,4.6782158203125,0.03038870852291584,-0.028676059386134146,-0.0051605976335704325
1772642658253257700,4.6882578125,0.016437632320821283,-0.047937224695086475,0.008986001140624283
1772642658263298800,4.698298828125,0.03785451435893774,-0.053632221466302865,0.01171717967018485
1772642658273339600,4.708339599609375,0.050396600545942784,-0.03231529267132282,0.014326923777163028
1772642658283381800,4.7183818359375,0.0543757333099842,-0.028290274938941,0.008682488149404526
1772642658293422600,4.728422607421875,0.029813246722519397,-0.016605682364106176,-0.001237140579521656
1772642658303464700,4.738464599609375,0.03446282609403133,-0.020701427245140073,-0.006029343292117118
1772642658313505500,4.748505615234375,0.029499942989647386,-0.02193476843237877,0.008156856840103864
1772642658323546600,4.758546630859375,0.03742050685584545,-0.023549217891693112,0.0023684826970100403
1772642658333588700,4.768588623046875,0.0458446363300085,-0.04369593386352062,-0.007632979096472263
1772642658343629800,4.7786298828125,0.054634968768060205,-0.035491000097990034,-0.0017542963214218616
1772642658353671700,4.788671630859375,0.05483662882000208,-0.042238136270642275,-0.0018963351406157017
1772642658363712800,4.798712646484375,0.03811725694835186,-0.04870177932679653,-0.0007679156325757503
1772642658373753900,4.80875390625,0.02943886045217514,-0.0653425330042839,-0.004946954882889986
1772642658383795700,4.818795654296875,0.021953473132848737,-0.05454173752665519,0.010116466475278139
1772642658393836800,4.8288369140625,0.004136076891422272,-0.06102116267383098,0.007480565013736486
1772642658403878700,4.838878662109375,0.008067571121454238,-0.06358253759443759,0.02153188671991229
1772642658413919700,4.848919677734375,0.030387539479136465,-0.056632572326064105,-0.00806859403476119
1772642658423960600,4.858960693359375,0.035870062543451785,-0.03441372625529766,-0.009579290858656168
1772642658434002700,4.869002685546875,0.03965425725728273,-0.026961072161793706,-0.016416297271847725
1772642658444043500,4.87904345703125,0.024816169087588786,-0.024221418064832686,-0.013959259508550165
1772642658454086000,4.8890859375,0.023399288026988506,-0.03002747399508953,-0.028703385784476995
1772642658464126700,4.899126708984375,0.024681144531071186,-0.042532735303044314,-0.029420155751705167
1772642658474167800,4.909167724609375,0.0055842298731207845,-0.07587854006588458,-0.031004356203228233
1772642658484209700,4.919209716796875,0.021405483861267567,-0.06464870552122592,-0.023551848240196703
1772642658494250800,4.929250732421875,0.027796061681210994,-0.07565817531347274,-0.011374795973300933
1772642658504292600,4.939292724609375,0.03822743932455778,-0.06663900255560874,-0.01357435184419155
1772642658514333700,4.949333740234375,0.04349485833346844,-0.044373979255557056,-0.006530863073468208
1772642658524374800,4.959374755859375,0.04311228875666857,-0.02245966908931732,-0.01721504643410444
1772642658534416600,4.969416748046875,0.040619302897155284,-0.011581132200360297,-0.018273615576326847
1772642658544457700,4.979457763671875,0.02029284644424915,-0.007628010660409927,-0.00834390384480357
1772642658554499600,4.98949951171875,0.012299217341840266,-0.029638182416558263,0.0008219839073717594
1772642658564540700,4.999540771484375,0.004289221626520156,-0.03996609968543052,0.008107318609952925
1772642658574581500,5.00958154296875,-0.007175882978737354,-0.05429623833298683,0.00958922773078084
1772642658584623900,5.019623779296875,-0.0035150223836302756,-0.061332128319144245,0.006388385862857103
1772642658594664700,5.029664794921875,0.004650456154346466,-0.05980944879651069,0.011130027431994675
1772642658604706800,5.039706787109375,0.025078911677002904,-0.06247779122292995,0.014368424831330776
1772642658614747600,5.04974755859375,0.02998772650659084,-0.056574704658985134,0.00891191299110651
1772642658624788700,5.059788818359375,0.02085924815535545,-0.05178922394812107,0.009033785805106163
1772642658634830600,5.06983056640625,0.012676526221632957,-0.062276131170988076,0.02142375017032027
1772642658644871700,5.07987158203125,0.013814298079907894,-0.0625017566204071,0.019916560477763412
1772642658654912800,5.089912841796875,0.01942424691617489,-0.08108136940598487,0.004897270522266626
1772642658664954600,5.09995458984375,0.02659720728546381,-0.06613222207725047,0.0007186696633696556
1772642658674995700,5.10999560546875,0.02853898900300264,-0.06897884368002415,-0.005306728105992078
1772642658685037600,5.12003759765625,0.036330958053469656,-0.04871113167703151,-0.009469254612922667
1772642658695079200,5.1300791015625,0.018508885636925695,-0.01990647747516632,-0.018516922812908888
1772642658705120000,5.1401201171875,0.033033962334692475,-0.0398059406876564,-0.011213760192692279
1772642658715162000,5.150162109375,0.053929158586263654,-0.044720016214251514,-0.01928235422745347
1772642658725203000,5.160202880859375,0.06209317581951618,-0.03626607612371444,-0.033505233108252284
1772642658735245000,5.1702451171875,0.055927638927102084,-0.01735094777345657,-0.05026245277225971
1772642658745286000,5.180285888671875,0.07991349467039108,-0.01794306844770908,-0.04813362405002117
1772642658755327000,5.190326904296875,0.07084405303001404,0.0027086744368076325,-0.050735623241961
1772642658765369000,5.200369140625,0.06679156276881694,-0.021081950995326042,-0.02085559489354491
1772642658775410200,5.21041015625,0.08034896347820758,-0.04506137699782848,-0.014473784901946783
1772642658785452000,5.2204521484375,0.07380494866222143,-0.06188450150489807,-0.031229251000285146
1772642658795493000,5.2304931640625,0.07046615962833165,-0.05531798259615898,-0.03452025536969304
1772642658805534200,5.2405341796875,0.07237228551059961,-0.04553074807524681,-0.04545008405447006
1772642658815576000,5.250576171875,0.07088759991079568,-0.035815994268655775,-0.045075405523180956
1772642658825617200,5.2606171875,0.053016135394573206,-0.01978840405344963,-0.04411795866787433
1772642658835659000,5.270658935546875,0.0413093309879303,-0.030205753171443937,-0.056217707914859055
1772642658845700000,5.2807001953125,0.03156768917441368,-0.028406010273098945,-0.04776157586723566
1772642658855741000,5.290740966796875,0.046317806799709794,-0.031195933252573013,-0.03385696915537119
1772642658865783300,5.300783203125,0.04986906954050064,-0.03396539796590805,-0.030946196275204417
1772642658877079000,5.3120791015625,0.056200026127696034,-0.02212298448085785,-0.03128653414547443
1772642658887121200,5.32212109375,0.064137541128695,-0.018291443493962285,-0.03346607014164328
1772642658897162200,5.332162353515625,0.06870733326226472,-0.005673953983187675,-0.01653217873647809
1772642658907203000,5.342203125,0.054473348465561865,-0.01167640926837921,0.002236819141358137
1772642658917245200,5.3522451171875,0.038758769722282885,-0.012084405547380446,0.009019903410226106
1772642658927286300,5.362286376953125,0.02939180644005537,-0.029140169766545293,0.010916969203203916
1772642658937328000,5.372328125,0.03944032224565744,-0.040140871730446816,0.011128273866325616
1772642658947369200,5.382369140625,0.03284866889566183,-0.02746025385558605,0.033353257416933776
1772642658957410000,5.39241015625,0.0455637735620141,-0.03337269276976585,0.04817936288788914
1772642658967452200,5.4024521484375,0.037728257630765434,-0.060515551239252084,0.03975084949955344
1772642658977493000,5.412492919921875,0.04795096095949411,-0.08594342248439789,0.027517537000775336
1772642658987534000,5.4225341796875,0.03144669314324856,-0.10133914453685283,0.056959320062398906
1772642658997576000,5.432575927734375,0.050506198400259016,-0.09805763864815234,0.04681669623255729
1772642659007617000,5.442616943359375,0.03485474802106619,-0.0963993500471115,0.05016512987762689
1772642659017659100,5.4526591796875,0.022799860829114914,-0.0845218652486801,0.039640082601457835
1772642659027700200,5.4627001953125,0.014956746113300322,-0.0748889445066452,0.04128858046084642
1772642659037741300,5.4727412109375,0.020554127728939057,-0.06722177087962627,0.026540800923109054
1772642659047783200,5.482783203125,0.02418283962011337,-0.047990416187047955,0.02705459566414356
1772642659057824300,5.49282421875,0.022674188622832298,-0.020002923586964608,0.045411651740223165
1772642659067866000,5.5028662109375,0.016627894195914268,-0.03630991526544094,0.04617079954445362
1772642659077907200,5.5129072265625,0.0004021510601043701,-0.06300152283608913,0.052068917672336096
1772642659087948000,5.522947998046875,0.021685177585482596,-0.061709144937992094,0.028971681331843135
1772642659097990100,5.532990234375,0.02459288172572851,-0.053282092854380604,0.012663812870532273
1772642659108031000,5.543031005859375,0.0039010990917682647,-0.041267829933762545,-0.005928513266146183
1772642659118073000,5.553072998046875,0.013522913917899131,-0.036247955945134164,-0.028916590143740175
1772642659128114200,5.5631142578125,0.02588262927532196,-0.013523498439788818,-0.04012611255273223
1772642659138155300,5.5731552734375,0.01690408078879118,-0.033518823242187495,-0.035962563132494685
1772642659148197000,5.583197021484375,0.02151946562975645,-0.048094461083412164,-0.031444939577579496
1772642659158238200,5.59323828125,0.015918576882779596,-0.06220949567556381,-0.03426291960775852
1772642659168280000,5.603280029296875,0.008257248474657536,-0.06139817929267883,-0.02975216418504715
1772642659178321200,5.613321044921875,0.024105682730674743,-0.054393268966674804,-0.034089024345576764
1772642659188362200,5.6233623046875,0.032411738783121105,-0.03875497032999992,-0.04485840177163482
1772642659198404000,5.633404052734375,0.02922404865771532,-0.008136544704437256,-0.04369432642832398
1772642659208445200,5.643445068359375,0.03033551703095436,-0.0030617256581783295,-0.03032514176741242
1772642659218487000,5.653487060546875,0.02201660149693489,-0.00833586666882038,-0.04465454976260662
1772642659228528000,5.663528076171875,0.0434331912741065,-0.008131284007430076,-0.05481821638047695
1772642659238569000,5.67356884765625,0.03801847274899482,-0.013936755415797232,-0.05371566196605563
1772642659248611300,5.683611328125,0.02575841837376356,-0.019203297641873358,-0.062490942965447896
1772642659258652200,5.693652099609375,0.011432663640379905,-0.032203648990392686,-0.06656973671168089
1772642659268694300,5.7036943359375,0.017122984236478806,-0.05415653760135174,-0.04796849661618471
1772642659278735000,5.713735107421875,0.018786241273581982,-0.05969838963747024,-0.03204524355828762
1772642659288776200,5.723776123046875,0.014815584076941012,-0.06363397552073001,-0.0015590660102665424
1772642659298818000,5.733818115234375,0.026962533466517925,-0.06355974124073982,-0.006295008490979671
1772642659308859100,5.743859130859375,0.027440964633226393,-0.07576689638495444,-0.02083177562654018
1772642659318900200,5.753900146484375,0.030074820268154143,-0.0695469989567995,-0.02820157374218106
1772642659328942000,5.763942138671875,0.025494506740570067,-0.07521276963353156,-0.007558306425064802
1772642659338983200,5.773983154296875,0.0257850141197443,-0.07278583474755286,0.0058376201122999185
1772642659349025000,5.78402490234375,0.04100245699584484,-0.06585515870153903,0.0024662439830601215
1772642659359066000,5.794066162109375,0.0437207760438323,-0.040698505613207814,0.004506371508538723
1772642659369107000,5.80410693359375,0.041892391572892665,-0.028362755653262135,-0.009416793773323297
1772642659379149300,5.8141494140625,0.04641279160678386,-0.021948796957731245,-0.009539397239685058
1772642659389190100,5.824190185546875,0.03710194242596626,-0.02577449272572994,-0.009847148014605045
1772642659399232300,5.834232177734375,0.021372750635445116,-0.047696401676535605,0.003582096270471811
1772642659409273000,5.844273193359375,0.021523849543929097,-0.05140519306659698,-0.007685001544654369
1772642659419314200,5.854314208984375,0.010448036517202854,-0.062001405882835384,-0.009361264193803072
1772642659429356000,5.86435595703125,0.015044132135808467,-0.0567068066060543,-0.012179828745871781
1772642659439397000,5.874397216796875,0.022727964636683463,-0.053854924306273456,-0.014530191264301537
1772642659449439000,5.88443896484375,0.039217619405686854,-0.03890226984620094,-0.013364654616266488
1772642659459480000,5.89447998046875,0.03201601746380329,-0.04192600158154964,-0.02354731819555163
1772642659469521200,5.904521240234375,0.016474164938926696,-0.030959201887249946,-0.03260214678868651
1772642659479563000,5.91456298828125,0.01455342600941658,-0.03154547734260559,-0.03816533387377858
1772642659489604000,5.92460400390625,0.007193710896372794,-0.039244799673557276,-0.03662789517343044
1772642659499646200,5.934646240234375,0.019813830755650998,-0.04871639237403869,-0.040307022077590224
1772642659509687300,5.944687255859375,0.027753391583263873,-0.04478256005644798,-0.03666691200956702
1772642659519728000,5.95472802734375,0.06127075352072715,-0.018454525101184845,-0.030940351056307554
1772642659529770200,5.964770263671875,0.0636500498726964,-0.011879822885990142,-0.03001958294957876
1772642659539811000,5.97481103515625,0.0665557081863284,-0.004278115710616112,-0.011918109069764614
1772642659549853200,5.984853271484375,0.048536067371070385,-0.011755319723486899,0.00033580782562494274
1772642659559894000,5.99489404296875,0.02354454171657562,-0.04025836063027382,0.006739975779503584
1772642659569935000,6.00493505859375,0.024693711751699446,-0.05999181962609291,0.004732289218902588
1772642659579977000,6.01497705078125,0.019246552261710168,-0.07878712098896502,0.004098521360009908
1772642659590018000,6.02501806640625,0.007882862204313277,-0.08775894747376442,0.0016806465633213519
1772642659600060000,6.035059814453125,0.011651274827122688,-0.07535130132138729,0.013034984270483255
1772642659610101200,6.045101318359375,0.0039323710128664965,-0.06565525221526622,0.01663695428520441
1772642659620142300,6.055142333984375,0.012845745308697223,-0.05140636211037636,0.02992722849100828
1772642659630184200,6.06518408203125,0.032004327026009555,-0.05151917483508586,0.012066723760217427
1772642659640225300,6.075225341796875,0.0320721315652132,-0.042998599249124525,0.013596417545527218
1772642659650267100,6.08526708984375,0.05112812969088554,-0.013579028019309044,0.020038579422235487
1772642659660308200,6.09530810546875,0.028219840051233767,-0.014085808497667312,0.010633183825761078
1772642659670349000,6.10534912109375,0.033114918616414066,-0.030212767434120175,0.00839095785692334
1772642659680391200,6.11539111328125,0.03374707904011011,-0.05264321042895317,0.002528787825256586
1772642659690431700,6.125431640625,0.024834581527113913,-0.05130816243290901,0.017994798634946345
1772642659700472800,6.135472900390625,0.042591479752957816,-0.05106500132679939,0.0129927525639534
1772642659710514700,6.1455146484375,0.04889233346283436,-0.038709962144494056,-0.00873261090144515
1772642659720555800,6.1555556640625,0.03196984023451805,-0.035278818652033805,0.00238090378716588
1772642659730598000,6.165597900390625,0.026447861942648886,-0.028586043015122412,0.0007100479654967784
1772642659740639000,6.175638916015625,0.036089550513029096,-0.033251112216711044,-0.028632220244407654
1772642659750680000,6.18568017578125,0.04404840056300163,-0.026194763964414596,-0.027522651567310093
1772642659760722000,6.195721923828125,0.030079496443271635,-0.016261398971080778,-0.027374621398746964
1772642659770763000,6.205762939453125,0.03979892642498016,-0.036433249384164805,-0.0468666728541255
1772642659780804900,6.215804931640625,0.01978402013927698,-0.05861234796643257,-0.06514058069139719
1772642659790846000,6.225845947265625,0.0075385788112878795,-0.08087678674459457,-0.05075929637849331
1772642659800886800,6.23588671875,0.021621464699506758,-0.09501227960288525,-0.03683277009576559
1772642659810929000,6.245928955078125,0.031363691034913065,-0.08945756808519363,-0.01685030477494001
1772642659820969700,6.2559697265625,0.05089285963028669,-0.07445639830827712,-0.008390665595978498
1772642659831012000,6.26601220703125,0.05010960029810667,-0.03680032913088798,-0.013532266268134117
1772642659841053000,6.276052978515625,0.024739596720039843,-0.008337035712599753,-0.02660349089577794
1772642659851094000,6.286093994140625,0.006011515374481678,-0.02049158388674259,-0.025253829852491617
1772642659861136000,6.296135986328125,0.008906944555044174,-0.016469488763809204,-0.018316724065691233
1772642659871177000,6.306177001953125,0.021545476853847504,-0.03676350425183773,-0.002513444125652313
1772642659881218800,6.31621875,0.021947043392062184,-0.058927405264973635,0.006920008521527052
1772642659891260000,6.326260009765625,0.04959580555707216,-0.053151744472980496,-0.003565729657560587
1772642659901301000,6.336301025390625,0.05375380201935768,-0.03075286566019058,-0.012329612480103969
1772642659911342800,6.3463427734375,0.03139262486845255,-0.02811959454715252,-0.0040222412534058095
1772642659921384000,6.356384033203125,0.04431640384942293,-0.03637362815141677,-0.015142770204693078
1772642659931425800,6.36642578125,0.0328890009060502,-0.05235562565922737,-0.00017243395745754242
1772642659941467000,6.376466796875,0.023591011206805703,-0.045675124981999396,0.0066853229828178875
1772642659951507700,6.3865078125,0.032363515727221966,-0.04931026661396026,-0.005886719951033592
1772642659961550000,6.396550048828125,0.024788696558773516,-0.04638356551229954,-0.02034238467440009
1772642659971591000,6.4065908203125,0.02511018359810114,-0.039892449927330015,-0.017043489259481428
1772642659981633000,6.416633056640625,0.01734451803267002,-0.039462826338410376,-0.009260288037359714
1772642659991673900,6.426673828125,0.002865326303243637,-0.05662088188827037,0.005173603245615959
1772642660001715000,6.43671484375,0.01340834762752056,-0.0603670826792717,0.010288169780373573
1772642660011756800,6.4467568359375,0.016357845082879064,-0.06591477993428707,0.024486498741805553
1772642660021798000,6.4567978515625,0.03312719357609749,-0.06596855594813823,0.01720160243064165
1772642660031839700,6.46683984375,0.025207506492733955,-0.06811550484895706,0.019783874008804558
1772642660041880800,6.476880859375,0.02753127326518297,-0.05658873318433761,0.02261222930252552
1772642660051922000,6.486921875,0.02426964112073183,-0.0514566309928894,0.01387976453155279
1772642660061963800,6.4969638671875,0.03593260638564825,-0.045672202372550964,0.00624693156555295
1772642660072004900,6.5070048828125,0.02090688668936491,-0.03533785536289215,0.016840952424705027
1772642660082045700,6.517045654296875,0.02251023023277521,-0.04612111518383026,0.016661358074098825
1772642660092088000,6.527088134765625,0.031401100435853,-0.030901334220170974,0.00043780689537525175
1772642660102129000,6.53712890625,0.0382633874207735,-0.019847440764307975,-0.007564590035378933
1772642660112171000,6.5471708984375,0.02017214267402887,-0.024610125121474265,-0.00903714680597186
1772642660122211800,6.5572119140625,0.013717559707164763,-0.024762100812792776,0.00934431305900216
1772642660132253000,6.5672529296875,0.013306056296825408,-0.03912964886128902,0.013171470131725073
1772642660142294800,6.577294677734375,0.02114127996712923,-0.055103463062644,0.026816402994096277
1772642660152336000,6.5873359375,0.03074234426617622,-0.07039806282818317,0.007149433363229036
1772642660162377700,6.597377685546875,0.026595161458849905,-0.0571118802756071,-0.003052811699360609
1772642660172418800,6.607418701171875,0.034087270779907704,-0.04455576556324958,-0.01672214835062623
1772642660182460000,6.6174599609375,0.02035743611305952,-0.0303337634652853,-0.02506853641346097
1772642660192501800,6.627501708984375,0.019915829825401306,-0.04808803134262561,-0.014146598774194717
1772642660202542800,6.63754296875,0.0304775558501482,-0.06450140600502491,-0.00527136453166604
1772642660212585000,6.6475849609375,0.03722586106657982,-0.06960720471143722,-0.014413433016836643
1772642660222626000,6.6576259765625,0.032793431577086446,-0.04265080872476101,-0.020564064601063727
1772642660232667000,6.6676669921875,0.050502691268920895,-0.04413432528078556,-0.012006664136052132
1772642660242709000,6.677708984375,0.030557635349035262,-0.05550619864463806,-0.01764013997837901
1772642660252749800,6.687749755859375,0.029429800362884995,-0.05872106903791427,-0.001505874518305063
1772642660262792000,6.6977919921875,0.02163227835446596,-0.058254620569944376,0.00583148263245821
1772642660272832800,6.707832763671875,0.020567571732401847,-0.05866553945839405,0.004663607896864414
1772642660282873900,6.717873779296875,0.013223930971324443,-0.060578095081448555,0.007433072610199451
1772642660292915700,6.727915771484375,0.026917233020067214,-0.04791968903839588,-0.004026479037106037
1772642660302956800,6.737956787109375,0.02815700394809246,-0.05353869796395302,-0.008244096732139586
1772642660312999000,6.7479990234375,0.029577976661920545,-0.049042555588483805,-0.008589256907999516
1772642660323040000,6.7580400390625,0.018476152411103248,-0.05062193373441696,-0.0018674013070762157
1772642660333081000,6.7680810546875,0.02135959889292717,-0.045858080333471295,-0.0017993045069277286
1772642660343123000,6.778123046875,0.016739537876844405,-0.052397711235284805,0.0009574468553066253
1772642660353164000,6.7881640625,0.015513795474171638,-0.05354337413907051,-0.004506517639011144
1772642660363206000,6.798205810546875,0.0195566411241889,-0.05389291822910309,-0.019920067609101533
1772642660373247000,6.8082470703125,0.01894084731340408,-0.043918052181601525,-0.025198008012026547
1772642660383287800,6.818287841796875,0.005937573355436325,-0.05377776741683483,-0.02796951855197549
1772642660393330000,6.828329833984375,0.0031909049957990644,-0.04609072004556656,-0.05056581963300705
1772642660403370800,6.838370849609375,0.005296352842450142,-0.05333586886823177,-0.032669659066945314
1772642660413412900,6.848412841796875,0.007545008552074432,-0.04918927058279514,-0.0309143398322165
1772642660423453700,6.85845361328125,0.027700200091302394,-0.043213118782639504,-0.02181976375058293
1772642660433494800,6.868494873046875,0.03345014192014933,-0.03761456812322139,-0.013543664444983004
1772642660443537000,6.878536865234375,0.049402621072530746,-0.030651743373274802,-0.028810791681706905
1772642660453578000,6.888577880859375,0.013987024298310278,-0.04299567663967609,-0.02123743381798267
1772642660463619800,6.898619873046875,0.0026429157242178914,-0.07164835515022278,-0.01566241016462445
1772642660473661000,6.908660888671875,0.007961480398476124,-0.07840484367311,-0.023748101464658975
1772642660483702000,6.918701904296875,-0.0103828623265028,-0.07763561286628246,-0.01103445810303092
1772642660493743900,6.928743896484375,-0.012858312529325485,-0.0673906977057457,0.006037088207155466
1772642660503785000,6.938784912109375,0.005403320348262786,-0.04579553649127483,-0.001571633230894804
1772642660513826800,6.948826904296875,0.037245150288939474,-0.004544657692313194,-0.0022357962280511855
1772642660523868000,6.958867919921875,0.026024083572626113,-0.0031119945406913757,-0.010681114620715379
1772642660533908700,6.96890869140625,0.029396482615172862,-0.006900865429639816,-0.009932342080026864
1772642660543950800,6.978950927734375,0.03806289641261101,-0.03785539114177227,-0.0007964110746979713
1772642660553991700,6.98899169921875,0.015364450131356715,-0.055932899624109265,0.02277034247368574
1772642660564032800,6.99903271484375,0.04579641327410936,-0.05417231969237327,0.03162409553676843
1772642660574075000,7.009074951171875,0.04918459440767765,-0.07149696398079394,0.041796676113456485
1772642660584116000,7.019115966796875,0.049536768846213816,-0.045264790615439414,0.03011544453948736
1772642660594157800,7.02915771484375,0.041971886549890036,-0.029033786782622334,0.021604951956123112
1772642660604199000,7.039198974609375,0.028635142853856085,-0.017152794852852822,0.014636574248224496
1772642660614240000,7.049239990234375,0.016046294915676117,-0.029869068562984463,0.015487784250080584
1772642660624281900,7.05928173828125,0.022529227194190024,-0.03278524827063083,0.007652560579776763
1772642660634323000,7.069322998046875,0.041536710003018375,-0.046183074504137035,-0.002177344039082527
1772642660644364800,7.07936474609375,0.052047290362417696,-0.045432548397779465,-0.024258681335300205
1772642660654406000,7.089406005859375,0.041915772448480125,-0.048971243917942046,-0.023873919801414012
1772642660664446700,7.09944677734375,0.018046236561238764,-0.04971767837107181,-0.01489522518441081
1772642660674488800,7.10948876953125,0.009236907161772251,-0.05262392120659351,-0.01295914255529642
1772642660684529700,7.11952978515625,0.02278817039132118,-0.07259528061151505,-0.0027732641056179997
1772642660694572300,7.129572265625,0.030763971576094624,-0.07627601495087147,0.0022138766571879387
1772642660704613000,7.139613037109375,0.061706806850433345,-0.05570084443390369,0.0014224340185523033
1772642660714654200,7.149654296875,0.06433569404929876,-0.05368249034881591,-0.01978051300793886
1772642660724696000,7.159696044921875,0.044077626657485956,-0.04124854071140289,-0.021752543733268976
1772642660734737200,7.169737060546875,0.03677840956002473,-0.02058393834531307,-0.023257103077322244
1772642660744779000,7.179779052734375,0.018687457074224947,-0.02822831561863422,-0.005925736787170171
1772642660754820000,7.189820068359375,0.03354191185683012,-0.03123743430674076,-0.023987901569902895
1772642660764861200,7.199861083984375,0.05745879401713609,-0.02886076830327511,-0.038730420410633085
1772642660774903000,7.209903076171875,0.05189209980070591,-0.030858079600334164,-0.04115618625283241
1772642660784944000,7.219944091796875,0.04672901794910431,-0.019445874226093292,-0.04243278205990791
1772642660794986000,7.229986083984375,0.039563364103436464,-0.034029110851883884,-0.049757864250987764
1772642660805027000,7.240027099609375,0.03894026376903057,-0.04438040899634361,-0.046490386887639755
1772642660815068000,7.25006787109375,0.02930734302699566,-0.030324411115050316,-0.04547741045281291
1772642660825110300,7.2601103515625,0.03980360260009765,-0.04198620733618736,-0.026168022087961432
1772642660835151000,7.270151123046875,0.055446577411890026,-0.05267945078611374,-0.009565700724720955
1772642660845193200,7.280193115234375,0.040924715584516526,-0.048887072765827176,-0.0023965397477149963
1772642660855234000,7.290234130859375,0.033763737913966176,-0.04404840056300163,0.008735825771838426
1772642660865275100,7.300275146484375,0.044964054103195664,-0.03918985461592674,0.01771276682317257
1772642660875317000,7.31031689453125,0.0436073787972331,-0.04961947869360447,0.002774871540814638
1772642660885358000,7.320358154296875,0.03787526488602161,-0.05113689751923084,-0.003161094379425049
1772642660895400000,7.33039990234375,0.04824263738244772,-0.05775193174481392,-0.009165303230285644
1772642660905441000,7.34044091796875,0.02471446227878332,-0.05157236632704734,-0.010395137286186218
1772642660915482000,7.350482177734375,0.01512596520036459,-0.06010287878513336,-0.011307429825514555
1772642660925524000,7.36052392578125,0.015218611919879912,-0.06739946553409099,-0.005510287854075432
1772642660935565000,7.37056494140625,0.03245031722784042,-0.06107318512201309,-0.009172609753906727
1772642660945607200,7.380607177734375,0.03588526011258363,-0.06332008726596831,-0.01113572652041912
1772642660955648300,7.390648193359375,0.033302842403948305,-0.05361527033150196,-0.016491262204200028
1772642660965689000,7.400689208984375,0.03612082243412733,-0.053909869363903996,-0.004619330363720655
1772642660975731200,7.410731201171875,0.0010544774889945983,-0.07011749232113361,0.012745938196033238
1772642660985772000,7.42077197265625,0.005606441704928875,-0.06749123547077178,0.022826748836040495
1772642660995814100,7.430814208984375,0.02089987242668867,-0.06638415101170539,0.03507189790308475
1772642661005855000,7.44085498046875,0.018000059331953526,-0.05438683922588825,0.02085837137252092
1772642661015896000,7.45089599609375,0.035249300296604634,-0.038652094477415085,0.0002782324194908142
1772642661025938000,7.46093798828125,0.028359833043813704,-0.006370704075694083,0.0015375848308205604
1772642661035979000,7.47097900390625,0.025209260058403012,-0.02801496512889862,0.0008871580980718136
1772642661046020000,7.48102001953125,-0.004956745624542236,-0.045049686560034746,-0.008274638000875712
1772642661056062200,7.491062255859375,-0.006448153226077556,-0.054036710613965984,-0.005087678527832031
1772642661066103300,7.501103271484375,-0.0008665537014603614,-0.07493512173593044,0.0003647416591644287
1772642661076145200,7.511145263671875,0.01572597692012787,-0.059338908675312996,-0.01291121176034212
1772642661086186200,7.521186279296875,0.021926877386868,-0.051260231637954706,-0.0240149357073009
1772642661096227000,7.53122705078125,0.011145955653488636,-0.025587445721030232,-0.03278276405259967
1772642661106269200,7.541269287109375,0.015288170024752615,-0.014290975680947303,-0.032729280299693346
1772642661116310000,7.55131005859375,0.012299217341840266,-0.022871172499656676,-0.02449059039503336
1772642661126352100,7.56135205078125,0.010611410385370255,-0.03417874845564365,-0.02871653752699494
1772642661136393000,7.57139306640625,0.011997311785817146,-0.04614800319075584,-0.03613704291656613
1772642661146434000,7.58143408203125,0.02354804884791374,-0.05579144532680511,-0.04317921651303768
1772642661156476000,7.591475830078125,0.03409925347864628,-0.05364975712299347,-0.04152092791199684
1772642661166517000,7.60151708984375,0.01486234582811594,-0.03876724528968334,-0.05647577432915568
1772642661176559000,7.61155908203125,0.00542757800668478,-0.02549216865301132,-0.041578064926713704
1772642661186600200,7.62160009765625,0.02186754841506481,-0.033411855736374854,-0.033922727867960925
1772642661196641300,7.631641357421875,0.008045359289646148,-0.05619184282124042,-0.02964563507065177
1772642661206683100,7.64168310546875,0.027393033838272095,-0.05818973864018917,-0.024317133524268866
1772642661216724200,7.65172412109375,0.044333062723279,-0.04396130680143833,-0.030170974119007585
1772642661226766000,7.66176611328125,0.029370471391081808,-0.033307226318120955,-0.023772797514498234
1772642661236807200,7.67180712890625,0.004852700728178024,-0.04706862516701221,-0.013586334542930125
1772642661246848000,7.681847900390625,-0.004675590595602989,-0.052335167393088335,-0.006884937208145856
1772642661256890000,7.69189013671875,0.014796002593636512,-0.07183832476437091,0.0015349544823169707
1772642661266931000,7.701930908203125,-0.00021598083823919296,-0.0776163236439228,0.005284370143711567
1772642661276973000,7.71197314453125,0.017099311099946498,-0.05781096845567226,0.01715454841852188
1772642661287014000,7.722013916015625,0.03891016089171171,-0.05910451539754867,0.00030628947019577024
1772642661297055000,7.732054931640625,0.029105390714108944,-0.05197042573392391,0.008826572795212269
1772642661307097000,7.74209716796875,0.048909284597635265,-0.03830664204061031,0.010753303074091673
1772642661317138200,7.75213818359375,0.033196167159080504,-0.03224164291322231,0.0047428106129169464
1772642661327180000,7.762179931640625,0.03122223673760891,-0.047133507096767426,0.009054828593134879
1772642661337221000,7.77222119140625,0.012972002036869525,-0.049932782426476474,0.014796148724108933
1772642661347262200,7.78226220703125,0.016987082897126672,-0.050747605940699575,0.0016939444363117217
1772642661357304000,7.792303955078125,0.011420388680696487,-0.04327507810294628,-0.00577829114049673
1772642661367345200,7.80234521484375,0.0024766192466020584,-0.050880292409658426,-0.01184051378890872
1772642661377387000,7.812386962890625,-0.007471066533029079,-0.0699655166298151,-0.011481325087696313
1772642661387428000,7.822427978515625,0.006861702463030815,-0.07667465887963772,-0.010183394231647252
1772642661397469000,7.832468994140625,0.02771481313854456,-0.09022036915123462,-0.005107552272081375
1772642661407511000,7.842510986328125,0.038402795891463753,-0.052287236598134036,-0.0018245850786566733
1772642661417552000,7.8525517578125,0.027862989437580105,-0.036242110726237294,-0.011277326948195695
1772642661427594200,7.86259423828125,0.007950666743516922,-0.04165829055607319,-0.017401801177859305
1772642661437635000,7.872635009765625,0.01625263114273548,-0.05145487742722034,-0.010241408029198646
1772642661447676200,7.88267626953125,0.030529578298330307,-0.05631809954941273,-0.012950959248840809
1772642661457718000,7.892718017578125,0.056713236346840855,-0.025274141988158225,-0.026084727718681096
1772642661467759000,7.902759033203125,0.05775543887615203,-0.007198971593379974,-0.03368497358933091
1772642661477801000,7.912801025390625,0.026546646142005918,-0.0011579378634691238,-0.02985197129771113
1772642661487842000,7.922842041015625,0.018422376397252083,-0.020410335344076155,-0.034731121641397474
1772642661497883100,7.932883056640625,0.03317892376333475,-0.029980127722024914,-0.0260638310611248
1772642661507925000,7.942925048828125,0.048127194309234615,-0.02965980972647667,-0.03310615078806877
1772642661517966000,7.952966064453125,0.04974515089988708,-0.030934651967883108,-0.035395869160443544
1772642661528007000,7.9630068359375,0.05674626183360815,-0.017183189991116524,-0.013818828124552965
1772642661538049300,7.97304931640625,0.05233399834930896,-0.03471943120360374,-0.01200301087424159
1772642661548090000,7.983090087890625,0.045726562908291815,-0.04270984543561935,-0.006904372560977936
1772642661558132200,7.99313232421875,0.05126373876929283,-0.06060965926349163,-0.008442103522270917
1772642661568173000,8.003173095703126,0.041681963692605496,-0.05682780263721943,-0.006891659209877252
1772642661578214100,8.013214111328125,0.02751519891321659,-0.036064416071772576,-0.004184884469211101
1772642661588256000,8.023256103515624,0.032121231403946876,-0.030892566391825676,-0.002809504462778568
1772642661598297000,8.033297119140625,0.020502689802646634,-0.02154606137573719,0.0024221125803887845
1772642661608339000,8.0433388671875,0.03375730817317962,-0.043382045608758926,0.0013331482999026775
1772642661618380000,8.053380126953124,0.023105565777420997,-0.05424480040669441,0.012889146059006451
1772642661628421000,8.063421142578125,0.048915422077476976,-0.055126843938231467,-0.0006708849988877772
1772642661638463000,8.073462890625,0.04952361710369586,-0.06456862602233886,-0.008485065881162882
1772642661648504000,8.083504150390626,0.05830079779922962,-0.05337912348806858,-0.002847936777025461
1772642661658546200,8.093546142578125,0.03156301299929619,-0.04600947150290012,-0.019731705430150032
1772642661668587300,8.103587158203124,0.04123305088132619,-0.05843757592141628,-0.007517828284204006
1772642661678628000,8.113628173828126,0.03658931672871112,-0.06860299610495567,-0.003398702527582645
1772642661688670200,8.123670166015625,0.03980009546875953,-0.06428747099339961,0.007365852592885494
1772642661698710500,8.13371044921875,0.03642565059959888,-0.04119827182888985,-0.018204934254288672
1772642661708752400,8.14375244140625,0.04106412405520677,-0.01154313827753067,-0.03601911562532186
1772642661718793500,8.15379345703125,0.04898614922612905,-0.014904723665118217,-0.030678046858310697
1772642661728834300,8.163834228515626,0.028467969593405723,-0.017300094369053838,-0.023673282662779092
1772642661738876700,8.173876708984375,0.026888299186527728,-0.026646599385142324,-0.017138181805610657
1772642661748917500,8.18391748046875,0.054635261029005046,-0.04506137699782848,-0.030268735405057666
1772642661758959600,8.193959716796876,0.05190028310716152,-0.028130700463056563,-0.037061318154633045
1772642661769000400,8.20400048828125,0.03653992462903261,-0.0036982699960470197,-0.03151668963953853
1772642661779041500,8.21404150390625,0.03477262269556522,-0.013922726890444754,-0.04927358786538243
1772642661789083400,8.22408349609375,0.04703998359441757,-0.020728315252065657,-0.05004457223787904
1772642661799124500,8.23412451171875,0.0420019894272089,-0.016188333734869956,-0.032589287307113406
1772642661809166300,8.244166259765626,0.04054623766094446,-0.03585340366959572,-0.02719210443869233
1772642661819207400,8.25420751953125,0.0396709161311388,-0.032570728737115855,-0.01571355582997203
1772642661829248500,8.26424853515625,0.014150398166477679,-0.031470658540725706,-0.006006546938419342
1772642661839290400,8.274290283203126,0.02062660844326019,-0.04482698372006416,-0.007927139737457036
1772642661849331500,8.28433154296875,0.001647182685136795,-0.07703589340746403,0.006570172170549631
1772642661859373600,8.29437353515625,0.012329027958214282,-0.0989268226981163,0.03015007746145129
1772642661869414700,8.30441455078125,0.032735563910007474,-0.10319383249282836,0.029828590422123668
1772642661879455500,8.31445556640625,0.023621406345069408,-0.07885901718139648,0.0453024922773242
1772642661889497600,8.32449755859375,0.024746026460826395,-0.05610182645022869,0.02907850270718336
1772642661899538400,8.334538330078125,0.021201485721766947,-0.03917933322191238,0.02850070281922817
1772642661909580500,8.34458056640625,0.01911561935842037,-0.042515784168243406,0.014132424118369817
1772642661919621400,8.354621337890626,0.023299042522907255,-0.05139174906313419,0.007681932804733514
1772642661929662500,8.364662353515625,0.042677404470741746,-0.04714578205645084,-0.01703822856247425
1772642661939704300,8.374704345703124,0.0401826650455594,-0.043109658408164976,-0.026195494616776702
1772642661949745400,8.384745361328125,0.03406856607943773,-0.03111936088502407,-0.0352558761678636
1772642661959786500,8.394786376953125,0.0369631184771657,-0.022922610425949095,-0.029270956539362666
1772642661969828400,8.404828369140626,0.03432458666712045,-0.017615736189484595,-0.022092589342594147
1772642661979869400,8.414869384765625,0.03917378026396036,-0.03390986838638782,-0.009493950662761926
1772642661989911600,8.42491162109375,0.03483136714547872,-0.041222237226366996,-0.01588964304924011
1772642661999952600,8.43495263671875,0.060931730824708936,-0.016285364368557927,-0.010498159269243478
1772642662009993500,8.444993408203125,0.040487200950086115,-0.025941081464290618,-0.008862374760955572
1772642662020035600,8.45503564453125,0.027560499359667298,-0.030363574081659316,-0.014159458255767822
1772642662030076400,8.465076416015625,0.02831248677074909,-0.038920974546670914,-0.02384717792496085
1772642662040118500,8.475118408203125,0.01709171231538057,-0.054067690274119375,-0.011358283229917287
1772642662050159400,8.485159423828126,0.022374913415312767,-0.05223755223751068,-0.012951543770730494
1772642662060200400,8.495200439453125,0.026979776862263678,-0.059689621809124946,-0.02485562431514263
1772642662070242300,8.5052421875,0.025874153707921503,-0.05726794762015342,-0.0312586232252419
1772642662080283400,8.515283447265626,0.036404607811570164,-0.05151157605051994,-0.03291150499880314
1772642662090325500,8.525325439453125,0.026077275064587593,-0.03570025893449783,-0.03201177968010306
1772642662100366600,8.53536669921875,0.028233868576586246,-0.04451367998719215,-0.019393559516966342
1772642662110407700,8.54540771484375,0.04044453085213899,-0.03861468507647514,-0.012689677964150905
1772642662120449500,8.555449462890625,0.03391951299756765,-0.035565818899869914,-0.036369098106771705
1772642662130490600,8.56549072265625,0.029015374343097207,-0.024374562799930572,-0.030843174292147158
1772642662140532500,8.575532470703125,0.016821078680455685,-0.025406243935227394,-0.02685483530834317
1772642662150573600,8.585573486328125,0.02138561011701822,-0.023496026399731636,-0.031503684027493
1772642662160614400,8.595614501953126,0.032523966985940934,-0.05323474658131599,0.006939736135303974
1772642662170656500,8.605656494140625,0.12276070275008678,-0.045621933490037916,0.025859686791151762
1772642662180697300,8.615697265625,0.13233049512803555,0.013853168785572051,0.01101502275019884
1772642662190739500,8.625739501953126,0.0890840585976839,0.030813071414828298,-0.0036694822929799554
1772642662200780300,8.6357802734375,0.06749503486305475,0.012669511958956717,-0.05800386067926883
1772642662210821400,8.6458212890625,0.051419513852894304,-0.004352349990606308,-0.06957900153025984
1772642662220863500,8.655863525390625,0.030562311524152754,-0.015994856989383698,-0.06487476936206221
1772642662230904600,8.665904541015625,0.010770984861254692,-0.02309796699285507,-0.081165978949517
1772642662240946400,8.675946533203126,-0.0005500350981950759,-0.024690204620361325,-0.06608765228316188
1772642662250987500,8.685987548828125,-0.01198795943558216,-0.058121934100985526,-0.035750089425593615
