time,seconds_elapsed,z,y,x
1772642653654296600,0.089296630859375,0.009620817378163338,0.005087436176836491,0.002416949486359954
1772642653664338700,0.099338623046875,0.00933426059782505,0.0027329353615641594,0.002661161357536912
1772642653674379500,0.109379638671875,0.00791112519800663,0.0015055451076477766,0.00269676954485476
1772642653684421400,0.11942138671875,0.008716731332242489,0.005878455471247435,0.005857142619788647
1772642653694463200,0.129463134765625,0.008685572072863579,0.009890773333609104,0.007814565673470497
1772642653704504300,0.13950439453125,0.0028244873974472284,0.014579269103705883,0.004204384982585907
1772642653714546200,0.149546142578125,-0.0014287824742496014,0.018297044560313225,-0.0022233976051211357
1772642653724587300,0.159587158203125,-0.0023009676951915026,0.020089618861675262,-0.006965155713260174
1772642653734629000,0.169629150390625,-0.006029090844094753,0.02095567248761654,-0.00823618471622467
1772642653744670200,0.179670166015625,-0.01178684551268816,0.018818486481904984,-0.002631561830639839
1772642653754711000,0.1897109375,-0.00903976708650589,0.013310856185853481,0.0005873903864994645
1772642653764753400,0.19975341796875,-0.00732762087136507,0.01309194415807724,0.0017091138288378716
1772642653774794200,0.209794189453125,-0.006283230148255825,0.011551572941243649,-0.0038335772696882486
1772642653784836400,0.21983642578125,-0.007892577908933163,0.009312920272350311,-0.0074048759415745735
1772642653794877200,0.229877197265625,-0.0015428576152771711,0.006690401583909988,-0.005271132569760084
1772642653804918300,0.239918212890625,-0.000947907567024231,0.003802203107625246,-0.006793661508709192
1772642653814960000,0.249960205078125,0.002317935461178422,-0.0012328256852924824,-0.005921636242419481
1772642653825001200,0.260001220703125,0.010526331141591072,-0.0044869426637887955,0.0060775019228458405
1772642653835043000,0.27004296875,0.023048035800457,-0.00981320533901453,0.013606972992420197
1772642653845084200,0.280084228515625,0.013656399212777615,-0.007199578918516636,0.016982262954115868
1772642653855125200,0.290125244140625,-0.001545551000162959,0.0009869668865576386,0.015402255579829216
1772642653865167000,0.3001669921875,-0.008348063565790653,0.0032684970647096634,0.023816246539354324
1772642653875208200,0.310208251953125,-0.011569705791771412,-0.0001732580130919814,0.035874299705028534
1772642653885250300,0.320250244140625,-0.008231699466705322,-0.003689429722726345,0.03297651559114456
1772642653895291400,0.33029150390625,-0.00030884111765772104,-0.007002030033618212,0.021251007914543152
1772642653905332200,0.340332275390625,0.0015660242643207312,-0.006995105650275946,0.011439124122262001
1772642653915374300,0.350374267578125,0.0028373596724122763,-0.008118754252791405,0.00981413945555687
1772642653925415200,0.360415283203125,0.0008612941019237041,-0.01149377878755331,0.009539567865431309
1772642653935457300,0.370457275390625,-0.0006618755287490785,-0.013281765393912792,0.01329893060028553
1772642653945498000,0.380498046875,0.0004963331739418209,-0.010130446404218674,0.01739487238228321
1772642653955540200,0.390540283203125,0.0028417056892067194,-0.007012097630649805,0.01609618403017521
1772642653965581000,0.4005810546875,0.002462737960740924,-0.0017068148590624332,0.011587717570364475
1772642653975622100,0.4106220703125,0.0024822524283081293,0.0038735191337764263,0.007803230546414852
1772642653985664300,0.420664306640625,0.0002292181015945971,0.005017346702516079,-0.0004986415151506662
1772642653995705000,0.430705078125,0.002651756862178445,0.0021939135622233152,-0.008106650784611702
1772642654005747200,0.440747314453125,0.008236405439674854,-0.005212603602558374,-0.009816667065024376
1772642654015788300,0.450788330078125,0.011364665813744068,-0.005841477774083614,-0.00858478806912899
1772642654025829400,0.460829345703125,0.017030276358127594,-0.0052760886028409,-0.01357768289744854
1772642654035871200,0.470871337890625,0.021494025364518166,-0.007189251482486725,-0.021830826997756958
1772642654045912300,0.480912353515625,0.022655164822936058,-0.009850814938545227,-0.03069302998483181
1772642654055954200,0.4909541015625,0.02135775424540043,-0.01621428318321705,-0.0388423316180706
1772642654065995300,0.500995361328125,0.020119117572903633,-0.03173412010073662,-0.04480515047907829
1772642654076036000,0.5110361328125,0.02291540987789631,-0.05005059763789177,-0.041543833911418915
1772642654086078200,0.521078125,0.028367431834340096,-0.0613676980137825,-0.02586793527007103
1772642654096119000,0.531119140625,0.033591076731681824,-0.05604606121778488,-0.007027396932244301
1772642654106161200,0.5411611328125,0.03829767927527428,-0.046498365700244904,-0.007078262977302074
1772642654116202200,0.5512021484375,0.03582482412457466,-0.039076030254364014,-0.010377290658652782
1772642654126243000,0.5612431640625,0.031760040670633316,-0.03513268753886223,-0.019973192363977432
1772642654136285200,0.57128515625,0.027842463925480843,-0.03719637542963028,-0.032523103058338165
1772642654146326300,0.581326171875,0.029948225244879723,-0.04779442399740219,-0.03590771183371544
1772642654156368100,0.5913681640625,0.03259064629673958,-0.05017794668674469,-0.030440306290984154
1772642654166409200,0.6014091796875,0.03530600666999817,-0.04868337884545326,-0.017969254404306412
1772642654176451300,0.611451416015625,0.03714790195226669,-0.035685449838638306,-0.014452039264142513
1772642654186492200,0.6214921875,0.03471004217863083,-0.015309606678783894,-0.016132228076457977
1772642654196533200,0.631533203125,0.03438248857855797,0.008695493452250957,-0.024110479280352592
1772642654206575000,0.6415751953125,0.030345134437084198,0.030810117721557617,-0.03256361931562424
1772642654216616200,0.6516162109375,0.030046869069337845,0.045581016689538956,-0.0419522188603878
1772642654226658300,0.661658203125,0.02796241268515587,0.06240953132510185,-0.04157538339495659
1772642654236699400,0.671699462890625,0.026086941361427307,0.07754938304424286,-0.04146605730056763
1772642654246740200,0.681740234375,0.02280566096305847,0.10104965418577194,-0.04399552568793297
1772642654256782300,0.6917822265625,0.01927230879664421,0.11661770194768906,-0.04562347009778023
1772642654266823200,0.7018232421875,0.00909583643078804,0.13183073699474335,-0.041999705135822296
1772642654276865300,0.711865234375,-0.0013925819657742977,0.14377523958683014,-0.03792241960763931
1772642654286906400,0.72190625,-0.00897220429033041,0.15530432760715485,-0.029172072187066078
1772642654296947200,0.731947265625,-0.011330148205161095,0.17587362229824066,-0.027041129767894745
1772642654306989300,0.7419892578125,-0.008686695247888565,0.2002018690109253,-0.03157489746809006
1772642654317030100,0.752030029296875,-0.007436664309352636,0.22300085425376892,-0.04853302240371704
1772642654327072300,0.762072265625,-0.006162075325846672,0.2389659732580185,-0.07428818941116333
1772642654337113000,0.772113037109375,-0.008213288150727749,0.24813294410705566,-0.08936741203069687
1772642654347154200,0.782154296875,-0.01415160484611988,0.24831457436084747,-0.09970207512378693
1772642654357196300,0.7921962890625,-0.018068790435791016,0.24267646670341492,-0.09495028108358383
1772642654367237400,0.8022373046875,-0.018980391323566437,0.23377138376235962,-0.0855671688914299
1772642654377279200,0.812279296875,-0.022224750369787216,0.22559040784835815,-0.07916061580181122
1772642654387320300,0.8223203125,-0.028898898512125015,0.2103656530380249,-0.07420288026332855
1772642654397361200,0.832361083984375,-0.034983567893505096,0.19211137294769287,-0.0667383000254631
1772642654407403300,0.8424033203125,-0.03939775750041008,0.17356298863887787,-0.059406887739896774
1772642654417444400,0.8524443359375,-0.03912937268614769,0.15443986654281616,-0.05056074634194374
1772642654427486200,0.862486328125,-0.03319665044546127,0.14017383754253387,-0.04102103412151337
1772642654437527300,0.87252734375,-0.027006050571799278,0.12983852624893188,-0.04040427505970001
1772642654447568100,0.882568115234375,-0.020202206447720528,0.11580793559551239,-0.04573965445160866
1772642654457610200,0.8926103515625,-0.014364738948643208,0.09454509615898132,-0.056237392127513885
1772642654467651000,0.902651123046875,-0.0047994633205235004,0.07231036573648453,-0.0675896555185318
1772642654477693400,0.912693359375,0.0055296882055699825,0.049584172666072845,-0.07133141905069351
1772642654487734300,0.922734375,0.01509602926671505,0.026964614167809486,-0.06859342008829117
1772642654497776400,0.9327763671875,0.018969882279634476,0.0017318050377070904,-0.06259103864431381
1772642654507817200,0.942817138671875,0.01864337921142578,-0.03153640404343605,-0.0507945716381073
1772642654517858300,0.9528583984375,0.0188316460698843,-0.06424998492002487,-0.0335875041782856
1772642654527900200,0.962900146484375,0.017182350158691406,-0.08980141580104828,-0.027804983779788017
1772642654537941200,0.972941162109375,0.01435604877769947,-0.1097845509648323,-0.032669346779584885
1772642654547983000,0.982983154296875,0.015083091333508492,-0.12258823215961456,-0.03978398069739342
1772642654558024200,0.993024169921875,0.017367133870720863,-0.13337813317775726,-0.036079999059438705
1772642654568065300,1.003065185546875,0.01511942595243454,-0.13814280927181244,-0.024567682296037674
1772642654578107100,1.013107177734375,0.013415748253464699,-0.13921110332012177,-0.024749288335442543
1772642654588148200,1.023148193359375,0.01198083721101284,-0.13611756265163422,-0.03915965184569359
1772642654598190300,1.0331904296875,0.009992493316531181,-0.14016856253147125,-0.06965550035238266
1772642654608231400,1.0432314453125,0.011384794488549232,-0.14737294614315033,-0.09449826180934906
1772642654618272300,1.053272216796875,0.014205081388354301,-0.16322541236877441,-0.11473508924245834
1772642654628314400,1.063314453125,0.029770992696285248,-0.20883338153362274,-0.1420452743768692
1772642654638355200,1.073355224609375,0.04159403219819069,-0.25190576910972595,-0.1593037098646164
1772642654648397300,1.083397216796875,0.06275178492069244,-0.3014408349990845,-0.14774666726589203
1772642654658438100,1.093438232421875,0.05320334807038307,-0.3367162346839905,-0.15618638694286346
1772642654668479200,1.103479248046875,0.053863275796175,-0.3759147524833679,-0.15161241590976715
1772642654678521000,1.11352099609375,0.07295676320791245,-0.3825898766517639,-0.1386357694864273
1772642654688561700,1.123561767578125,0.07963011413812637,-0.37632080912590027,-0.13929463922977448
1772642654698603500,1.133603515625,0.09414985775947571,-0.36931368708610535,-0.13779142498970032
1772642654708644600,1.14364453125,0.10320966690778732,-0.3321916460990906,-0.12694276869297028
1772642654718685700,1.153685791015625,0.1015910804271698,-0.2946379780769348,-0.1149151623249054
1772642654728727600,1.1637275390625,0.09385113418102264,-0.2650361657142639,-0.10489847511053085
1772642654738768600,1.1737685546875,0.07858771830797195,-0.22894515097141266,-0.10425174236297607
1772642654748810500,1.183810546875,0.07048824429512024,-0.19998593628406525,-0.11251766234636307
1772642654758851600,1.1938515625,0.06541448086500168,-0.16580766439437866,-0.12399826943874359
1772642654768892400,1.203892333984375,0.06594818085432053,-0.13914889097213745,-0.11988101899623871
1772642654778934800,1.213934814453125,0.06731393933296204,-0.12639442086219788,-0.09443822503089905
1772642654788975600,1.2239755859375,0.06565771996974945,-0.11900921165943146,-0.06365900486707687
1772642654799017700,1.234017822265625,0.05910838395357132,-0.11033109575510025,-0.0422205775976181
1772642654809058600,1.24405859375,0.049869079142808914,-0.09822702407836914,-0.033321358263492584
1772642654819099600,1.254099609375,0.04209725558757782,-0.08067983388900757,-0.044428110122680664
1772642654829141500,1.2641416015625,0.02861393615603447,-0.057744693011045456,-0.060139697045087814
1772642654839182600,1.2741826171875,0.014308320358395576,-0.03257530927658081,-0.07644657790660858
1772642654849224400,1.284224365234375,-0.00041150383185595274,-0.008027354255318642,-0.08621904253959656
1772642654859265500,1.294265625,-0.011133352294564247,0.013477357104420662,-0.08490180969238281
1772642654869306600,1.304306640625,-0.020313000306487083,0.03146008774638176,-0.07688489556312561
1772642654879348500,1.314348388671875,-0.02281414158642292,0.05334008112549782,-0.06523877382278442
1772642654889389600,1.3243896484375,-0.016928022727370262,0.07203573733568192,-0.048096269369125366
1772642654899431700,1.334431640625,-0.01128168124705553,0.08554510027170181,-0.03571125492453575
1772642654909472800,1.34447265625,-0.005648563615977764,0.09040537476539612,-0.027477294206619263
1772642654919513600,1.354513671875,-0.0055433958768844604,0.09155953675508499,-0.026259953156113625
1772642654929555700,1.3645556640625,-0.010693149641156197,0.08792432397603989,-0.0343644842505455
1772642654939596500,1.374596435546875,-0.0183000098913908,0.08596988022327423,-0.04721276834607124
1772642654949638700,1.384638671875,-0.022001804783940315,0.08414454758167267,-0.05851256102323532
1772642654959679500,1.394679443359375,-0.026544498279690742,0.08439972996711731,-0.06446941196918488
1772642654969720600,1.404720458984375,-0.029088083654642105,0.08265881985425949,-0.06866709142923355
1772642654979762400,1.414762451171875,-0.02912858873605728,0.08176208287477493,-0.06573893129825592
1772642654989803500,1.424803466796875,-0.031253259629011154,0.07993941754102707,-0.05978117138147354
1772642654999845600,1.434845703125,-0.027469433844089508,0.07602185010910034,-0.05150742828845978
1772642655009886500,1.444886474609375,-0.026721350848674774,0.0743403285741806,-0.03744274377822876
1772642655019927600,1.454927490234375,-0.027302512899041176,0.07125233858823776,-0.02511345036327839
1772642655029969700,1.4649697265625,-0.02589450031518936,0.06385967135429382,-0.019786329939961433
1772642655040010800,1.4750107421875,-0.02678261138498783,0.05356879532337189,-0.015594801865518093
1772642655050052600,1.485052490234375,-0.029495039954781532,0.04077630117535591,-0.009181643836200237
1772642655060093700,1.49509375,-0.034129928797483444,0.027106180787086487,-0.0028151266742497683
1772642655070134500,1.505134521484375,-0.038159288465976715,0.01409956905990839,0.0014384742826223373
1772642655080176600,1.5151767578125,-0.039554718881845474,0.0027635616715997458,0.008705205284059048
1772642655090217500,1.525217529296875,-0.038349103182554245,-0.002998187206685543,0.020289156585931778
1772642655100259600,1.535259521484375,-0.033694177865982056,-0.0031674664933234453,0.02629373036324978
1772642655110300400,1.545300537109375,-0.030217690393328667,0.001017158618196845,0.03660708665847778
1772642655120341500,1.555341552734375,-0.027762334793806076,0.008154275827109814,0.04149136319756508
1772642655130383600,1.565383544921875,-0.024767344817519188,0.017230596393346786,0.042785391211509705
1772642655140424400,1.575424560546875,-0.020492151379585266,0.017610739916563034,0.04157780483365059
1772642655150466600,1.585466552734375,-0.017706219106912613,0.018805965781211853,0.04220817610621452
1772642655160507600,1.595507568359375,-0.01462566014379263,0.016263065859675407,0.04141424968838692
1772642655170548700,1.605548828125,-0.012834683991968632,0.01681380718946457,0.04185207188129425
1772642655180590600,1.615590576171875,-0.005882409401237965,0.014909171499311924,0.044026561081409454
1772642655190631700,1.625631591796875,-0.002679957775399089,0.011192730627954006,0.03782299533486366
1772642655200673500,1.635673583984375,0.0006872355006635189,0.007045449689030647,0.0317947082221508
1772642655210714600,1.645714599609375,0.0032356143929064274,0.006178057752549648,0.033076755702495575
1772642655220755500,1.65575537109375,0.000923365238122642,0.0070043811574578285,0.0356363020837307
1772642655230797600,1.665797607421875,0.003401436610147357,0.007840613834559917,0.04233016073703766
1772642655240838400,1.67583837890625,0.002208567690104246,0.006225187797099352,0.048512112349271774
1772642655250880800,1.685880859375,-0.0007693791994825006,0.008282746188342571,0.05594179779291153
1772642655260921600,1.695921630859375,-0.005156677681952715,0.010158735327422619,0.060250163078308105
1772642655270962700,1.705962646484375,-0.009902697056531906,0.009043935686349869,0.06107787415385246
1772642655281004500,1.716004638671875,-0.010634333826601505,0.009332884103059769,0.06380332261323929
1772642655291045600,1.726045654296875,-0.007719769608229399,0.0086178258061409,0.0658867135643959
1772642655301087700,1.736087646484375,-0.007084892597049475,0.008584425784647465,0.06905784457921982
1772642655311128600,1.746128662109375,-0.0021276846528053284,0.00939429271966219,0.06991191953420639
1772642655321169700,1.756169677734375,-0.0005406603449955583,0.009516160935163498,0.0649053230881691
1772642655331211500,1.76621142578125,-0.0024597342126071453,0.01034413743764162,0.061168376356363297
1772642655341252600,1.776252685546875,-0.005298231262713671,0.012020866386592388,0.0604792982339859
1772642655351294500,1.78629443359375,-0.011332687921822071,0.014644878916442394,0.0656152069568634
1772642655361335600,1.79633544921875,-0.0113596860319376,0.022924115881323814,0.07486983388662338
1772642655371376600,1.806376708984375,-0.012434271164238453,0.029025418683886528,0.09002348780632019
1772642655381418800,1.816418701171875,-0.012125438079237938,0.03559591621160507,0.10760059952735901
1772642655391459600,1.82645947265625,-0.007635081652551889,0.03715759143233299,0.12475428730249405
1772642655401501700,1.836501708984375,-0.002992566442117095,0.0355919748544693,0.13579097390174866
1772642655411542500,1.84654248046875,0.003788374364376068,0.03624871000647545,0.137520432472229
1772642655421583600,1.85658349609375,0.012616101652383804,0.032775573432445526,0.13786904513835907
1772642655431625700,1.866625732421875,0.024121489375829697,0.029949160292744637,0.14462202787399292
1772642655441666600,1.87666650390625,0.03536023199558258,0.028151482343673706,0.15114906430244446
1772642655451708700,1.886708740234375,0.042057283222675323,0.025261953473091125,0.14775247871875763
1772642655461749500,1.89674951171875,0.04339303448796272,0.018920110538601875,0.13285793364048004
1772642655471790600,1.90679052734375,0.037576958537101746,0.008945241570472717,0.1089150533080101
1772642655481832400,1.91683251953125,0.02989453636109829,-0.0004354770644567907,0.08933603018522263
1772642655491873500,1.92687353515625,0.019282370805740356,-0.009894225746393204,0.07585351169109344
1772642655501915600,1.93691552734375,0.008868886157870293,-0.019153030589222908,0.07148841768503189
1772642655511956700,1.946956787109375,-0.0017062595579773188,-0.02728605829179287,0.07641100883483887
1772642655521997600,1.95699755859375,-0.013248939998447895,-0.03167195990681648,0.08489840477705002
1772642655532039700,1.967039794921875,-0.021042414009571075,-0.03426295146346092,0.09418617933988571
1772642655542080800,1.977080810546875,-0.03194840997457504,-0.030404409393668175,0.09256519377231598
1772642655552122600,1.98712255859375,-0.039725106209516525,-0.018843892961740494,0.07861768454313278
1772642655562163700,1.997163818359375,-0.03513643518090248,-0.00673034368082881,0.0669766217470169
1772642655572204500,2.00720458984375,-0.029125679284334183,-0.004523115698248148,0.050841592252254486
1772642655582246700,2.01724658203125,-0.04582950845360756,0.003649696009233594,0.02138647437095642
1772642655592287500,2.02728759765625,-0.04575040936470032,0.022525649517774582,0.003343290649354458
1772642655602329600,2.03732958984375,-0.04413379728794098,0.04103882610797882,-0.008614705875515938
1772642655612370400,2.047370361328125,-0.03716057538986206,0.04813428595662117,-0.007866090163588524
1772642655622411500,2.05741162109375,-0.0315265990793705,0.040981099009513855,0.0006849820492789149
1772642655632453600,2.06745361328125,-0.03027757629752159,0.03902314230799675,0.004688778426498175
1772642655642494700,2.07749462890625,-0.026716498658061028,0.04974875971674919,0.003182108048349619
1772642655652536600,2.08753662109375,-0.0251737292855978,0.050979673862457275,-0.002515192376449704
1772642655662577700,2.09757763671875,-0.025387028232216835,0.03465884551405907,-0.009242035448551178
1772642655672618800,2.10761865234375,-0.022990982979536057,0.026513569056987762,-0.012311061844229698
1772642655682660600,2.11766064453125,-0.026361025869846344,0.022715214639902115,-0.014630904421210289
1772642655692702000,2.127701904296875,-0.026199638843536377,0.019992930814623833,-0.012958439067006111
1772642655702744000,2.137744140625,-0.026298468932509422,0.02039901353418827,-0.010709120891988277
1772642655712785000,2.147784912109375,-0.025041189044713974,0.016679909080266953,0.0006644412642344832
1772642655722826000,2.157825927734375,-0.024516694247722626,0.01446186751127243,0.004959327168762684
1772642655732868000,2.1678681640625,-0.018715795129537582,0.021608727052807808,0.008889088407158852
1772642655742909200,2.1779091796875,-0.014730176888406277,0.03267468884587288,0.006299932021647692
1772642655752950300,2.1879501953125,-0.01107898261398077,0.038359470665454865,0.005423219408839941
1772642655762992000,2.1979921875,-0.015589192509651184,0.034966979175806046,0.004625875502824783
1772642655773033200,2.208033203125,-0.02194402739405632,0.026122886687517166,0.012570085003972054
1772642655783075000,2.218074951171875,-0.026473598554730415,0.01638317108154297,0.025515679270029068
1772642655793116200,2.2281162109375,-0.028923971578478813,0.004207463935017586,0.03930153325200081
1772642655803157000,2.238156982421875,-0.027698513120412827,-0.011530801653862,0.04468261078000069
1772642655813199000,2.24819921875,-0.023345574736595154,-0.035144515335559845,0.05068564414978027
1772642655823240000,2.258239990234375,-0.016155194491147995,-0.04849371314048767,0.05187598243355751
1772642655833282000,2.268281982421875,-0.007539867423474789,-0.052604302763938904,0.04133785516023636
1772642655843323000,2.278322998046875,-0.0010200826218351722,-0.047455083578825,0.026067938655614853
1772642655853364000,2.288364013671875,0.007748907431960106,-0.04119159281253815,0.010478858835995197
1772642655863406000,2.298406005859375,0.018352927640080452,-0.03129272907972336,0.007004668936133385
1772642655873447200,2.308447265625,0.025775691494345665,-0.029880184680223465,0.012405559420585632
1772642655883489000,2.318489013671875,0.03204229101538658,-0.030712002888321877,0.025156326591968536
1772642655893530000,2.328530029296875,0.039880771189928055,-0.0291665717959404,0.03233274817466736
1772642655903571200,2.3385712890625,0.04129694029688835,-0.03342043608427048,0.030695317313075066
1772642655913613000,2.348613037109375,0.043118808418512344,-0.042369719594717026,0.018789654597640038
1772642655923654100,2.358654052734375,0.043619051575660706,-0.04637538269162178,0.0009660355281084776
1772642655933696000,2.368696044921875,0.04285552352666855,-0.0508287213742733,-0.010291945189237595
1772642655943737000,2.378737060546875,0.03915395587682724,-0.04904382675886154,-0.01308271661400795
1772642655953778000,2.38877783203125,0.03728441521525383,-0.04626668244600296,-0.011734623461961746
1772642655963820300,2.3988203125,0.035009417682886124,-0.0396873913705349,-0.007960762828588486
1772642655973861000,2.408861083984375,0.032615501433610916,-0.030116789042949677,-0.005536487326025963
1772642655983903200,2.4189033203125,0.03214828297495842,-0.02303064800798893,-0.0033008812461048365
1772642655993944000,2.428944091796875,0.02985210530459881,-0.017463842406868935,-0.0004305262118577957
1772642656003985200,2.438985107421875,0.030327826738357544,-0.014635412022471428,0.0036885468289256096
1772642656014027000,2.449027099609375,0.02842686139047146,-0.013819952495396137,0.008254003711044788
1772642656024068000,2.459068115234375,0.027796246111392975,-0.011879995465278625,0.012758630327880383
1772642656034110000,2.46910986328125,0.025676636025309563,-0.010228569619357586,0.014649741351604462
1772642656044151000,2.479151123046875,0.024658096954226494,-0.011618099175393581,0.012745853513479233
1772642656054192000,2.489192138671875,0.021345390006899834,-0.013782982714474201,0.01089042890816927
1772642656064234000,2.49923388671875,0.021921798586845398,-0.018709566444158554,0.008761349134147167
1772642656074275000,2.509275146484375,0.020957734435796738,-0.02488304115831852,0.008307280018925667
1772642656084317200,2.519317138671875,0.02047046087682247,-0.030277423560619354,0.01203642226755619
1772642656094358300,2.529358154296875,0.022004975005984306,-0.03411264345049858,0.019101256504654884
1772642656104399000,2.539399169921875,0.019180553033947945,-0.03336770460009575,0.02535100281238556
1772642656114441200,2.549441162109375,0.01921970210969448,-0.031536515802145004,0.027621081098914146
1772642656124482000,2.55948193359375,0.01673935167491436,-0.02781357802450657,0.02904454804956913
1772642656134524200,2.569524169921875,0.013212262652814388,-0.024250533431768417,0.029438696801662445
1772642656144565000,2.57956494140625,0.009731544181704521,-0.02038256637752056,0.037643447518348694
1772642656154606000,2.589606201171875,0.009595722891390324,-0.01718038134276867,0.047223638743162155
1772642656164648000,2.59964794921875,0.008662824518978596,-0.014443491585552692,0.054875653237104416
1772642656174689000,2.60968896484375,0.006372505333274603,-0.013904201798141003,0.05720245838165283
1772642656184730000,2.619730224609375,0.002742218319326639,-0.012968641705811024,0.06072203069925308
1772642656194772000,2.62977197265625,-0.0012527896324172616,-0.011505501344799995,0.06301261484622955
1772642656204813000,2.63981298828125,-0.006500289309769869,-0.01006200909614563,0.06837718933820724
1772642656214855200,2.649855224609375,-0.009259856306016445,-0.00672560092061758,0.07612618803977966
1772642656224896300,2.659896240234375,-0.011686629615724087,-0.0013739769347012043,0.0843038335442543
1772642656234937000,2.66993701171875,-0.01756635680794716,0.0029161092825233936,0.08824051916599274
1772642656244979200,2.679979248046875,-0.023233722895383835,0.009710039012134075,0.08726415783166885
1772642656255020000,2.69002001953125,-0.026169059798121452,0.011732443235814571,0.08305210620164871
1772642656265062100,2.700062255859375,-0.03035358339548111,0.010481555014848709,0.07858902961015701
1772642656275103000,2.71010302734375,-0.0324215292930603,0.009549448266625404,0.07984177768230438
1772642656285144000,2.72014404296875,-0.03447519987821579,0.009024599567055702,0.08531702309846878
1772642656295186000,2.73018603515625,-0.03447999432682991,0.011947419494390488,0.09223804622888565
1772642656305227000,2.74022705078125,-0.03654293715953827,0.013461096212267876,0.09552125632762909
1772642656315269000,2.75026904296875,-0.03846573829650879,0.01680389605462551,0.0959087461233139
1772642656325310000,2.76031005859375,-0.040545426309108734,0.016204899176955223,0.09116647392511368
1772642656335351000,2.77035107421875,-0.04076407104730606,0.014401141554117203,0.0819263681769371
1772642656345393200,2.78039306640625,-0.037907812744379044,0.011989758349955082,0.07462866604328156
1772642656355434200,2.790434326171875,-0.03601084277033806,0.012760743498802185,0.0682879388332367
1772642656365476000,2.80047607421875,-0.029186487197875977,0.009318549185991287,0.06194838508963585
1772642656375517200,2.81051708984375,-0.027790991589426994,0.005295844748616219,0.058375757187604904
1772642656385558000,2.82055810546875,-0.0293752308934927,0.006545612122863531,0.05855724215507507
1772642656395600100,2.83060009765625,-0.028821026906371117,0.008558428846299648,0.05697053298354149
1772642656405641000,2.840640869140625,-0.02754635363817215,0.012090694159269333,0.05162202566862106
1772642656415683000,2.85068310546875,-0.025894660502672195,0.01947457529604435,0.048034217208623886
1772642656425724000,2.860723876953125,-0.025242671370506287,0.026403747498989105,0.0451621413230896
1772642656435765000,2.870764892578125,-0.025124158710241318,0.03695519268512726,0.04094688594341278
1772642656445807000,2.88080712890625,-0.024027498438954353,0.041810616850852966,0.0392315611243248
1772642656455848200,2.89084814453125,-0.025713544338941574,0.044622115790843964,0.03483548015356064
1772642656465890000,2.90089013671875,-0.02422558329999447,0.04454472288489342,0.034085772931575775
1772642656475931100,2.91093115234375,-0.026168093085289,0.04403366148471832,0.03635798394680023
1772642656485972200,2.92097216796875,-0.02533368580043316,0.042660754173994064,0.03694126009941101
1772642656496014000,2.93101416015625,-0.02713770978152752,0.04352201893925667,0.0323433093726635
1772642656506055200,2.94105517578125,-0.03204558789730072,0.04454471915960312,0.025417037308216095
1772642656516097000,2.951096923828125,-0.03376732021570206,0.04220619797706604,0.021615108475089073
1772642656526138000,2.96113818359375,-0.03168688714504242,0.039530735462903976,0.023460958153009415
1772642656536179000,2.971178955078125,-0.02795819751918316,0.03993500396609306,0.024556316435337067
1772642656546221000,2.981220947265625,-0.024899188429117203,0.03820048272609711,0.025507181882858276
1772642656556262100,2.99126220703125,-0.02042720839381218,0.03887133300304413,0.019730787724256516
1772642656566303000,3.001302978515625,-0.02108713984489441,0.03672162815928459,0.012450235895812511
1772642656576345000,3.011344970703125,-0.019026385620236397,0.0351860485970974,0.004847177769988775
1772642656586386200,3.02138623046875,-0.015048828907310963,0.032596174627542496,-0.0001259052660316229
1772642656596428000,3.031427978515625,-0.012648789212107658,0.028402229771018028,-0.002367488108575344
1772642656606469000,3.04146923828125,-0.012207896448671818,0.02227238193154335,-0.005196934100240469
1772642656616510200,3.05151025390625,-0.012256365269422531,0.016475746408104897,-0.006537836045026779
1772642656626552000,3.061552001953125,-0.009951472282409668,0.009511899203062057,-0.006813070736825466
1772642656636593200,3.07159326171875,-0.006794294808059931,0.004288375843316317,-0.007123062387108803
1772642656646635000,3.081635009765625,-0.006378981750458479,-0.002909833798184991,-0.006012686528265476
1772642656656676000,3.091676025390625,-0.00043906766222789884,-0.006990328896790743,-0.0056899115443229675
1772642656666717000,3.101717041015625,0.002744282130151987,-0.006603958085179329,-0.006665030959993601
1772642656676759000,3.111759033203125,0.008507096208631992,-0.0100381039083004,-0.008308734744787216
1772642656686799600,3.121799560546875,0.012494667433202267,-0.01274323370307684,-0.0095051359385252
1772642656696841500,3.131841552734375,0.016261441633105278,-0.016912411898374557,-0.009118711575865746
1772642656706882600,3.141882568359375,0.016021298244595528,-0.02260736934840679,-0.011614762246608734
1772642656716923400,3.15192333984375,0.017382174730300903,-0.02525242045521736,-0.011497050523757935
1772642656726965500,3.161965576171875,0.015208395197987556,-0.028614867478609085,-0.013731127604842186
1772642656737006300,3.17200634765625,0.013187321834266186,-0.029925940558314323,-0.010859973728656769
1772642656747048400,3.18204833984375,0.013144465163350105,-0.03066672571003437,-0.006871737074106932
1772642656757089300,3.19208935546875,0.012778546661138535,-0.03167632594704628,-0.00341735128313303
1772642656767130400,3.20213037109375,0.013160770758986473,-0.03054869920015335,0.0014701593900099397
1772642656777172500,3.21217236328125,0.01386704109609127,-0.028275690972805023,0.0038877769839018583
1772642656787213600,3.222213623046875,0.01669664867222309,-0.02374432422220707,0.005196454003453255
1772642656797255400,3.23225537109375,0.017001846805214882,-0.019276337698101997,0.003091758117079735
1772642656807296500,3.242296630859375,0.015735328197479248,-0.014908067882061005,0.004017966799438
1772642656817337600,3.252337646484375,0.014480180107057095,-0.0130169577896595,0.0031875930726528168
1772642656827379500,3.26237939453125,0.014103509485721588,-0.012174863368272781,0.002960841404274106
1772642656837420500,3.272420654296875,0.010833680629730225,-0.009839271195232868,0.003938221372663975
1772642656847462400,3.28246240234375,0.010722885839641094,-0.007779523730278015,0.0030502253212034702
1772642656857503500,3.29250341796875,0.010768959298729897,-0.005325420759618282,0.004414563067257404
1772642656867544300,3.30254443359375,0.007435047533363104,-0.0007280082791112363,0.002770178485661745
1772642656877586400,3.31258642578125,0.006279502063989639,-0.0004225436714477837,0.00012912158854305744
1772642656887627300,3.322627197265625,0.004790801554918289,-0.0007850589463487267,-0.00338934944011271
1772642656897668400,3.33266845703125,0.0020858286879956722,0.0004642298736143857,-0.0013578901998698711
1772642656907710500,3.34271044921875,0.003811783390119672,0.00010530167492106557,-0.0006595284212380648
1772642656917751600,3.35275146484375,0.005927931051701307,-0.0027392206247895956,-0.0009767110459506512
1772642656927793400,3.36279345703125,0.006486183498054743,-0.0017201922601088881,-0.001528807682916522
1772642656937834500,3.37283447265625,0.004904798232018948,0.0007006211671978235,-0.005758972838521004
1772642656947875600,3.38287548828125,0.005334439221769571,0.0005423757247626781,-0.009334136731922626
1772642656957917400,3.39291748046875,0.004303529858589172,-0.001974577782675624,-0.010552532970905304
1772642656967958500,3.40295849609375,0.004825855605304241,-0.006363313645124435,-0.00908942986279726
1772642656978000400,3.41300048828125,0.005497238133102655,-0.00852207187563181,-0.007184737361967564
1772642656988041500,3.42304150390625,0.004151709843426943,-0.010290673933923244,-0.00537523627281189
1772642656998082300,3.433082275390625,0.0031290557235479355,-0.009654178284108639,-0.0042937262915074825
1772642657008124700,3.443124755859375,0.005028302315622568,-0.01002579741179943,-0.0033264728263020515
1772642657018165500,3.45316552734375,0.003543856320902705,-0.008633497171103954,-0.007659968454390764
1772642657028207600,3.46320751953125,0.0005216944846324623,-0.008801217190921307,-0.009832141920924187
1772642657038248400,3.47324853515625,-0.00035395286977291107,-0.00831678882241249,-0.013187192380428314
1772642657048289500,3.48328955078125,-0.00008863600669428706,-0.010554105043411255,-0.013439364731311798
1772642657058331400,3.493331298828125,-0.0002060813712887466,-0.010833471082150936,-0.010053422302007675
1772642657068372500,3.50337255859375,0.002985704457387328,-0.012370283715426922,-0.008719763718545437
1772642657078414300,3.513414306640625,0.0013294846285134554,-0.011679459363222122,-0.007516015321016312
1772642657088455400,3.523455322265625,0.00414850702509284,-0.011860283091664314,-0.001926009077578783
1772642657098496500,3.53349658203125,0.0033913704100996256,-0.012636595405638218,-0.0028059175238013268
1772642657108538400,3.543538330078125,0.0034573900047689676,-0.012669935822486877,-0.0036956684198230505
1772642657118579500,3.553579345703125,0.002065888373181224,-0.009843256324529648,-0.0031960594933480024
1772642657128620300,3.563620361328125,0.001395504456013441,-0.010010507889091969,-0.0031649298034608364
1772642657138662700,3.57366259765625,-0.0010157215874642134,-0.009841131046414375,-0.0028935535810887814
1772642657148703500,3.583703369140625,-0.004616941325366497,-0.008681380189955235,-0.003770018694922328
1772642657158745600,3.59374560546875,-0.005955180153250694,-0.008565266616642475,-0.002697830321267247
1772642657168786400,3.603786376953125,-0.007649323903024197,-0.009292781352996826,0.0002559300046414137
1772642657178827500,3.61382763671875,-0.009674657136201859,-0.008359076455235481,0.0044293696992099285
1772642657188869400,3.623869384765625,-0.008184059523046017,-0.005375752225518227,0.0069353929720819
1772642657198910500,3.633910400390625,-0.009467170573771,-0.003357076086103916,0.005722855683416128
1772642657208952300,3.643952392578125,-0.011738261207938194,-0.00237160362303257,0.00541843194514513
1772642657218993400,3.653993408203125,-0.011848782189190388,-0.007497922517359257,0.008596116676926613
1772642657229035300,3.66403515625,-0.010501176118850708,-0.008860234171152115,0.014026443473994732
1772642657239076400,3.674076416015625,-0.008349607698619366,-0.0052636354230344296,0.011500169523060322
1772642657249117400,3.684117431640625,-0.010323490016162395,-0.0027095614932477474,0.0039029442705214024
1772642657259159600,3.69415966796875,-0.007059786003082991,-0.003919702023267746,-0.0004406713414937258
1772642657269200600,3.70420068359375,-0.006665857508778572,-0.00460929935798049,0.0003011617809534073
1772642657279241500,3.714241455078125,-0.007850165478885174,-0.0031139343045651913,0.000386915635317564
1772642657289283600,3.72428369140625,-0.008225810714066029,-0.00003926618956029415,-0.0017104861326515675
1772642657299324400,3.734324462890625,-0.00808093510568142,-0.0027306568808853626,-0.004021843429654837
1772642657309366500,3.744366455078125,-0.005889013409614563,-0.004319280851632357,-0.0026600067503750324
1772642657319407400,3.754407470703125,-0.005705255549401045,-0.010182230733335018,0.0012343334965407848
1772642657329448400,3.764448486328125,-0.001153480145148933,-0.011546565219759941,0.007475599646568298
1772642657339490300,3.774490234375,-0.002459494397044182,-0.010776379145681858,0.008606111630797386
1772642657349531400,3.784531494140625,-0.002173005137592554,-0.009638414718210697,0.006732280366122723
1772642657359573200,3.7945732421875,-0.0014424999244511127,-0.0076599521562457085,0.0020605633035302162
1772642657369614300,3.8046142578125,-0.0017658143769949675,-0.010058336891233921,-0.0016391989775002003
1772642657379655400,3.814655517578125,-0.0016536952462047338,-0.008405046537518501,-0.0007592905312776566
1772642657389697500,3.824697509765625,-0.0013220851542428136,-0.0062836771830916405,0.0014265080681070685
1772642657399738600,3.834738525390625,-0.0011226144852116704,-0.0017935880459845066,0.0007727020420134068
1772642657409780500,3.844780517578125,-0.0017890769522637129,-0.0026585336308926344,-0.002021114807575941
1772642657419821600,3.854821533203125,-0.0027214495930820704,-0.003962151240557432,-0.004463233519345522
1772642657429862400,3.8648623046875,-0.0011515767546370625,-0.006487139035016298,-0.0053346967324614525
1772642657439904500,3.874904541015625,-0.0002474336652085185,-0.009135918691754341,-0.006023923400789499
1772642657449945300,3.8849453125,0.0008995570824481547,-0.013056103140115738,-0.002284787129610777
1772642657459987500,3.894987548828125,0.0009307161089964211,-0.013685674406588078,0.0010492242872714996
1772642657470028300,3.9050283203125,0.0013626542640849948,-0.011166907846927643,-0.0036296702455729246
1772642657480069400,3.9150693359375,0.000024682085495442152,-0.008781515061855316,-0.009035887196660042
1772642657490111500,3.925111572265625,-0.0017846960108727217,-0.0070640938356518745,-0.011436181142926216
1772642657500152600,3.935152587890625,-0.002071252092719078,-0.003434737678617239,-0.012491592206060886
1772642657510194400,3.9451943359375,-0.002793861087411642,-0.0036057690158486366,-0.009628446772694588
1772642657520235500,3.955235595703125,-0.0015285933623090386,-0.004226551856845617,-0.006536517292261124
1772642657530276600,3.965276611328125,-0.004305624403059483,-0.005964098498225212,-0.0036220464389771223
1772642657540318500,3.975318359375,-0.00341825932264328,-0.006593137048184872,-0.004297956824302673
1772642657550359600,3.985359619140625,-0.0011780012864619493,-0.007255257107317448,-0.00523662194609642
1772642657560400400,3.995400390625,0.0005871417233720422,-0.007508257403969765,-0.005000399425625801
1772642657570442500,4.0054423828125,0.004002666100859642,-0.008544649928808212,-0.007189895026385784
1772642657580483300,4.0154833984375,0.005688447039574385,-0.009090597741305828,-0.010624040849506855
1772642657590525400,4.025525390625,0.005612693261355162,-0.009224395267665386,-0.009372095577418804
1772642657600566300,4.035566162109375,0.005446245428174734,-0.00846086721867323,-0.009923635981976986
1772642657610607400,4.045607421875,0.0039014723151922226,-0.00882540550082922,-0.010256693698465824
1772642657620649500,4.0556494140625,0.0036308951675891876,-0.010308253578841686,-0.013518266379833221
1772642657630690600,4.065690673828125,0.0017911966424435377,-0.0134005481377244,-0.015999479219317436
1772642657640732400,4.075732421875,0.0019488558173179626,-0.013778184540569782,-0.013650836423039436
1772642657650773500,4.0857734375,0.004271771293133497,-0.012190734967589378,-0.013428512029349804
1772642657660814600,4.095814697265625,0.0028544371016323566,-0.012073023244738579,-0.012294537387788296
1772642657670856400,4.1058564453125,0.004408312030136585,-0.010919495485723019,-0.011060924269258976
1772642657680897500,4.1158974609375,0.002859683707356453,-0.009579925797879696,-0.011500346474349499
1772642657690939600,4.125939697265625,0.0022262176498770714,-0.008673121221363544,-0.012332731857895851
1772642657700980700,4.135980712890625,0.003085619769990444,-0.006982546765357256,-0.01238998956978321
1772642657711021600,4.146021484375,0.003106605028733611,-0.005528564099222422,-0.01174894254654646
1772642657721063700,4.156063720703125,0.00399689981713891,-0.0023591360077261925,-0.013102094642817974
1772642657731104500,4.1661044921875,0.005002463236451149,-0.003409115131944418,-0.011670788750052452
1772642657741147000,4.17614697265625,0.0034562316723167896,-0.0009944271296262741,-0.011227904818952084
1772642657751187700,4.186187744140625,0.0009778274688869715,-0.0037598581984639168,-0.008472628891468048
1772642657761228800,4.196228759765625,-0.0015955851413309574,-0.0036887521855533123,-0.004904791712760925
1772642657771270700,4.206270751953125,-0.0013551748124882579,-0.005041584372520447,0.00028318213298916817
1772642657781311700,4.216311767578125,-0.0007618225645273924,-0.0036122656892985106,0.00035135913640260696
1772642657791353600,4.226353515625,0.0006041859742254019,-0.0021212154533714056,0.002979762852191925
1772642657801394700,4.236394775390625,0.0002121686702594161,-0.0032567870803177357,-0.0003441283479332924
1772642657811435800,4.246435791015625,0.001122170826420188,-0.0021582331974059343,-0.0048459358513355255
1772642657821477600,4.2564775390625,0.0017088651657104492,-0.0026655655819922686,-0.00691654346883297
1772642657831518700,4.266518798828125,0.0007491351570934057,-0.0042097195982933044,-0.0064511592499911785
1772642657841560800,4.276560791015625,0.0006173086585476995,-0.002619013888761401,-0.00487989466637373
1772642657851602000,4.286601806640625,-0.00005167740164324641,0.00014641252346336842,-0.004744872450828552
1772642657861642800,4.296642822265625,-0.0002522133872844279,0.005446103401482105,-0.005321180447936058
1772642657871684900,4.306684814453125,0.0014701525215059519,0.005742510315030813,-0.005953031592071056
1772642657881725700,4.3167255859375,0.0006253978353925049,0.009755361825227737,-0.003410778008401394
1772642657891766800,4.326766845703125,-0.00023644143948331475,0.010600981302559376,-0.0068365889601409435
1772642657901808600,4.33680859375,-0.000837783154565841,0.013355221599340439,-0.009574318304657936
1772642657911849700,4.346849609375,-0.002027330221608281,0.013051717542111874,-0.011289330199360847
1772642657921891600,4.3568916015625,-0.002139715477824211,0.012385394424200058,-0.010844582691788673
1772642657931932700,4.3669326171875,-0.0008425963460467756,0.010478897951543331,-0.007415447384119034
1772642657941973800,4.376973876953125,-0.001674035331234336,0.010736958123743534,-0.006390929222106934
1772642657952015600,4.387015625,-0.0012071497039869428,0.008950237184762955,-0.007528278045356274
1772642657962056700,4.397056640625,-0.0010367074282839894,0.006301989313215017,-0.008360249921679497
1772642657972098800,4.407098876953125,-0.00034617638448253274,0.0044089630246162415,-0.010403147898614407
1772642657982140000,4.417139892578125,-0.00006601185305044055,0.0013844110071659088,-0.010802621953189373
1772642657992180700,4.4271806640625,0.0018287007696926594,-0.0009767964947968721,-0.009553970769047737
1772642658002222800,4.437222900390625,0.0026345732621848583,-0.002309442264959216,-0.008111337199807167
1772642658012263700,4.447263671875,0.0036150093656033278,0.0004951815935783088,-0.004454178735613823
1772642658022305800,4.457305908203125,0.005326623097062111,0.0011228886432945728,-0.0026341741904616356
1772642658032346600,4.4673466796875,0.006379830185323954,0.003303804900497198,-0.003752565709874034
1772642658042387700,4.4773876953125,0.004940924234688282,0.0034755789674818516,-0.004297714680433273
1772642658052429600,4.4874296875,0.007176721002906561,0.0022794995456933975,-0.002754549030214548
1772642658062470700,4.497470703125,0.00629947567358613,0.0007314039394259453,-0.002282637171447277
1772642658072512500,4.507512451171875,0.007197259925305843,-0.00004624709254130721,0.002843498717993498
1772642658082553600,4.5175537109375,0.007291003130376339,0.0007947791600599885,0.006224381737411022
1772642658092594700,4.5275947265625,0.0081040533259511,0.0029962658882141113,0.004149850457906723
1772642658102636800,4.53763671875,0.006082181818783283,0.0043246508575975895,0.0007892076391726732
1772642658112678000,4.547677978515625,0.004976204130798578,0.004002933390438557,-0.003461644519120455
1772642658122719700,4.5577197265625,0.003624383360147476,0.000672117923386395,-0.0021598911844193935
1772642658132760800,4.5677607421875,0.0016452888958156109,-0.0010195194045081735,-0.0018774466589093208
1772642658142801700,4.5778017578125,0.0004548558499664068,-0.001071717357262969,-0.0011543985456228256
1772642658152843800,4.58784375,-0.0009418055415153503,-0.0006259017391130328,-0.0011009860318154097
1772642658162884600,4.597884521484375,-0.002092557493597269,0.0014673429541289806,-0.0036720018833875656
1772642658172926700,4.6079267578125,-0.001756979268975556,0.0038866682443767786,-0.004044157452881336
1772642658182967600,4.617967529296875,-0.0036667324602603912,0.0067485012114048,-0.008282311260700226
1772642658193008600,4.628008544921875,-0.004627414979040623,0.003939224407076836,-0.010520524345338345
1772642658203050500,4.638050537109375,-0.005135013721883297,0.002800723072141409,-0.011649171821773052
1772642658213091600,4.648091552734375,-0.005435923580080271,0.0014439137885347009,-0.01017632894217968
1772642658223133700,4.6581337890625,-0.004073716700077057,-0.0007779615116305649,-0.008430360816419125
1772642658233174800,4.6681748046875,-0.0047995406202971935,-0.0013597614597529173,-0.006332493852823973
1772642658243216000,4.6782158203125,-0.0048386892303824425,-0.0011115549132227898,-0.0036384398117661476
1772642658253257700,4.6882578125,-0.004772217478603125,-0.0026143165305256844,-0.0053944820538163185
1772642658263298800,4.698298828125,-0.007499560713768005,-0.0035727883223444223,-0.008161505684256554
1772642658273339600,4.708339599609375,-0.006463764235377312,-0.004345067776739597,-0.010971512645483017
1772642658283381800,4.7183818359375,-0.007317574229091406,-0.006267603486776352,-0.011324914172291756
1772642658293422600,4.728422607421875,-0.004462817683815956,-0.008536449633538723,-0.009180361405014992
1772642658303464700,4.738464599609375,-0.0030707833357155323,-0.006374762859195471,-0.008898599073290825
1772642658313505500,4.748505615234375,-0.0020490619353950024,-0.008066659793257713,-0.008441008627414703
1772642658323546600,4.758546630859375,-0.0012312053004279733,-0.008597694337368011,-0.007479340303689241
1772642658333588700,4.768588623046875,-0.00043944758363068104,-0.00951808225363493,-0.006009808275848627
1772642658343629800,4.7786298828125,-0.001025875681079924,-0.012160737067461014,-0.004629491828382015
1772642658353671700,4.788671630859375,0.0003524373169057071,-0.013772167265415192,-0.003872780129313469
1772642658363712800,4.798712646484375,0.0006991808768361807,-0.012325537391006947,-0.003560923971235752
1772642658373753900,4.80875390625,0.0011561793508008122,-0.010145474225282669,-0.005285054445266724
1772642658383795700,4.818795654296875,0.0012392699718475342,-0.005903324577957392,-0.010598060674965382
1772642658393836800,4.8288369140625,-0.001548627158626914,-0.0032697224523872137,-0.011059705168008804
1772642658403878700,4.838878662109375,-0.0029598362743854523,-0.00002892164047807455,-0.013568934984505177
1772642658413919700,4.848919677734375,-0.005116237327456474,-0.0037011075764894485,-0.012986278161406517
1772642658423960600,4.858960693359375,-0.008009761571884155,-0.00528835179284215,-0.010496755130589008
1772642658434002700,4.869002685546875,-0.00877232477068901,-0.005267044063657522,-0.008561020717024803
1772642658444043500,4.87904345703125,-0.0077158487401902676,-0.0013167769648134708,-0.008078988641500473
1772642658454086000,4.8890859375,-0.009044306352734566,-0.0002610462252050638,-0.008729462511837482
1772642658464126700,4.899126708984375,-0.009417681954801083,0.0032884147949516773,-0.008313477039337158
1772642658474167800,4.909167724609375,-0.011538989841938019,0.0034575278405100107,-0.010641997680068016
1772642658484209700,4.919209716796875,-0.011136585846543312,0.007786761969327927,-0.010687271133065224
1772642658494250800,4.929250732421875,-0.013901213183999062,0.005655701272189617,-0.009627066552639008
1772642658504292600,4.939292724609375,-0.01582215167582035,0.00434835534542799,-0.010610572062432766
1772642658514333700,4.949333740234375,-0.01678091660141945,0.004356559365987778,-0.011737343855202198
1772642658524374800,4.959374755859375,-0.017597975209355354,0.005527018569409847,-0.014084120281040668
1772642658534416600,4.969416748046875,-0.017453424632549286,0.006043342873454094,-0.010773209854960442
1772642658544457700,4.979457763671875,-0.01748591475188732,0.006944556254893541,-0.005987775512039661
1772642658554499600,4.98949951171875,-0.01677074283361435,0.00655030831694603,-0.006313040852546692
1772642658564540700,4.999540771484375,-0.016876736655831337,0.007606251630932093,-0.007074971683323383
1772642658574581500,5.00958154296875,-0.017531055957078934,0.0077600255608558655,-0.011171025224030018
1772642658584623900,5.019623779296875,-0.016396282240748405,0.006738703232258558,-0.010326003655791283
1772642658594664700,5.029664794921875,-0.013224031776189804,0.004923001863062382,-0.010214759036898613
1772642658604706800,5.039706787109375,-0.013571574352681637,0.0018555729184299707,-0.011122895404696465
1772642658614747600,5.04974755859375,-0.013239611871540546,0.0018646374810487032,-0.009022931568324566
1772642658624788700,5.059788818359375,-0.01521727442741394,-0.00008745962986722589,-0.007970715872943401
1772642658634830600,5.06983056640625,-0.01216826867312193,-0.0009829755872488022,-0.00844037439674139
1772642658644871700,5.07987158203125,-0.014535818248987198,0.000853540375828743,-0.012046827003359795
1772642658654912800,5.089912841796875,-0.012851634994149208,0.0006588632822968066,-0.01754572056233883
1772642658664954600,5.09995458984375,-0.014751268550753593,0.0010085363173857331,-0.019736969843506813
1772642658674995700,5.10999560546875,-0.013535148464143276,-0.00009576912270858884,-0.016191231086850166
1772642658685037600,5.12003759765625,-0.01171780750155449,0.0035415764432400465,-0.015218112617731094
1772642658695079200,5.1300791015625,-0.011950301937758923,0.0026129321195185184,-0.015442883595824242
1772642658705120000,5.1401201171875,-0.011623531579971313,0.0005487158196046948,-0.01251846645027399
1772642658715162000,5.150162109375,-0.011091911233961582,-0.00009513372788205743,-0.013313710689544678
1772642658725203000,5.160202880859375,-0.008244459517300129,-0.000003787281457334757,-0.011705693788826466
1772642658735245000,5.1702451171875,-0.00702268909662962,-0.00031680555548518896,-0.006291820667684078
1772642658745286000,5.180285888671875,-0.006127334665507078,0.0023799112532287836,-0.005817778408527374
1772642658755327000,5.190326904296875,-0.005925884936004877,0.006535123568028212,-0.007255298085510731
1772642658765369000,5.200369140625,-0.004206282086670399,0.010671012103557587,-0.0067234644666314125
1772642658775410200,5.21041015625,-0.005863754544407129,0.013862449675798416,-0.009565775282680988
1772642658785452000,5.2204521484375,-0.007879235781729221,0.014735167846083641,-0.006946556270122528
1772642658795493000,5.2304931640625,-0.009366828948259354,0.013762990944087505,-0.00575610063970089
1772642658805534200,5.2405341796875,-0.010952209122478962,0.01617368496954441,-0.007192876189947128
1772642658815576000,5.250576171875,-0.011777362786233425,0.02029658481478691,-0.007116657681763172
1772642658825617200,5.2606171875,-0.01617211103439331,0.025145135819911957,-0.006322769448161125
1772642658835659000,5.270658935546875,-0.0188529621809721,0.02987314760684967,-0.007351723499596119
1772642658845700000,5.2807001953125,-0.021037021651864052,0.03702399879693985,-0.008336294442415237
1772642658855741000,5.290740966796875,-0.020398860797286034,0.039535097777843475,-0.00986464973539114
1772642658865783300,5.300783203125,-0.019090183079242706,0.042367104440927505,-0.007772204466164112
1772642658877079000,5.3120791015625,-0.01681954599916935,0.04101639986038208,-0.001970787299796939
1772642658887121200,5.32212109375,-0.015649352222681046,0.04084941744804382,0.0013685505837202072
1772642658897162200,5.332162353515625,-0.013218572363257408,0.03882478550076485,0.00021530850790441036
1772642658907203000,5.342203125,-0.010919732041656971,0.0365496464073658,0.004394873045384884
1772642658917245200,5.3522451171875,-0.0101989870890975,0.03271448239684105,0.004084632266312838
1772642658927286300,5.362286376953125,-0.010270359925925732,0.0319213941693306,-0.0009205127134919167
1772642658937328000,5.372328125,-0.007438273634761572,0.03150822967290878,-0.0033565412741154432
1772642658947369200,5.382369140625,-0.005649428814649582,0.027862360700964928,-0.00469770934432745
1772642658957410000,5.39241015625,-0.0034707635641098022,0.024940334260463715,-0.004914788529276848
1772642658967452200,5.4024521484375,-0.003943208139389753,0.017236340790987015,-0.00432543084025383
1772642658977493000,5.412492919921875,0.0008220454910770059,0.007461272180080414,-0.002734527690336108
1772642658987534000,5.4225341796875,0.001976792002096772,0.0013144303811714053,-0.005745231173932552
1772642658997576000,5.432575927734375,0.0026566041633486748,-0.0029240460135042667,-0.005531929433345795
1772642659007617000,5.442616943359375,0.005591940600425005,-0.006611458957195282,-0.0066384728997945786
1772642659017659100,5.4526591796875,0.008218622766435146,-0.007028036285191774,-0.007932670414447784
1772642659027700200,5.4627001953125,0.007734460290521383,-0.010785489343106747,-0.007657564710825682
1772642659037741300,5.4727412109375,0.008505044505000114,-0.012625479139387608,-0.007506898604333401
1772642659047783200,5.482783203125,0.009174562990665436,-0.014553873799741268,-0.005506065674126148
1772642659057824300,5.49282421875,0.007295544724911451,-0.016422655433416367,-0.0035560179967433214
1772642659067866000,5.5028662109375,0.006807387340813875,-0.01733425445854664,-0.0038191385101526976
1772642659077907200,5.5129072265625,0.004868512973189354,-0.019515706226229668,-0.007832542061805725
1772642659087948000,5.522947998046875,0.004824570380151272,-0.02133784070611,-0.010546036064624786
1772642659097990100,5.532990234375,0.006046022288501263,-0.020278120413422585,-0.011923586018383503
1772642659108031000,5.543031005859375,0.006548560690134764,-0.0191127210855484,-0.010991480201482773
1772642659118073000,5.553072998046875,0.006760129705071449,-0.016415303573012352,-0.009164108894765377
1772642659128114200,5.5631142578125,0.007789441384375095,-0.013782504014670849,-0.009361982345581055
1772642659138155300,5.5731552734375,0.007970316335558891,-0.01487024500966072,-0.0060661775059998035
1772642659148197000,5.583197021484375,0.007109316531568766,-0.014998076483607292,-0.005921834614127874
1772642659158238200,5.59323828125,0.00857733003795147,-0.01153368130326271,-0.006728277541697025
1772642659168280000,5.603280029296875,0.0062417383305728436,-0.011189602315425873,-0.006367153488099575
1772642659178321200,5.613321044921875,0.009018689393997192,-0.011669556610286236,-0.0048570106737315655
1772642659188362200,5.6233623046875,0.009720166213810444,-0.009885238483548164,-0.00015520001761615276
1772642659198404000,5.633404052734375,0.009328188374638557,-0.008174470625817776,0.005338679533451796
1772642659208445200,5.643445068359375,0.006309496238827705,-0.007525191642343998,0.007135514169931412
1772642659218487000,5.653487060546875,0.0035754679702222347,-0.004735049791634083,0.005773585755378008
1772642659228528000,5.663528076171875,0.003225262276828289,-0.001556833041831851,0.0048364195972681046
1772642659238569000,5.67356884765625,0.0042257653549313545,0.002052654279395938,0.006207006052136421
1772642659248611300,5.683611328125,0.003473422257229686,0.0036782477982342243,0.007314082235097885
1772642659258652200,5.693652099609375,0.002220876980572939,0.004255290608853102,0.011035914532840252
1772642659268694300,5.7036943359375,0.0016054206062108278,0.003784443950280547,0.01020926982164383
1772642659278735000,5.713735107421875,0.0019661467522382736,0.004418020602315664,0.01004821341484785
1772642659288776200,5.723776123046875,-0.00005812209565192461,0.004880877677351236,0.007159749045968056
1772642659298818000,5.733818115234375,-0.0024861928541213274,0.006354133598506451,0.00855201855301857
1772642659308859100,5.743859130859375,-0.0018406426534056664,0.008590656332671642,0.008420990779995918
1772642659318900200,5.753900146484375,-0.00322238402441144,0.00987663958221674,0.008133881725370884
1772642659328942000,5.763942138671875,-0.002841019304469228,0.010957617312669754,0.0058816466480493546
1772642659338983200,5.773983154296875,-0.004197400063276291,0.009816993027925491,0.0013946682447567582
1772642659349025000,5.78402490234375,-0.004741217475384474,0.007320546079427004,-0.001429081428796053
1772642659359066000,5.794066162109375,-0.004498557187616825,0.0051528941839933395,-0.002880628453567624
1772642659369107000,5.80410693359375,-0.0032772314734756947,0.0017541677225381136,-0.0005508949980139732
1772642659379149300,5.8141494140625,-0.0009971598628908396,-0.0017950765322893858,0.0010037515312433243
1772642659389190100,5.824190185546875,-0.0011201980523765087,-0.0041474467143416405,0.0029193633235991
1772642659399232300,5.834232177734375,-0.0007734620594419539,-0.002235505962744355,0.0017557244282215834
1772642659409273000,5.844273193359375,-0.0004059457569383085,-0.001630169339478016,0.0014369441196322441
1772642659419314200,5.854314208984375,-0.0005152938538230956,-0.0029274546541273594,-0.0007895021699368954
1772642659429356000,5.86435595703125,-0.0014822876546531916,-0.004667830653488636,-0.0026912654284387827
1772642659439397000,5.874397216796875,-0.0008853999897837639,-0.009931355714797974,-0.0028152386657893658
1772642659449439000,5.88443896484375,-0.0007304039318114519,-0.010493815876543522,-0.004562005866318941
1772642659459480000,5.89447998046875,-0.0016954069724306464,-0.013151068240404129,-0.0028737226966768503
1772642659469521200,5.904521240234375,0.000736591755412519,-0.012031741440296173,-0.0021243093069642782
1772642659479563000,5.91456298828125,-0.0011518090032041073,-0.009285595268011093,0.002211459679529071
1772642659489604000,5.92460400390625,-0.0023912442848086357,-0.008870675228536129,0.004084194544702768
1772642659499646200,5.934646240234375,-0.0012003252049908042,-0.0066705322824418545,0.003539701923727989
1772642659509687300,5.944687255859375,-0.0014985994203016162,-0.004500322509557009,0.0012168927351012826
1772642659519728000,5.95472802734375,-0.0020388495177030563,-0.005859909113496542,0.0013250859919935465
1772642659529770200,5.964770263671875,-0.00044334965059533715,-0.005659639369696379,0.0033485558815300465
1772642659539811000,5.97481103515625,-0.0017308006063103676,-0.005234770476818085,0.007188485935330391
1772642659549853200,5.984853271484375,-0.0030269611161202192,-0.00032656488474458456,0.006231346167623997
1772642659559894000,5.99489404296875,-0.0031789341010153294,0.002831467892974615,0.0045796725898981094
1772642659569935000,6.00493505859375,-0.005478840321302414,0.0038314848206937313,0.0023913532495498657
1772642659579977000,6.01497705078125,-0.005685767624527216,0.005014194641262293,-0.0016177694778889418
1772642659590018000,6.02501806640625,-0.0031416499987244606,0.0061122155748307705,-0.0021669131238013506
1772642659600060000,6.035059814453125,-0.001420615240931511,0.004427231382578611,-0.004175351932644844
1772642659610101200,6.045101318359375,-0.0008512315689586103,0.0020833835005760193,-0.006512009538710117
1772642659620142300,6.055142333984375,0.0008034227066673338,-0.00388874439522624,-0.008944867178797722
1772642659630184200,6.06518408203125,-0.0005175051628611982,-0.006361223291605711,-0.007611156441271305
1772642659640225300,6.075225341796875,0.0023756474256515503,-0.010035810060799122,-0.004128077533096075
1772642659650267100,6.08526708984375,0.0019807007629424334,-0.01023048721253872,-0.0011112489737570286
1772642659660308200,6.09530810546875,0.0021334593184292316,-0.012163881212472916,0.0036864839494228363
1772642659670349000,6.10534912109375,0.004414989612996578,-0.009925760328769684,0.004014319274574518
1772642659680391200,6.11539111328125,0.0033457837998867035,-0.010325398296117783,0.0026254572439938784
1772642659690431700,6.125431640625,0.003817695891484618,-0.01196990069001913,0.0012515323469415307
1772642659700472800,6.135472900390625,0.004586630035191774,-0.01332529541105032,0.00036759162321686745
1772642659710514700,6.1455146484375,0.007323028519749641,-0.012995596043765545,0.001044833566993475
1772642659720555800,6.1555556640625,0.00453451881185174,-0.013078837655484676,0.0007981440285220742
1772642659730598000,6.165597900390625,0.004960091784596443,-0.014705230481922626,0.0010833685519173741
1772642659740639000,6.175638916015625,0.005771450232714415,-0.015455136075615883,0.0034138248302042484
1772642659750680000,6.18568017578125,0.004608181305229664,-0.014089733362197876,0.0034180860966444016
1772642659760722000,6.195721923828125,0.005588098894804716,-0.010661227628588676,0.004934386350214481
1772642659770763000,6.205762939453125,0.004418971017003059,-0.008664922788739204,0.0012621537316590548
1772642659780804900,6.215804931640625,0.005452803336083889,-0.002217617118731141,0.0011214397381991148
1772642659790846000,6.225845947265625,0.006294095888733864,-0.0032972623594105244,-0.004155614413321018
1772642659800886800,6.23588671875,0.004029783420264721,-0.0005414795596152544,-0.006002267822623253
1772642659810929000,6.245928955078125,0.002614047145470977,0.0005895650247111917,-0.004984673578292131
1772642659820969700,6.2559697265625,0.0008556012762710452,0.0016220255056396127,-0.00428821612149477
1772642659831012000,6.26601220703125,0.0004691766225732863,0.0024723727256059647,0.0006404963787645102
1772642659841053000,6.276052978515625,-0.0015448450576514006,0.0038008070550858974,0.002799627836793661
1772642659851094000,6.286093994140625,-0.003157921601086855,0.004213863052427769,0.007231926545500755
1772642659861136000,6.296135986328125,-0.0048434436321258545,0.006389191374182701,0.006489069666713476
1772642659871177000,6.306177001953125,-0.0059270840138196945,0.006600912660360336,0.0031816898845136166
1772642659881218800,6.31621875,-0.004726010840386152,0.004321078769862652,0.00038318708539009094
1772642659891260000,6.326260009765625,-0.004836532287299633,0.004269945900887251,0.001324082026258111
1772642659901301000,6.336301025390625,-0.005493314005434513,0.007022161968052387,0.0008389775175601244
1772642659911342800,6.3463427734375,-0.00618067616596818,0.006038656458258629,0.001263219048269093
1772642659921384000,6.356384033203125,-0.006650970317423344,0.008792741224169731,0.003370201215147972
1772642659931425800,6.36642578125,-0.005253609735518694,0.00595780648291111,0.004312694072723389
1772642659941467000,6.376466796875,-0.0034500376787036657,0.004010390490293503,0.006994724739342928
1772642659951507700,6.3865078125,-0.0020502801053225994,0.00300717749632895,0.002743787132203579
1772642659961550000,6.396550048828125,0.0014931024052202702,0.005148787051439285,0.003350598504766822
1772642659971591000,6.4065908203125,0.00029574515065178275,0.003614273387938738,0.001839787233620882
1772642659981633000,6.416633056640625,0.0009711493039503694,0.007706804201006889,0.0033260842319577932
1772642659991673900,6.426673828125,-0.0007782811298966408,0.0073832301422953606,0.004239015746861696
1772642660001715000,6.43671484375,-0.0016889420803636312,0.007115799933671951,0.00048412103205919266
1772642660011756800,6.4467568359375,-0.0004545669653452933,0.0075837173499166965,0.00010302267037332058
1772642660021798000,6.4567978515625,-0.000564643123652786,0.006904762238264084,-0.000794652383774519
1772642660031839700,6.46683984375,0.0016452479176223278,0.007739929482340813,0.0010652991477400064
1772642660041880800,6.476880859375,0.0003679103101603687,0.005567760672420263,0.0027795180212706327
1772642660051922000,6.486921875,0.0006768369348719716,0.005148046184331179,0.0017499399837106466
1772642660061963800,6.4969638671875,0.0009776742663234472,0.001928819576278329,0.0034885997883975506
1772642660072004900,6.5070048828125,0.00018911226652562618,-0.00008266593795269728,0.004381557460874319
1772642660082045700,6.517045654296875,-0.0014461816754192114,-0.0008357075275853276,0.0033808350563049316
1772642660092088000,6.527088134765625,-0.00009702431270852685,-0.0004543428076431155,0.0021091755479574203
1772642660102129000,6.53712890625,-0.00014509499305859208,0.0001283658784814179,0.005458959378302097
1772642660112171000,6.5471708984375,-0.0012202132493257523,-0.0011249177623540163,0.005470410920679569
1772642660122211800,6.5572119140625,-0.0011607510969042778,-0.002116466173902154,0.005071067251265049
1772642660132253000,6.5672529296875,-0.0022760829888284206,-0.0030581599567085505,0.004828453063964844
1772642660142294800,6.577294677734375,-0.0010547905694693327,-0.005179379601031542,0.0013829119270667434
1772642660152336000,6.5873359375,-0.002340032020583749,-0.008508862927556038,-0.0005263083148747683
1772642660162377700,6.597377685546875,-0.0009765666909515858,-0.005742584355175495,-0.00008169026114046574
1772642660172418800,6.607418701171875,0.00043118023313581944,-0.0051132794469594955,0.00183338881470263
1772642660182460000,6.6174599609375,0.0005827342392876744,-0.002101400401443243,0.0028372900560498238
1772642660192501800,6.627501708984375,0.0011052463669329882,-0.001060637179762125,0.0021720323711633682
1772642660202542800,6.63754296875,-0.0012832297943532467,-0.0005848307628184557,0.0005364913959056139
1772642660212585000,6.6475849609375,-0.003063286654651165,0.00024154811399057508,0.0006294357590377331
1772642660222626000,6.6576259765625,-0.0018159816972911358,0.0011716829612851143,0.0012278422946110368
1772642660232667000,6.6676669921875,-0.0036658134777098894,0.0005554273957386613,0.0026015006005764008
1772642660242709000,6.677708984375,-0.0017876987112686038,0.00034753745421767235,0.0010573759209364653
1772642660252749800,6.687749755859375,-0.004564044065773487,0.0013859039172530174,0.00030982657335698605
1772642660262792000,6.6977919921875,-0.004251609090715647,0.0037389679346233606,-0.0005385144613683224
1772642660272832800,6.707832763671875,-0.003628961741924286,0.0014952546916902065,-0.0004937732592225075
1772642660282873900,6.717873779296875,-0.004506187047809362,-0.0002111892681568861,-0.0014552867505699396
1772642660292915700,6.727915771484375,-0.004630823154002428,-0.0015001591527834535,-0.0034646419808268547
1772642660302956800,6.737956787109375,-0.003741640131920576,-0.004742985125631094,-0.004852024372667074
1772642660312999000,6.7479990234375,-0.00328277749940753,-0.008298039436340332,-0.005610226653516293
1772642660323040000,6.7580400390625,-0.0017109334003180265,-0.011117367073893547,-0.006265487987548113
1772642660333081000,6.7680810546875,-0.0032571647316217422,-0.012438028119504452,-0.0034452006220817566
1772642660343123000,6.778123046875,-0.005088022444397211,-0.014480401761829853,-0.0028230587486177683
1772642660353164000,6.7881640625,-0.006630259100347757,-0.015251120552420616,-0.001561253098770976
1772642660363206000,6.798205810546875,-0.005864566192030907,-0.014925955794751644,0.0016476802993565798
1772642660373247000,6.8082470703125,-0.004648299887776375,-0.012884908355772495,0.0033805991988629103
1772642660383287800,6.818287841796875,-0.004233446437865496,-0.013965358026325703,0.003858339972794056
1772642660393330000,6.828329833984375,-0.003924786113202572,-0.012166924774646759,0.004581654444336891
1772642660403370800,6.838370849609375,-0.003644975135102868,-0.009224780835211277,0.0037255235947668552
1772642660413412900,6.848412841796875,-0.003991452511399984,-0.009136097505688667,0.005430745892226696
1772642660423453700,6.85845361328125,-0.0044792164117097855,-0.009920861572027206,0.008094939403235912
1772642660433494800,6.868494873046875,-0.0029263268224895,-0.010561085306107998,0.01018552016466856
1772642660443537000,6.878536865234375,-0.0024905535392463207,-0.00968182273209095,0.008366812020540237
1772642660453578000,6.888577880859375,-0.0022428797092288733,-0.006164585240185261,0.009242191910743713
1772642660463619800,6.898619873046875,-0.002010192722082138,-0.003373539075255394,0.00880397204309702
1772642660473661000,6.908660888671875,-0.003922075964510441,-0.0028145411051809788,0.003927458077669144
1772642660483702000,6.918701904296875,-0.003759669838473201,-0.002235731342807412,0.0016095666214823723
1772642660493743900,6.928743896484375,-0.006092332769185305,-0.0029561163391917944,-0.00017608283087611198
1772642660503785000,6.938784912109375,-0.004308407194912434,-0.006156752351671457,0.0012693755561485887
1772642660513826800,6.948826904296875,-0.003753138240426779,-0.006154088769108057,0.002367929555475712
1772642660523868000,6.958867919921875,0.000008842966053634882,-0.008699006401002407,0.0048236302100121975
1772642660533908700,6.96890869140625,0.0014136603567749262,-0.010694246739149094,0.009398940950632095
1772642660543950800,6.978950927734375,0.0009132325067184865,-0.008649581111967564,0.010211050510406494
1772642660553991700,6.98899169921875,0.0009659631177783012,-0.010476510040462017,0.009257638826966286
1772642660564032800,6.99903271484375,0.0007801741594448686,-0.01519536692649126,0.00903351791203022
1772642660574075000,7.009074951171875,0.0004323652829043567,-0.016045715659856796,0.009674008004367352
1772642660584116000,7.019115966796875,0.0019182295072823763,-0.01908772811293602,0.010437721386551857
1772642660594157800,7.02915771484375,0.0030495403334498405,-0.019552983343601227,0.011563439853489399
1772642660604199000,7.039198974609375,0.005132358521223068,-0.019173169508576393,0.009321281686425209
1772642660614240000,7.049239990234375,0.0026260579470545053,-0.017072200775146484,0.008802765049040318
1772642660624281900,7.05928173828125,0.003809533314779401,-0.014794127084314823,0.004087017849087715
1772642660634323000,7.069322998046875,0.00344334845431149,-0.01776221953332424,0.005999966524541378
1772642660644364800,7.07936474609375,0.006380309350788593,-0.016617275774478912,0.009342754259705544
1772642660654406000,7.089406005859375,0.007593911606818438,-0.015422581695020199,0.007870825007557869
1772642660664446700,7.09944677734375,0.009021678939461708,-0.01129372138530016,0.012303798459470272
1772642660674488800,7.10948876953125,0.0057449257001280785,-0.011377876624464989,0.013853225857019424
1772642660684529700,7.11952978515625,0.005646036006510258,-0.009542807005345821,0.013284455984830856
1772642660694572300,7.129572265625,0.004558400716632605,-0.010128436610102654,0.010999996215105057
1772642660704613000,7.139613037109375,0.004852500278502703,-0.011227408424019814,0.00910187978297472
1772642660714654200,7.149654296875,0.004780062474310398,-0.008795143105089664,0.009123718366026878
1772642660724696000,7.159696044921875,0.004489677492529154,-0.007430271245539188,0.008413068018853664
1772642660734737200,7.169737060546875,0.005338427145034075,-0.006145296152681112,0.007746478542685509
1772642660744779000,7.179779052734375,0.003829340450465679,-0.00467171985656023,0.007916761562228203
1772642660754820000,7.189820068359375,0.003537458134815097,-0.002145179081708193,0.007900516502559185
1772642660764861200,7.199861083984375,0.0023617923725396395,-0.0010382619220763445,0.007407837547361851
1772642660774903000,7.209903076171875,0.002115982584655285,0.0017210394144058228,0.005802217870950699
1772642660784944000,7.219944091796875,0.00407220097258687,0.003849220462143421,0.008528601378202438
1772642660794986000,7.229986083984375,0.0026090601459145546,0.006425295956432819,0.008684929460287094
1772642660805027000,7.240027099609375,0.002683175727725029,0.008626019582152367,0.010350164957344532
1772642660815068000,7.25006787109375,0.001454126788303256,0.008378079161047935,0.011065489612519741
1772642660825110300,7.2601103515625,-0.002563504269346595,0.009090110659599304,0.01047459151595831
1772642660835151000,7.270151123046875,-0.0023693598341196775,0.010315164923667908,0.010717738419771194
1772642660845193200,7.280193115234375,-0.0020983698777854443,0.010647154413163662,0.009393874555826187
1772642660855234000,7.290234130859375,-0.0021015657112002373,0.008766429498791695,0.009711324237287045
1772642660865275100,7.300275146484375,-0.003538853954523802,0.006746265105903149,0.010299770161509514
1772642660875317000,7.31031689453125,-0.005615320522338152,0.003976045176386833,0.007534077391028404
1772642660885358000,7.320358154296875,-0.0037374133244156837,0.004703500773757696,0.007732530124485493
1772642660895400000,7.33039990234375,-0.003904659766703844,0.004062477964907885,0.003834460861980915
1772642660905441000,7.34044091796875,-0.00426504435017705,0.006025184411555529,0.0035888466518372297
1772642660915482000,7.350482177734375,-0.0058890399523079395,0.008580220863223076,0.001920908922329545
1772642660925524000,7.36052392578125,-0.008625125512480736,0.01120439451187849,-0.0027274966705590487
1772642660935565000,7.37056494140625,-0.009526871144771576,0.012131174094974995,-0.005028467625379562
1772642660945607200,7.380607177734375,-0.00667774211615324,0.012810967862606049,-0.00643092580139637
1772642660955648300,7.390648193359375,-0.008750214241445065,0.010913465172052383,-0.004022362641990185
1772642660965689000,7.400689208984375,-0.00443323003128171,0.00969134084880352,-0.0065726060420274734
1772642660975731200,7.410731201171875,-0.005618336610496044,0.011294829659163952,-0.007308171130716801
1772642660985772000,7.42077197265625,-0.005069006234407425,0.008696229197084904,-0.009769161231815815
1772642660995814100,7.430814208984375,-0.006207773927599192,0.008629384450614452,-0.011805946938693523
1772642661005855000,7.44085498046875,-0.005063700024038553,0.006194878835231066,-0.011549105867743492
1772642661015896000,7.45089599609375,-0.004145175684243441,0.005367168691009283,-0.010143489576876163
1772642661025938000,7.46093798828125,-0.003114292398095131,0.0055793714709579945,-0.005707183387130499
1772642661035979000,7.47097900390625,-0.00523044029250741,0.0058169253170490265,-0.0061391484923660755
1772642661046020000,7.48102001953125,-0.005883786827325821,0.006888368632644415,-0.006348602473735809
1772642661056062200,7.491062255859375,-0.007759451400488615,0.007723802234977484,-0.009742002002894878
1772642661066103300,7.501103271484375,-0.006360393017530441,0.005913915578275919,-0.010530446656048298
1772642661076145200,7.511145263671875,-0.007002747152000666,0.0038379814941436052,-0.012117158621549606
1772642661086186200,7.521186279296875,-0.0068850889801979065,0.005820069462060928,-0.010043863207101822
1772642661096227000,7.53122705078125,-0.006622235290706158,0.005838711280375719,-0.006051518954336643
1772642661106269200,7.541269287109375,-0.005694737192243338,0.007180237211287022,-0.0033500995486974716
1772642661116310000,7.55131005859375,-0.006634033750742674,0.009360834024846554,-0.0031575532630085945
1772642661126352100,7.56135205078125,-0.008340799249708652,0.011333294212818146,-0.003935358487069607
1772642661136393000,7.57139306640625,-0.00865425355732441,0.012490970082581043,-0.0062155574560165405
1772642661146434000,7.58143408203125,-0.009740483947098255,0.014548474922776222,-0.006906250491738319
1772642661156476000,7.591475830078125,-0.01058390736579895,0.018181558698415756,-0.00841519795358181
1772642661166517000,7.60151708984375,-0.00901005882769823,0.019069569185376167,-0.006303277797996998
1772642661176559000,7.61155908203125,-0.009294484741985798,0.02324087731540203,-0.007112080231308937
1772642661186600200,7.62160009765625,-0.009540793485939503,0.024875786155462265,-0.010702995583415031
1772642661196641300,7.631641357421875,-0.009122943505644798,0.02381584793329239,-0.01189396157860756
1772642661206683100,7.64168310546875,-0.011484927497804165,0.021379536017775536,-0.009881132282316685
1772642661216724200,7.65172412109375,-0.012696132995188236,0.022160375490784645,-0.006012890487909317
1772642661226766000,7.66176611328125,-0.01347994152456522,0.025221725925803185,-0.00688778143376112
1772642661236807200,7.67180712890625,-0.013847989961504936,0.02483929507434368,-0.005360724404454231
1772642661246848000,7.681847900390625,-0.017198801040649414,0.025491127744317055,-0.002082529477775097
1772642661256890000,7.69189013671875,-0.019009750336408615,0.019782908260822296,-0.0016910447739064693
1772642661266931000,7.701930908203125,-0.02020016871392727,0.01896601729094982,-0.003103795228525996
1772642661276973000,7.71197314453125,-0.020488854497671127,0.013895360752940178,-0.002946402644738555
1772642661287014000,7.722013916015625,-0.01953590288758278,0.011515239253640175,-0.0033023373689502478
1772642661297055000,7.732054931640625,-0.017592860385775566,0.011194595135748386,-0.0019462553318589926
1772642661307097000,7.74209716796875,-0.01704092137515545,0.009114655666053295,-0.007795154117047787
1772642661317138200,7.75213818359375,-0.01692880317568779,0.009129835292696953,-0.009266817010939121
1772642661327180000,7.762179931640625,-0.016578208655118942,0.007136034779250622,-0.008916869759559631
1772642661337221000,7.77222119140625,-0.016278870403766632,0.004925610963255167,-0.0032177052926272154
1772642661347262200,7.78226220703125,-0.015359826385974884,0.005183788947761059,0.001975793857127428
1772642661357304000,7.792303955078125,-0.01654386892914772,0.006267962045967579,0.0011741822818294168
1772642661367345200,7.80234521484375,-0.015517673455178738,0.008809836581349373,-0.0002048388123512268
1772642661377387000,7.812386962890625,-0.013734686188399792,0.007371196988970041,-0.001701268833130598
1772642661387428000,7.822427978515625,-0.014421375468373299,0.00563423428684473,-0.001833733869716525
1772642661397469000,7.832468994140625,-0.011458874680101871,0.005459797568619251,0.000987086445093155
1772642661407511000,7.842510986328125,-0.010854790918529034,0.005960092879831791,0.004309076350182295
1772642661417552000,7.8525517578125,-0.009727207943797112,0.008070115931332111,0.005680870730429888
1772642661427594200,7.86259423828125,-0.00901906006038189,0.009735292755067348,0.0023256088607013226
1772642661437635000,7.872635009765625,-0.009201752953231335,0.008230073377490044,0.0012518222210928798
1772642661447676200,7.88267626953125,-0.009169088676571846,0.007936004549264908,-0.00017218757420778275
1772642661457718000,7.892718017578125,-0.006453197915107012,0.008918444626033306,0.0003471288364380598
1772642661467759000,7.902759033203125,-0.002892737742513418,0.010722091421484947,0.0010291271610185504
1772642661477801000,7.912801025390625,-0.002522824564948678,0.012137827463448048,0.0033143856562674046
1772642661487842000,7.922842041015625,-0.004342969041317701,0.01223774440586567,0.005691360216587782
1772642661497883100,7.932883056640625,-0.0014667552895843983,0.01080096885561943,0.006863949820399284
1772642661507925000,7.942925048828125,-0.0007847592933103442,0.008415642194449902,0.00641102809458971
1772642661517966000,7.952966064453125,0.0006770498584955931,0.008388478308916092,0.008176171220839024
1772642661528007000,7.9630068359375,0.0008752158028073609,0.007330988068133593,0.008062709122896194
1772642661538049300,7.97304931640625,0.002988966880366206,0.005721373483538628,0.008505858480930328
1772642661548090000,7.983090087890625,0.0006550990510731936,0.00561942346394062,0.007673193700611591
1772642661558132200,7.99313232421875,-0.0005116318352520466,0.0026979357935488224,0.008014610968530178
1772642661568173000,8.003173095703126,-0.0001694156089797616,0.0021663689985871315,0.007068390026688576
1772642661578214100,8.013214111328125,-0.0003704843111336231,0.0016387966461479664,0.003914408385753632
1772642661588256000,8.023256103515624,0.0012631719000637531,0.0009159610490314662,0.003869264852255583
1772642661598297000,8.033297119140625,-0.0002958425902761519,0.0026725821662694216,0.004476998466998339
1772642661608339000,8.0433388671875,-0.000057916680816560984,0.0007920621428638697,0.004345917608588934
1772642661618380000,8.053380126953124,-0.0019367767963558435,-0.002648209221661091,0.002879847539588809
1772642661628421000,8.063421142578125,-0.0037185638211667538,-0.0034279723186045885,0.003610684536397457
1772642661638463000,8.073462890625,-0.004393941257148981,-0.002111571840941906,0.003084177616983652
1772642661648504000,8.083504150390626,-0.0014987190952524543,-0.0014681543689221144,0.00277510192245245
1772642661658546200,8.093546142578125,-0.002643079496920109,-0.0003006246988661587,0.0019484568620100617
1772642661668587300,8.103587158203124,-0.002000831998884678,-0.0024212391581386328,0.0014496950898319483
1772642661678628000,8.113628173828126,-0.0016173368785530329,-0.004160816315561533,0.0020134863443672657
1772642661688670200,8.123670166015625,-0.0028994218446314335,-0.005789292510598898,0.002164179226383567
1772642661698710500,8.13371044921875,-0.0003531737020239234,-0.004351451527327299,0.001664303825236857
1772642661708752400,8.14375244140625,0.0006658980855718255,-0.004905763082206249,0.00291838007979095
1772642661718793500,8.15379345703125,0.0016419466119259596,-0.003484700107946992,0.0037293126806616783
1772642661728834300,8.163834228515626,0.0014565439196303487,-0.003731203731149435,0.005973415914922953
1772642661738876700,8.173876708984375,0.002347104949876666,-0.004671299830079079,0.009075998328626156
1772642661748917500,8.18391748046875,0.0026077553629875183,-0.005206807516515255,0.009435128420591354
1772642661758959600,8.193959716796876,0.004058112856000662,-0.0023108862806111574,0.009183726273477077
1772642661769000400,8.20400048828125,0.005753633100539446,-0.00022338220151141286,0.01035359874367714
1772642661779041500,8.21404150390625,0.005565613973885775,0.0004919428029097617,0.010983702726662159
1772642661789083400,8.22408349609375,0.005427496042102575,0.004717312287539244,0.010542536154389381
1772642661799124500,8.23412451171875,0.003430391661822796,0.006488048005849123,0.010566504672169685
1772642661809166300,8.244166259765626,0.004346858710050583,0.005585449282079935,0.01140260137617588
1772642661819207400,8.25420751953125,0.0044408682733774185,0.007427557837218046,0.01542610488831997
1772642661829248500,8.26424853515625,0.001973330043256283,0.008428266271948814,0.01553795300424099
1772642661839290400,8.274290283203126,0.0011655932758003473,0.010432560928165913,0.01679176837205887
1772642661849331500,8.28433154296875,0.000620264676399529,0.008584689348936081,0.011372033506631851
1772642661859373600,8.29437353515625,-0.0012569974642246962,0.007498919032514095,0.005635583773255348
1772642661869414700,8.30441455078125,-0.0019467563834041357,0.0029039005748927593,0.0012229923158884048
1772642661879455500,8.31445556640625,-0.0012428828049451113,-0.0002138620475307107,-0.0017898418009281158
1772642661889497600,8.32449755859375,0.0008692638366483152,-0.0011999718844890594,0.0034303884021937847
1772642661899538400,8.334538330078125,0.0017779343761503696,-0.003548347158357501,0.006588364951312542
1772642661909580500,8.34458056640625,0.0009087582002393901,-0.0053042820654809475,0.009007541462779045
1772642661919621400,8.354621337890626,0.0035836370661854744,-0.007317631971091032,0.005776062607765198
1772642661929662500,8.364662353515625,0.005137731786817312,-0.0059975516051054,0.0021442053839564323
1772642661939704300,8.374704345703124,0.00763524416834116,-0.004728288855403662,0.0003564252983778715
1772642661949745400,8.384745361328125,0.009767503477633,-0.004318952094763517,0.002406851388514042
1772642661959786500,8.394786376953125,0.011071120388805866,-0.005172228906303644,0.0035637286491692066
1772642661969828400,8.404828369140626,0.010817794129252434,-0.005806656554341316,0.008546574972569942
1772642661979869400,8.414869384765625,0.011013803072273731,-0.006467120256274939,0.010546076111495495
1772642661989911600,8.42491162109375,0.00973618496209383,-0.00838512647897005,0.009267907589673996
1772642661999952600,8.43495263671875,0.01207790244370699,-0.0068522109650075436,0.006925124675035477
1772642662009993500,8.444993408203125,0.012414280325174332,-0.006632656790316105,0.006628602743148804
1772642662020035600,8.45503564453125,0.010345802642405033,-0.007524815388023853,0.00666455551981926
1772642662030076400,8.465076416015625,0.00897020660340786,-0.005207279231399298,0.010521747171878815
1772642662040118500,8.475118408203125,0.008945172652602196,-0.005781456828117371,0.009369131177663803
1772642662050159400,8.485159423828126,0.006783465389162302,-0.004899261519312859,0.009074165485799313
1772642662060200400,8.495200439453125,0.0080524617806077,-0.002360736019909382,0.008220355957746506
1772642662070242300,8.5052421875,0.00697497371584177,-0.0007057965267449617,0.008738861419260502
1772642662080283400,8.515283447265626,0.006543274968862534,0.00161381671205163,0.006741224322468042
1772642662090325500,8.525325439453125,0.008062055334448814,0.0009593680733814836,0.006354377605021
1772642662100366600,8.53536669921875,0.006647117901593447,0.00031754624797031283,0.008499554358422756
1772642662110407700,8.54540771484375,0.005126419942826033,0.0005575043032877147,0.012012177146971226
1772642662120449500,8.555449462890625,0.005880094598978758,0.0020302324555814266,0.015475351363420486
1772642662130490600,8.56549072265625,0.0073409914039075375,0.004617061000317335,0.016660017892718315
1772642662140532500,8.575532470703125,0.0068278005346655846,0.007386482320725918,0.017925020307302475
1772642662150573600,8.585573486328125,0.0062847016379237175,0.007492854259908199,0.05500291660428047
1772642662160614400,8.595614501953126,0.0003607663093134761,-0.002145391656085849,0.10003004223108292
1772642662170656500,8.605656494140625,0.002631963463500142,-0.014675728045403957,0.10393395274877548
1772642662180697300,8.615697265625,0.007787044625729322,-0.015449908562004566,0.0751744732260704
1772642662190739500,8.625739501953126,0.01402971986681223,-0.013844243250787258,0.041611939668655396
1772642662200780300,8.6357802734375,0.01562548615038395,-0.011941414326429367,0.009287822991609573
1772642662210821400,8.6458212890625,0.019433267414569855,-0.007540215738117695,-0.011424742639064789
1772642662220863500,8.655863525390625,0.02012781985104084,-0.0023944557178765535,-0.02485026977956295
1772642662230904600,8.665904541015625,0.022834403440356255,0.005379479378461838,-0.04728628322482109
1772642662240946400,8.675946533203126,0.018389586359262466,0.015563673339784145,-0.05809924751520157
1772642662250987500,8.685987548828125,0.015099132433533669,0.016653599217534065,0.005610481835901737
