time,seconds_elapsed,z,y,x
1772644030705624300,0.062624267578125,0.09337503378987312,0.012294066242687404,0.0002956950109452009
1772644030715665400,0.07266552734375,0.07856441814899444,0.004264160250499844,-0.007817916342476382
1772644030725705200,0.082705322265625,0.08380114975869656,0.009806487210653721,0.002201848292676732
1772644030735746000,0.09274609375,0.08335165242552757,0.005327807426638901,0.009431817812519148
1772644030745787100,0.102787109375,0.09322714975178241,0.0095133494829759,0.00975641012438573
1772644030755828200,0.112828125,0.09232873960733413,0.017784041961096227,0.004494041749928146
1772644030765869000,0.122869140625,0.09741641813516616,0.01435596720855683,0.008039167010877282
1772644030775909000,0.1329091796875,0.09562310497760772,-0.002137742681056261,0.001983364970097318
1772644030785950200,0.1429501953125,0.08694412395954132,0.00963986193947494,-0.0039163331935182216
1772644030795991300,0.1529912109375,0.09622165539264678,0.006794884304516017,-0.004210283771948889
1772644030806032100,0.1630322265625,0.10908815122842788,0.007299436293169856,0.0056893798811826855
1772644030816073200,0.1730732421875,0.09906243177652359,0.0057915890134871,0.003177013467764482
1772644030826113300,0.18311328125,0.09143032946288585,-0.003024425855092704,0.007540323243802413
1772644030836154000,0.193154052734375,0.08319792316854,0.006171162915602326,0.000542144052684307
1772644030846195200,0.2031953125,0.08738719155192375,0.006925451881624758,0.004135245774360374
1772644030856236300,0.213236328125,0.09038052814900875,0.0019371055424213409,0.0010742233690805732
1772644030866276400,0.2232763671875,0.0823047737210989,0.013017996603064238,0.009433936704369261
1772644030876317200,0.233317138671875,0.08978840747475623,0.004879954061284661,0.009156708931876346
1772644030886358300,0.243358154296875,0.09233400030434132,0.007821889264695346,0.003456159202707931
1772644030896399400,0.2533994140625,0.09263035290241241,0.012228599791042506,0.006933863516943529
1772644030906440200,0.263440185546875,0.09308043475747108,0.009197086608037352,0.009363711879216134
1772644030916480300,0.273480224609375,0.08963876987099648,0.0014190364850685,0.014897453674115239
1772644030926521300,0.283521240234375,0.08918927253782749,0.007860248513706028,0.005011992076272145
1772644030936562200,0.293562255859375,0.09726853409707546,-0.0012555530190467834,0.010618525112746283
1772644030946603300,0.303603271484375,0.10953940212726593,-0.000249627379514277,0.008114342005783691
1772644030956643300,0.313643310546875,0.08709376156330108,0.008152947849966586,0.0015103132314048706
1772644030966684400,0.323684326171875,0.09322714975178241,0.011959354395605623,-0.0007666278577875346
1772644030976725200,0.333725341796875,0.09307926571369171,0.006684227004274726,0.003382189784198999
1772644030986766300,0.343766357421875,0.09248363790810107,0.01632628090083599,0.009937758040660992
1772644030996807400,0.353807373046875,0.08724632177650928,0.015884747678413986,0.00858681835574098
1772644031006847200,0.36384716796875,0.08410393209755421,0.008417078678868711,0.00016763905133120713
1772644031016888000,0.37388818359375,0.09353168565630912,0.01737962587866932,0.01077579803369008
1772644031026929200,0.38392919921875,0.09697218149900436,0.013391798351518809,-0.0015198847773484885
1772644031036969700,0.3939697265625,0.08784370314776897,0.00938636210244149,0.007407061386108398
1772644031047009800,0.404009765625,0.0918856720149517,0.004835566930286586,0.0008660605111159384
1772644031057050600,0.414050537109375,0.08605097451210021,0.007031140745803713,-0.007939140702504665
1772644031067091700,0.424091796875,0.07901859165728092,0.0017722338369116186,0.005054716973146424
1772644031077132800,0.4341328125,0.08859481377601623,-0.0030293577585369345,0.004400271652406081
1772644031087173600,0.444173583984375,0.08994096768796443,0.008966784983500838,0.006040321343857795
1772644031097213700,0.454213623046875,0.09128653707802295,-0.0013090367719531058,0.004939246500469744
1772644031107254800,0.4642548828125,0.08560206170082092,0.009307707375660538,-0.007865180417150258
1772644031117295600,0.474295654296875,0.07946633542478083,0.012152977271564305,0.0024841358327772466
1772644031127336700,0.484336669921875,0.09547814354896544,0.013908625299856066,0.007910142936883495
1772644031137376500,0.49437646484375,0.10490648162961005,0.012819770617224275,-0.0008867836387362331
1772644031147417600,0.50441748046875,0.09472995553016662,0.007925240041315555,-0.0037640287086367604
1772644031157458400,0.51445849609375,0.09577566519081591,0.011737016881816088,0.006993028091965243
1772644031167499500,0.52449951171875,0.10011866283118724,0.0031408553089946507,-0.0020866883472539484
1772644031177540600,0.53454052734375,0.08844692973792552,0.014687756446190178,-0.01066343283355236
1772644031187580700,0.54458056640625,0.09069266283810139,0.0019495266325771808,0.00887700607450679
1772644031197621500,0.55462158203125,0.09697802671790122,0.00791778738722205,0.0021569405718706545
1772644031207662600,0.56466259765625,0.08441080608963966,0.008159560253843665,0.0031677433159202333
1772644031217703700,0.57470361328125,0.08905190989375114,0.007493643691018223,0.008523041537683457
1772644031227743700,0.58474365234375,0.08830489091873168,0.015569471184164284,0.00350246429615654
1772644031237784600,0.59478466796875,0.0899514890819788,0.018704737002588807,0.0037632797899655995
1772644031247825700,0.60482568359375,0.10222177259027958,0.01081336269825697,0.01115681497422047
1772644031257866500,0.614866455078125,0.08935235414505005,0.003522255842015147,-0.0027981976174749432
1772644031267907600,0.624907470703125,0.0903998173713684,-0.009620243923552334,0.007630120419105515
1772644031277947600,0.63494775390625,0.0818728120446205,0.005276954022236168,0.005796009460277855
1772644031287988700,0.64498876953125,0.08516425480544566,0.008429718964733183,0.008522411350021138
1772644031298029600,0.655029541015625,0.09009937312006949,0.010747494387812912,0.008692470687301829
1772644031308070700,0.665070556640625,0.08575871356725692,0.0012343641005456447,0.0047664654831402
1772644031318110700,0.67511083984375,0.08950082270503043,0.004513093510270119,-0.0021930713311769066
1772644031328151800,0.68515185546875,0.08456219725906848,0.008464132690988481,0.0016292908354196697
1772644031338192600,0.695192626953125,0.09039806380569934,0.006953508932329714,0.00016226875646971166
1772644031348233700,0.705233642578125,0.08485854985713959,-0.0013574424909427762,-0.0021712248255498705
1772644031358274800,0.71527490234375,0.10326339059770107,0.011808913074247538,0.005180032986402511
1772644031368314600,0.725314697265625,0.09832651871740818,0.011904738131538032,-0.0007550744173116981
1772644031378355700,0.735355712890625,0.0980289970755577,0.008280519752390683,0.0038211474570445715
1772644031388396800,0.745396728515625,0.10162205313146114,0.01435812263302505,0.010701664218399673
1772644031398437600,0.755437744140625,0.09549158755242824,0.008087408333085477,0.003199051769636571
1772644031408477400,0.7654775390625,0.09594166940748691,0.00042041736915707586,-0.003538558522844687
1772644031418518500,0.7755185546875,0.08607084825634956,0.008511698159761726,-0.009597374504618346
1772644031428559600,0.7855595703125,0.08757014690339565,-0.0012805413298308849,0.0008443966685794293
1772644031438600400,0.795600341796875,0.10567746600210666,0.008272007652372121,0.0024398948322515933
1772644031448641500,0.8056416015625,0.10253624536693096,0.0030121508954092857,0.016495171194337306
1772644031458681600,0.815681640625,0.07739946602284908,0.0061106649000197645,0.0037069556260015814
1772644031468722700,0.82572265625,0.08997019378244876,0.01103931694123894,0.005110913272947073
1772644031478763500,0.835763427734375,0.08278700428009032,0.00971541139371693,0.00439080970431678
1772644031488804600,0.8458046875,0.09759937348663807,0.0021249197321012614,-0.0012749609724152832
1772644031498844700,0.8558447265625,0.09176409146189689,0.01704739824961871,0.008179068671911954
1772644031508885500,0.865885498046875,0.10133972905874251,0.01620225266236812,0.005755074661690741
1772644031518926600,0.875926513671875,0.1038806457132101,0.015853329626843334,0.01037098922561854
1772644031528967700,0.8859677734375,0.10403028331696987,0.0034414456907659765,-0.00023428367991000412
1772644031539008500,0.896008544921875,0.10074000959992409,0.000060169222019612784,-0.0030342439962085335
1772644031549048600,0.906048583984375,0.09939385568797587,0.004670183768123388,-0.003912296339217573
1772644031559089700,0.916089599609375,0.08922083671987056,0.010906776602752506,-0.0015414755546487866
1772644031569130800,0.926130859375,0.09969605350494384,0.016433248406648636,0.0014193013465497641
1772644031579171600,0.936171630859375,0.09475918162465095,0.0018798954624682663,-0.006379426238266751
1772644031589211600,0.946211669921875,0.09879939692616461,0.006075557054020464,-0.0013080869238823651
1772644031599252700,0.956252685546875,0.09745675014555454,0.002546104286238551,0.008501688222400843
1772644031609293800,0.9662939453125,0.08249415881335735,0.010305851567536592,0.007572079222090542
1772644031619334700,0.976334716796875,0.09701017542183399,0.005460274699889123,0.0022263708125799895
1772644031629375700,0.986375732421875,0.0821954681277275,-0.0009593830840662121,-0.000636973596131429
1772644031639415800,0.996415771484375,0.08893091386258602,0.0014050810249522329,0.004569636869942769
1772644031649456600,1.00645654296875,0.0868359874099493,0.004488068666867911,-0.005796310854377225
1772644031659497700,1.016497802734375,0.09087444914579391,-0.008758183734118938,-0.0052119533614721145
1772644031669538800,1.026538818359375,0.08548866445422172,-0.00011080343071371317,0.013494610272021963
1772644031679578600,1.03657861328125,0.0920727190196514,0.009487045997940003,0.007889785135444253
1772644031689619500,1.046619384765625,0.09252104730904102,0.004135784630477428,0.0005111187267582863
1772644031699660500,1.05666064453125,0.07426467512845993,0.0023086057359352707,0.004504261749843135
1772644031709701600,1.06670166015625,0.0797995129019022,-0.0030436054795980453,0.008906223035836592
1772644031719742500,1.076742431640625,0.07591010424792766,0.014715703899040818,0.018230013896618037
1772644031729782500,1.086782470703125,0.09745499657988548,0.01593662399612367,0.00578372536743991
1772644031739823600,1.09682373046875,0.10897475398182868,0.00747607150170952,0.004315086720138788
1772644031749864700,1.10686474609375,0.09984744467437266,0.009882657719403505,-0.0005549213358666747
1772644031759905500,1.116905517578125,0.09431202237904071,0.011483590110018848,-0.003971789707802236
1772644031769945600,1.126945556640625,0.09909808761179446,0.011686053879559039,0.006107239967072382
1772644031779986700,1.136986572265625,0.09266074804067612,0.00502677865345031,0.002712601693253964
1772644031790027500,1.147027587890625,0.09160919316112995,0.006061163202486932,-0.003736391783040017
1772644031800068600,1.157068603515625,0.09041326137483119,0.010819171384535729,0.00342067689737305
1772644031810109700,1.167109619140625,0.09326046749949454,0.009519523495435714,0.0015910868500359355
1772644031820149800,1.177149658203125,0.10239128393828868,-0.000475472024641931,0.0028189116119407115
1772644031830190600,1.187190673828125,0.10553484266102313,0.006970715795457363,-0.004195506327925249
1772644031840231700,1.197231689453125,0.1044862103909254,0.01057641213722527,-0.00550798629913479
1772644031850272800,1.207272705078125,0.09835223768055439,0.01830623920429498,0.0006576236585155129
1772644031860312600,1.2173125,0.09161737646758555,0.006330299000069498,0.006146740860398858
1772644031870353700,1.227353759765625,0.09819967746734619,0.009824461258761585,-0.002073171278554946
1772644031880394800,1.237394775390625,0.08787234472036361,0.014208265833556652,0.007861591087421401
1772644031890435600,1.247435546875,0.08607903156280516,0.007260163728706538,-0.004582925609778613
1772644031900476700,1.2574765625,0.09820084651112555,0.0016857611298561096,0.00008154080361127852
1772644031910516700,1.267516845703125,0.0887748465180397,0.010488953049480915,0.0044011393020860845
1772644031920557800,1.277557861328125,0.09116846365630626,0.00017802344802767038,-0.006546362036699429
1772644031930598700,1.2875986328125,0.10374036045968532,0.007745828353799879,0.0004988985660020262
1772644031940639700,1.2976396484375,0.10673486610054969,0.0012587313568219543,0.010933865539077669
1772644031950679600,1.307679443359375,0.09746025727689266,0.014497494571097193,-0.009743130517704411
1772644031960720600,1.317720703125,0.09671148473620414,0.010903598264977336,0.01468682486442849
1772644031970761500,1.327761474609375,0.09955518372952937,0.013551445892639458,0.0029355511283967644
1772644031980802600,1.337802490234375,0.09087561818957328,0.01939279233198613,0.002385278568184003
1772644031990843600,1.34784375,0.10329553930163383,-0.000948715559579432,-0.0016806008975487202
1772644032000883500,1.357883544921875,0.09820844529569149,0.011324052166752516,-0.0023211638234090057
1772644032010924500,1.367924560546875,0.09192308141589164,0.015059877694211899,-0.0018295261152554301
1772644032020965600,1.377965576171875,0.082796941152215,0.008562368901073932,0.010292791156563907
1772644032031007500,1.388007568359375,0.09925532400012016,-0.0004005801575258374,0.0066578961197752504
1772644032041047600,1.398047607421875,0.08264671902656555,0.006440444843657314,-0.00005820559379644692
1772644032051088600,1.408088623046875,0.10539397288560867,0.003982091906107962,-0.004251136372145265
1772644032061129500,1.41812939453125,0.08848433913886547,-0.002171864146366715,0.005397228534193709
1772644032071170600,1.428170654296875,0.08474339904487133,0.0018503771070390938,-0.0010004640131257474
1772644032081211600,1.438211669921875,0.09955576825141906,0.0005266176899895072,0.012384849798679352
1772644032091251700,1.448251708984375,0.11077683496773243,0.011341368627734482,-0.0007383881439920514
1772644032101292500,1.45829248046875,0.09401800786852836,0.005489245066046714,0.006592146540340036
1772644032111333600,1.468333740234375,0.09416939903795718,0.012162475752271711,0.004945027787284925
1772644032121374700,1.478374755859375,0.09491700253486633,0.014558394445478915,0.0026111780122388155
1772644032131414500,1.48841455078125,0.09461597376167774,0.004705949201248586,0.0065653407318051905
1772644032141455600,1.49845556640625,0.08264671902656555,0.018110862762667237,-0.0020830898843705653
1772644032151496700,1.50849658203125,0.08893091386258602,0.012615297553688287,0.0066904375493526454
1772644032161537500,1.51853759765625,0.09252221635282039,-0.0005351663226261735,-0.00010592632619664072
1772644032171578600,1.52857861328125,0.08938099571764468,0.006020721594244241,-0.004477099748281762
1772644032181618700,1.53861865234375,0.09102700935900211,0.009163001675345003,-0.002683640460250899
1772644032191659800,1.54865966796875,0.10045300935208797,0.008888276387192308,-0.0008421499125659466
1772644032201700600,1.55870068359375,0.09895780235826969,0.006874233151040971,0.0026564236597623673
1772644032211741700,1.56874169921875,0.10284721101224421,-0.003403232572227716,0.003263120848638937
1772644032221781800,1.57878173828125,0.09476385779976844,0.006999905357323586,0.0028361458745319395
1772644032231822800,1.58882275390625,0.0953629927366972,0.009830964064784347,-0.0038934181088116017
1772644032241863700,1.59886376953125,0.09491466444730758,0.018206870483048258,0.007864303634315728
1772644032251904800,1.60890478515625,0.09431669855415821,0.01732851674593985,0.0012124901954550294
1772644032261945600,1.618945556640625,0.08010346428453922,0.005573087424598634,-0.01507840886474587
1772644032271985400,1.6289853515625,0.08189911552965641,0.005232895684801042,0.0019062537464313207
1772644032282026500,1.639026611328125,0.09925883113145828,0.017465331400744615,0.007262081691157073
1772644032292067600,1.649067626953125,0.09252572348415851,0.008162007939256727,0.00609196933270432
1772644032302108400,1.6591083984375,0.07890987058579921,0.004073898375406861,-0.0015288352687843143
1772644032312148500,1.6691484375,0.09327508054673671,0.009163951523415743,-0.009446476525533943
1772644032322189600,1.679189453125,0.09596914193630218,0.0064527198033407325,0.009834763457067311
1772644032332230700,1.689230712890625,0.10165478635728359,0.015157383251935243,0.008197444578818977
1772644032342271500,1.699271484375,0.10120587354600429,0.005728899040818214,0.010728424361161887
1772644032352312600,1.7093125,0.07846329586207866,0.013311791917867959,0.00005700001739896834
1772644032362352600,1.7193525390625,0.08624503577947616,0.01789835252314806,0.00818080397127196
1772644032372393700,1.729393798828125,0.09821896668970584,0.013312376439757644,0.01359558642846532
1772644032382434600,1.7394345703125,0.10121347233057021,0.004902019762620329,0.005750024027237668
1772644032392475600,1.7494755859375,0.08131810077130794,-0.0049907574919983745,0.00897061177524738
1772644032402515700,1.759515625,0.07892623719871043,-0.0005680456789210438,0.004449070097040385
1772644032412556500,1.769556640625,0.09045008625388144,0.013278510702773928,0.01017142979921773
1772644032422597600,1.77959765625,0.09808043500185012,0.003285232215747237,0.008380573460226878
1772644032432638700,1.789638671875,0.09822773451805114,0.005767915876954794,0.005218757561594248
1772644032442679600,1.799679443359375,0.09912848275005817,0.012138948746211827,-0.006538005200307816
1772644032452719600,1.8097197265625,0.09479308389425277,0.0033447438506409525,0.00571999421515502
1772644032462760700,1.8197607421875,0.09180033181905746,0.008586334298551082,0.00839273882205598
1772644032472801800,1.8298017578125,0.08925590803325176,0.004582688147760927,0.0050730928800534454
1772644032482842600,1.839842529296875,0.08311959723532199,0.013314166538044809,0.011444838135363533
1772644032492882700,1.849882568359375,0.08865501953065395,0.011850414128415285,0.0032482886056881396
1772644032502923800,1.859923828125,0.08566402102112769,-0.0007735051231458782,-0.007106005213456228
1772644032512964600,1.869964599609375,0.10272446141541003,-0.0018578662937507031,0.0030633604928385467
1772644032523005700,1.880005615234375,0.08207505661845206,0.005003068984299898,0.00036114319628104564
1772644032533045500,1.89004541015625,0.09674071083068847,0.009344897580891846,0.0023748576388694345
1772644032543086600,1.900086669921875,0.09883855989277363,-0.002706190218776464,0.011177291506668552
1772644032553127400,1.91012744140625,0.09764379715025424,0.010720898641832172,0.000447725501190871
1772644032563168500,1.92016845703125,0.09091478115618229,0.003872457519173622,0.008014343096874654
1772644032573209600,1.930209716796875,0.09361059611141681,0.013977562350220978,0.002628046948648989
1772644032583249700,1.940249755859375,0.10558160441219806,0.015662994686514137,0.011370676920609548
1772644032593290500,1.95029052734375,0.09196458247005938,0.008475530867837368,0.004913655401486903
1772644032603331600,1.96033154296875,0.08777765217423439,0.010480440949462353,-0.0003186100956518203
1772644032613372700,1.97037255859375,0.08059563171565533,0.009415588196925818,-0.00781266477862373
1772644032623412700,1.980412841796875,0.09181903651952743,0.006258731601200998,-0.004060381306707859
1772644032633453600,1.99045361328125,0.08942308129370212,0.005261244996450841,-0.0006233103969600051
1772644032643494700,2.00049462890625,0.09151625418066978,0.0027739216927438973,0.0035858134643640366
1772644032653535500,2.010535400390625,0.10932371354997157,0.01740845011435449,-0.004050380502501502
1772644032663576600,2.02057666015625,0.1000467666387558,0.0049797246413305395,-0.000028093583323061465
1772644032673616600,2.03061669921875,0.0946609819471836,0.007489113646373152,-0.0019633724948391316
1772644032683657700,2.04065771484375,0.09166822987198829,0.011195311220549045,-0.0034006570226512846
1772644032693698600,2.050698486328125,0.08478606914281844,0.00042041736915707586,-0.0024070246091112495
1772644032703739600,2.06073974609375,0.10094985295832157,-0.008173406116105616,0.005289146783528849
1772644032713779700,2.07077978515625,0.08299275598526,0.008918963786400854,0.0031549112338107076
1772644032723820800,2.08082080078125,0.09241992502212523,0.013547025445848702,-0.00011799122332595288
1772644032733861600,2.090861572265625,0.08957739507257938,-0.000573123712837696,0.00775383813031949
1772644032743902700,2.10090283203125,0.0942167453110218,-0.004004486401006579,-0.0005228182977065444
1772644032753943800,2.11094384765625,0.10080196892023086,0.017053718392550946,0.007237486106017604
1772644032763983600,2.120983642578125,0.10424772545993327,-0.0024835969766601918,0.023918836655374615
1772644032774024700,2.131024658203125,0.09018062166273594,0.0045694268073886634,0.007805148192448541
1772644032784065800,2.141065673828125,0.097362642121315,0.009812332429550588,-0.00010065649603493511
1772644032794106600,2.151106689453125,0.09946049118340015,0.0032789120728150007,0.00841302355825901
1772644032804146400,2.161146484375,0.09018529783785342,0.009232815508544445,0.0032539328951854255
1772644032814187500,2.1711875,0.0901864668816328,0.0036532252779230474,-0.0040727749974001195
1772644032824228600,2.181228515625,0.09512509232759475,0.004124130725301802,0.003627186654368415
1772644032834269400,2.19126953125,0.09093757750988006,-0.0011545403299853204,-0.007968421595916151
1772644032844310500,2.201310546875,0.09019231210052966,0.01299896310903132,-0.009245136134000494
1772644032854350600,2.2113505859375,0.09318681774139403,0.010405731745436787,-0.0008752210651058703
1772644032864391700,2.2213916015625,0.10949848559498786,0.010470394479483365,0.010733310598833486
1772644032874432500,2.2314326171875,0.1008177510112524,0.012885894655995071,0.004817455884860828
1772644032884473600,2.2414736328125,0.09363339246511458,0.00781651896983385,-0.0027229404241777954
1772644032894513700,2.251513671875,0.10171557663381099,0.007446589678898453,0.0027120263045188036
1772644032904554500,2.261554443359375,0.1008218426644802,0.014027831232734024,0.006342984951706603
1772644032914595600,2.271595703125,0.07882628395557403,-0.00020827245581895112,0.0075299114476423705
1772644032924636700,2.28163671875,0.08945055382251739,-0.001258804422058165,0.008113309959322213
1772644032934677500,2.291677490234375,0.1047124203622341,0.0005569762956351041,0.009506399152381346
1772644032944717600,2.301717529296875,0.09393909741342067,0.012361176662147044,0.002934345551999286
1772644032954758700,2.311758544921875,0.09334054699838161,0.013708974541909991,0.00005364814968779683
1772644032964799700,2.3217998046875,0.10172142185270786,0.014290062365494668,0.002125604718690738
1772644032974840600,2.331840576171875,0.08496434831917285,0.005404051000624895,0.00268827096959576
1772644032984880600,2.341880615234375,0.09169979405403136,0.005091806713677942,-0.00848329404918477
1772644032994921700,2.351921630859375,0.08332125728726386,-0.0025448987098410725,-0.0013674341619946062
1772644033004962600,2.361962646484375,0.09888356807827949,0.0027396540969610215,0.004051823540916666
1772644033015003600,2.372003662109375,0.0903518865764141,0.00476626455374062,-0.001356063384609297
1772644033025044700,2.382044677734375,0.08675649243295193,-0.003513999470323324,0.010515265667671338
1772644033035084500,2.39208447265625,0.08481237262785435,0.012166640470735728,0.016966286704270167
1772644033045125400,2.40212548828125,0.0852671306580305,0.0066210255749523635,0.005521649498306215
1772644033055166500,2.41216650390625,0.08212532550096512,0.005246412753500044,-0.005990454320143908
1772644033065207600,2.42220751953125,0.09334814578294753,0.0160428243169561,0.0011487955757882445
1772644033075247600,2.43224755859375,0.09185235426723956,0.0022646569963544606,-0.002015833334438503
1772644033085288400,2.442288330078125,0.08317395777106285,0.009129464731924235,-0.00007089154543355106
1772644033095329500,2.45232958984375,0.09245324276983738,0.0047577524537220596,-0.0011550791861023753
1772644033105370600,2.46237060546875,0.09454933826625346,0.0008718143984675407,-0.0017142474388238042
1772644033115411500,2.472411376953125,0.09380348833501338,0.003524849657900631,0.00016014073146507142
1772644033125451300,2.482451171875,0.08572539581954479,0.013067132974416017,0.0094898864089977
1772644033135492400,2.492492431640625,0.0960509750008583,0.003480097200721502,0.004368232546327636
1772644033145533400,2.502533447265625,0.10263502956628799,0.017869784015789626,0.0008617131295613944
1772644033155574300,2.51257421875,0.08901859214603901,0.0060290875637903805,0.008071114785410463
1772644033165614300,2.5226142578125,0.09620119712650775,-0.0017416925681754945,-0.002726292291888967
1772644033175655400,2.532655517578125,0.10593114850223063,-0.0016682620057836173,0.00034221930010244246
1772644033185696300,2.5426962890625,0.08902268379926681,0.004879552202485501,0.004261411170987412
1772644033195737300,2.5527373046875,0.08662614405155182,0.004478350990451872,0.007006764356372878
1772644033205778400,2.5627783203125,0.09755202721357345,0.0053504576498642565,-0.004304300464643166
1772644033215818500,2.572818603515625,0.08423837213218212,-0.0004608589773997664,-0.0002852375490125268
1772644033225859300,2.582859375,0.08738193085491656,0.009691628659330308,0.0038385369832627473
1772644033235900400,2.592900390625,0.08917875114381313,0.006199146901071071,0.001627592068677768
1772644033245941500,2.60294140625,0.09770984812378883,-0.0020893369620665907,0.00016052432395517824
1772644033255981600,2.612981689453125,0.0926215850740671,0.010313377286866307,0.007256300404341891
1772644033266022400,2.6230224609375,0.09187164348959923,0.0004997662156820296,-0.004560129256080836
1772644033276063500,2.6330634765625,0.08244622801840305,0.006153663791529834,-0.006423648972483351
1772644033286104300,2.643104248046875,0.08783376627564429,0.004200191636197268,0.0020806330658029765
1772644033296144400,2.653144287109375,0.10294657973349093,0.0038979938192293044,0.003030736864870414
1772644033306185500,2.663185546875,0.09726093531250952,0.0014718991834670305,0.006205467044003307
1772644033316226600,2.6732265625,0.09965338340699673,0.010770290741510688,0.0032786472113337365
1772644033326267400,2.683267333984375,0.09501520221233367,0.0027906536318361755,-0.001134620919963345
1772644033336308500,2.69330859375,0.10324585494101048,0.0019017054354771971,0.0003182721689343452
1772644033346348500,2.7033486328125,0.08543839557170868,-0.010808942251466214,-0.00013127996316179632
1772644033356389600,2.7133896484375,0.08962941752076148,-0.00545289511103183,0.009160544856777414
1772644033366430500,2.723430419921875,0.09426701419353485,0.008341784952953457,0.007214680619165301
1772644033376471600,2.733471435546875,0.09232055630087851,-0.0019382015209645032,0.0022795988371595737
1772644033386511400,2.743511474609375,0.09725684365928172,0.0074161580080166455,-0.001049655183404684
1772644033396552400,2.753552490234375,0.10279401952028273,0.002901895453967154,0.005963356250664219
1772644033406593300,2.76359326171875,0.09067337361574172,-0.003232771376147866,0.008352808670466765
1772644033416634400,2.77363427734375,0.08902677545249461,0.00171465843077749,0.00030281887147575614
1772644033426675200,2.78367529296875,0.07959843737185,0.007590930053032934,-0.004632107646903023
1772644033436715300,2.79371533203125,0.07600538131594657,0.013918160313181578,0.007198323139408603
1772644033446756400,2.80375634765625,0.08393734335899353,0.0011697013664990663,0.003471210641367361
1772644033456797400,2.81379736328125,0.08647826001346111,-0.0005406462153419852,0.014571546187996864
1772644033466838300,2.82383837890625,0.10219079293012619,0.004970153095386922,0.0009512545765377581
1772644033476878300,2.83387841796875,0.08453238664269447,0.004550356780737638,0.004249821197893471
1772644033486919400,2.84391943359375,0.10428747294843196,0.002660341783054173,0.013241347897006197
1772644033496960500,2.85396044921875,0.0912713395088911,0.005413951340131461,0.004764931113179773
1772644033507001300,2.86400146484375,0.0960597428292036,0.008953377512656152,0.005298690930008888
1772644033517042400,2.87404248046875,0.09127192403078078,-0.0004611147057265043,0.001517546689789742
1772644033527082500,2.88408251953125,0.09306991336345673,-0.00708762017339468,-0.0023229904543142763
1772644033537123300,2.894123291015625,0.08543781104981898,0.008077179200015962,-0.009123308985773473
1772644033547164400,2.904164306640625,0.10115034396648406,0.011779796577617525,-0.004755889290198684
1772644033557205500,2.91420556640625,0.08963117108643054,0.016647110353037713,0.004340038498304784
1772644033567245600,2.92424560546875,0.09262509220540523,0.010185732319206,-0.0007924290193244815
1772644033577286400,2.934286376953125,0.10040507855713367,-0.003122515934705734,-0.001007779669901356
1772644033587327500,2.944327392578125,0.09726035079061984,0.0054771162368357175,0.01202289375164546
1772644033597368600,2.95436865234375,0.09427052132487297,0.011559577955678104,-0.010812166255014017
1772644033607409400,2.964409423828125,0.09876257204711436,0.0017658040961250662,-0.0009836224761791527
1772644033617449500,2.974449462890625,0.088735099029541,0.004487118818797171,-0.0015165511759463698
1772644033627490600,2.984490478515625,0.08454232351481913,-0.00888875131122768,0.0071568951504770665
1772644033637531400,2.994531494140625,0.08424071021974086,0.007180376490764319,0.002248774440633133
1772644033647572500,3.004572509765625,0.09501461769044399,-0.0011806976845487951,0.00445511624533683
1772644033657612300,3.0146123046875,0.09172142136394977,-0.002008198017254472,-0.0005481080025900155
1772644033667653400,3.0246533203125,0.08723346229493617,0.011312215598486363,-0.0035048845821060238
1772644033677694200,3.034694091796875,0.10145137273967265,0.012585961861349642,-0.006348090385086834
1772644033687735300,3.0447353515625,0.09621581017374992,0.007011376599408686,0.0015427633294370024
1772644033697776400,3.0547763671875,0.09142857589721679,0.007893164402619003,0.0011957765226718038
1772644033707816400,3.06481640625,0.08873685259521007,0.0029232670355588196,-0.018155551287764683
1772644033717857300,3.074857177734375,0.08559504743814468,-0.005906739825755358,-0.0005425641777925193
1772644033727898400,3.0848984375,0.09157938254475594,0.0007080021388828754,0.006789788004290312
1772644033737939500,3.094939453125,0.10624152962565421,0.015141528095677493,-0.0000817782656289637
1772644033747979500,3.1049794921875,0.09606675709187984,0.0003108195148408413,-0.007265771485585719
1772644033758020400,3.115020263671875,0.09726502696573734,0.0006050532210618257,-0.006274659822694957
1772644033768061400,3.1250615234375,0.09397475324869155,0.00474850970134139,-0.0004637267879210412
1772644033778102300,3.135102294921875,0.0908311945259571,0.006890636296570301,-0.00032489370596595104
1772644033788143400,3.145143310546875,0.09831190567016601,0.004076674854382872,0.0056505183086730535
1772644033798183400,3.155183349609375,0.09053016575276851,0.007273753862641751,-0.0034005291584879157
1772644033808224500,3.165224609375,0.10504442879557609,0.008667180982418358,0.0020743494554888455
1772644033818265300,3.175265380859375,0.0956195978462696,0.010423523130454122,-0.012391106009529904
1772644033828306400,3.185306396484375,0.0956195978462696,0.005650390444509685,0.00237779851462692
1772644033838346500,3.195346435546875,0.08529635675251483,0.006202288706228137,0.016723034266615287
1772644033848387600,3.2053876953125,0.09442425058186053,0.007741627102717757,-0.008190138055197894
1772644033858428400,3.215428466796875,0.09846388136148453,-0.00015413111578673123,0.006288496551802382
1772644033868469500,3.225469482421875,0.09547054476439952,-0.0029530776519328355,0.006809643482230603
1772644033878509600,3.235509521484375,0.09846095875203609,0.013571538832597433,0.002333639712492004
1772644033888550400,3.24555029296875,0.10818564943075179,0.0024095453597605225,0.006660106343170627
1772644033898591500,3.255591552734375,0.10279635760784149,0.004424830704927444,-0.002573184089409187
1772644033908632600,3.265632568359375,0.09770400290489197,0.008891272061876952,-0.0004537442500237375
1772644033918673400,3.27567333984375,0.099201547986269,0.013511661871522664,0.007276183281745762
1772644033928713200,3.285713134765625,0.10399170487225055,0.0028487770272418857,-0.014446951693948357
1772644033938754300,3.29575439453125,0.08797931222617626,0.007698810874298214,-0.0026640863764099774
1772644033948795400,3.30579541015625,0.08977437894940375,-0.000815298438258469,0.0018380656147375701
1772644033958836200,3.315836181640625,0.09052373601198196,-0.002354600302129984,-0.0012904873351100832
1772644033968876300,3.325876220703125,0.09262100055217742,0.0002513078799471259,0.00245958591341041
1772644033978917400,3.33591748046875,0.09351765713095664,0.014324001167714595,0.007180257759755477
1772644033988958500,3.34595849609375,0.10683365029990673,-0.0004379530258476734,0.005089002835238352
1772644033998999300,3.355999267578125,0.09351590356528758,0.009563837561197578,0.0039582726391032335
1772644034009040400,3.366040283203125,0.09501052603721619,-0.00010506780967116356,0.0045533341891132294
1772644034019080400,3.37608056640625,0.09949790058434009,-0.0015614040978252886,0.003086229911772534
1772644034029121300,3.386121337890625,0.09470715917646884,0.007464417596533894,-0.01016639743107371
1772644034039162400,3.396162353515625,0.08153905004560946,-0.002377250525355339,0.003372426442010328
1772644034049203500,3.406203369140625,0.1023380924463272,-0.008790295905433594,0.0019959047912620005
1772644034059243500,3.416243408203125,0.0764531250834465,0.011680829715169965,-0.005416910482198
1772644034069284400,3.426284423828125,0.08378653671145439,0.0042866278106346726,0.004670932686794549
1772644034079325400,3.436325439453125,0.09156652306318283,0.007336005443893372,0.0010362933783326297
1772644034089366500,3.446366455078125,0.08977145633995533,0.010450739930942653,0.0074816883917432275
1772644034099407400,3.456407470703125,0.10667933652102947,0.00432900564763695,0.004552046414325013
1772644034109447400,3.466447509765625,0.09246259512007236,0.00746803432572633,-0.005563707674900069
1772644034119488500,3.476488525390625,0.09500643438398837,0.006151581432297826,-0.010559415336651726
1772644034129529600,3.486529541015625,0.0899205094218254,0.008955679067596792,0.006032813890837133
1772644034139570400,3.4965703125,0.09440788396894931,0.0009219736831262707,-0.002645135080767795
1772644034149610500,3.506610595703125,0.08123743675053119,-0.00021799013223499058,0.00800500901294872
1772644034159651600,3.516651611328125,0.09380757998824119,0.004425634422525763,0.014412528834538533
1772644034169692400,3.5266923828125,0.10098901592493056,0.020286562833935023,-0.00617473397902213
1772644034179733500,3.5367333984375,0.09694821610152721,0.006958221640065312,-0.0007200396365486085
1772644034189774600,3.546774658203125,0.09605155952274799,0.0019738208236172792,0.0024594215166289356
1772644034199814700,3.556814697265625,0.09485387417078017,0.010475947437435388,0.005998418430890887
1772644034209855500,3.56685546875,0.092608725592494,0.003590169979073107,0.006058523720828816
1772644034219896600,3.576896484375,0.09739537534713745,0.0027225202990695833,0.0023916261105798183
1772644034229937700,3.586937744140625,0.1036801547050476,-0.003120104781910777,0.00838507610540837
1772644034239977500,3.5969775390625,0.10038578933477402,0.008469137659668922,0.0021018585169222206
1772644034250018600,3.6070185546875,0.09634440498948096,0.011475224140472709,0.0005071458045393228
1772644034260059600,3.6170595703125,0.10083528666794299,0.0057183776468038554,0.0015856069573201238
1772644034270100500,3.6271005859375,0.09634966568648815,0.005209039885178208,-0.010945053653372451
1772644034280141600,3.6371416015625,0.08796820631027222,0.009305953809991479,0.008225419431133195
1772644034290181400,3.647181396484375,0.10382686969935893,0.005195778544805943,0.0019539196799043565
1772644034300222500,3.657222412109375,0.08886544741094111,0.0026146029451861977,0.000981868910510093
1772644034310263300,3.66726318359375,0.10577391211390495,0.014613229905255138,0.0017242391098756342
1772644034320304400,3.677304443359375,0.09425240114629269,0.0041316564446315165,0.0007927852123510092
1772644034330344400,3.687344482421875,0.09275660963058471,0.013529014865122735,-0.0007060567769687623
1772644034340385500,3.697385498046875,0.09469780682623385,0.015723784963041543,0.005514534770930186
1772644034350426400,3.70742626953125,0.09514613511562346,0.007798508389107882,0.007030994615331292
1772644034360467500,3.717467529296875,0.09993629200160503,0.006263626972027122,0.013279013026272877
1772644034370508500,3.727508544921875,0.08886661645472049,-0.006696465431340039,0.0027697843737434593
1772644034380548400,3.73754833984375,0.09919102659225464,0.01695135399661958,-0.007681056021898985
1772644034390589400,3.74758935546875,0.09335340647995471,0.01520286636147648,-0.000008521233173087238
1772644034400630500,3.757630615234375,0.0936503435999155,0.00776628661993891,-0.004887616777932271
1772644034410671400,3.76767138671875,0.09439911614060402,-0.0018382848104462027,0.0014213015073910355
1772644034420711400,3.77771142578125,0.09724281513392925,0.0071145081803202625,-0.002625836725253612
1772644034430752500,3.78775244140625,0.08362462414801121,0.005973740647360682,-0.0002526778531260788
1772644034440793600,3.797793701171875,0.08945990617275237,-0.007485058525763452,-0.002018399750860408
1772644034450834400,3.80783447265625,0.08048281899094581,0.0030906960243359204,0.0019002167312894016
1772644034460874500,3.81787451171875,0.09649287354946136,-0.003758073891885578,-0.0017053791457787154
1772644034470915600,3.82791552734375,0.09888824425339698,0.005037117384374142,0.0020341270429547875
1772644034480956700,3.837956787109375,0.09140577954351901,0.013576251540333031,0.0004226367257069796
1772644034490997500,3.84799755859375,0.09544891745448111,0.004819894437119364,0.0014247264403384177
1772644034501038600,3.85803857421875,0.09095978934168815,0.007946611622907222,-0.0070709978321567175
1772644034511078700,3.86807861328125,0.10143500612676143,0.005682393017970026,0.0056513402925804255
1772644034521119500,3.878119384765625,0.10577508115768432,0.00026117168683558703,0.0034219281395431607
1772644034531160600,3.88816064453125,0.08422551265060901,0.00523410126119852,0.0025910576728172597
1772644034541201700,3.89820166015625,0.08527297587692736,0.006133278590627014,-0.012550552621250972
1772644034551241500,3.908241455078125,0.09275368702113627,-0.006398176604509353,0.005254276399547234
1772644034561282300,3.9182822265625,0.08811316773891449,0.004025967580452561,0.010120841256296262
1772644034571323400,3.928323486328125,0.0942471404492855,-0.0023845205163583157,0.016875448349351063
1772644034581364500,3.938364501953125,0.08467150285243988,-0.002397745324112475,0.0015539149111136793
1772644034591405300,3.9484052734375,0.08901040883958339,0.0106407460777089,0.007526559579931199
1772644034601445400,3.9584453125,0.10008592960536479,-0.004674238888733089,-0.007617443600622937
1772644034611486500,3.968486572265625,0.08931143761277198,0.003415215270966291,0.00706365477591753
1772644034621527600,3.978527587890625,0.09664484924077987,-0.0000636763533577323,-0.007153716812701895
1772644034631568400,3.988568359375,0.09006196371912956,0.007246390931680798,-0.0019701036297250537
1772644034641608400,3.9986083984375,0.09200959065556526,-0.0017919249180704355,0.002216315209446475
1772644034651649500,4.0086494140625,0.08901566953659057,-0.0015909589858725667,0.00892295497492887
1772644034661690400,4.0186904296875,0.09380173476934432,0.001135324172861874,0.006763493652408943
1772644034671731500,4.0287314453125,0.0945475847005844,0.009320968716032803,0.005796365653304383
1772644034681772500,4.0387724609375,0.08661912978887558,-0.0030116759713739154,0.01849514937251806
1772644034691812600,4.0488125,0.08482581663131714,0.004980016902275383,0.0008535480894148349
1772644034701853400,4.058853515625,0.09709434657394886,-0.0022890607852488754,-0.0025914412653073667
1772644034711894500,4.06889453125,0.09634615855515002,0.0020407120473682878,-0.0027123185654636473
1772644034721935600,4.078935546875,0.09918985754847526,0.006044906187430024,-0.001327988067595288
1772644034731975700,4.0889755859375,0.09125964907109736,-0.0030993907874450085,-0.0055485375052317975
1772644034742016500,4.0990166015625,0.09215805921554565,0.006775412419065833,-0.00332609394909814
1772644034752057600,4.1090576171875,0.08781856870651245,0.011838285299204289,-0.00014366452069953083
1772644034762098400,4.119098388671875,0.08048924873173237,0.00952321328986436,0.004890091862808913
1772644034772139500,4.129139404296875,0.09784779528975486,0.009909472661092877,0.01128700809199363
1772644034782179600,4.1391796875,0.07735036618411541,0.005021043032407761,-0.003079243048559874
1772644034792220700,4.149220703125,0.08468260876834392,0.0028173589756712316,0.005389227890828624
1772644034802261500,4.159261474609375,0.09305880744755267,0.008013174053095281,-0.010801078605419024
1772644034812302600,4.169302490234375,0.08842062625288963,0.0023335575141012668,-0.0026175346877891567
1772644034822342400,4.17934228515625,0.09799334124028682,0.000679031772725284,0.005911662596045061
1772644034832383500,4.189383544921875,0.09469839134812355,0.0023571210527792573,0.010386506455158814
1772644034842424300,4.19942431640625,0.08317804942429065,0.0028852731127291917,0.005624278755718842
1772644034852465400,4.20946533203125,0.0939554640263319,0.012955416228249668,-0.004269886738387868
1772644034862506500,4.219506591796875,0.09500584986209869,0.008213774659112095,0.004152352172788232
1772644034872546600,4.229546630859375,0.0920125132650137,0.003277669963799417,0.019872429075092075
1772644034882587400,4.23958740234375,0.09066635935306548,0.011787468427419661,-0.004203671368071809
1772644034892628500,4.24962841796875,0.09724866035282612,0.01722746752426028,-0.0042112792857922614
1772644034902669300,4.25966943359375,0.1009878468811512,0.008268865847215055,-0.003961715838359668
1772644034912709400,4.26970947265625,0.09140928667485713,0.008042290549725294,-0.0022011450397782027
1772644034922750500,4.27975048828125,0.0881172593921423,0.0010361381147056818,-0.0070572524345945565
1772644034932791600,4.28979150390625,0.09200725256800651,0.01198302753213793,-0.006024922845326364
1772644034942832400,4.299832275390625,0.0858726953357458,-0.0062904784463346,0.004463728810055181
1772644034952872400,4.30987255859375,0.09709551561772822,0.002391644376888871,0.009519295166572555
1772644034962913500,4.31991357421875,0.10353110162317752,-0.0004940305946394801,0.00458358319690451
1772644034972954600,4.32995458984375,0.10068915619552135,0.00692472122926265,0.0015217296745628117
1772644034982995500,4.339995361328125,0.10712474220097064,0.01526584859509021,0.009027319531701505
1772644034993036500,4.35003662109375,0.09799743289351463,0.0013275953419506548,-0.0016176917291712016
1772644035003076600,4.36007666015625,0.08932020544111728,0.0026116803357377648,-0.003069233111198991
1772644035013117400,4.370117431640625,0.1009913540124893,-0.0009848097862675785,0.002064111189264804
1772644035023158500,4.380158447265625,0.09650164137780666,0.00564947712905705,0.0016857154640834778
1772644035033199400,4.390199462890625,0.09141454737186432,-0.002588007199205458,0.0016492924438323824
1772644035043239400,4.400239501953125,0.09695172323286533,0.004241765755601227,-0.00306733341505751
1772644035053280300,4.4102802734375,0.10069090976119041,0.01026033192537725,0.004312237175926566
1772644035063321300,4.4203212890625,0.09037000675499439,0.015867175489105285,0.010665506059629843
1772644035073362400,4.430362548828125,0.09111936381757259,0.003549655305594206,-0.005654774358682334
1772644035083403300,4.4404033203125,0.09186638279259204,0.014378763562254607,-0.0031495957378763705
1772644035093443300,4.450443359375,0.07704816836714744,0.0052343204569071525,0.002236746076121926
1772644035103484400,4.460484375,0.09276070128381252,0.0010362842451781035,0.00954720608680509
1772644035113525500,4.470525390625,0.08827157317101955,-0.00025759149026125666,0.012559950637258588
1772644035123566300,4.48056640625,0.08543079678714274,0.002211100178211927,0.011517693309020251
1772644035133606400,4.4906064453125,0.10084639258384703,0.010792246844992042,0.007493214432755485
1772644035143647500,4.5006474609375,0.08872750024497508,0.009229527572914958,-0.003709796037059277
1772644035153688300,4.510688232421875,0.08633096049726009,0.008242270101234316,0.006205814103875309
1772644035163729400,4.5207294921875,0.08229074519574642,0.000009863806888461112,0.010411348635470495
1772644035173769500,4.53076953125,0.09246727129518985,-0.0036241818465292453,-0.0057450829906389115
1772644035183810600,4.540810546875,0.09590659809410572,0.0034657764144241806,0.0052186570968944575
1772644035193851400,4.550851318359375,0.09111468764245509,0.005671140971593558,-0.0017913403961807488
1772644035203892500,4.560892578125,0.09171499162316321,0.00024345336705446243,-0.005284507141029462
1772644035213933600,4.57093359375,0.09934592489302158,0.00534589107260108,0.007129221692262217
1772644035223973400,4.580973388671875,0.09934767845869064,0.010690613101422787,0.004578011972643434
1772644035234014200,4.59101416015625,0.09605740474164486,0.006010455928556621,0.003640429728431627
1772644035244055300,4.60105517578125,0.09456453583538532,-0.004840206572785973,0.004012258715508505
1772644035254096400,4.611096435546875,0.08334113103151321,-0.0028831907534971834,0.00999368034582585
1772644035264136200,4.62113623046875,0.08797931222617626,0.013433043677359818,0.006288012494612485
1772644035274177300,4.63117724609375,0.10219546910524367,-0.004092274282313883,0.013154966521495953
1772644035284218400,4.64121826171875,0.10159458060264587,-0.005521941759251058,0.0110738219990395
1772644035294259200,4.65125927734375,0.0861824919372797,0.005262158311903476,0.0012967161464970559
1772644035304300300,4.66130029296875,0.10878127723634243,0.004433452402800321,0.009308410628559067
1772644035314340400,4.67134033203125,0.09770517194867133,0.0049546632653102276,0.014582505973428486
1772644035324381400,4.68138134765625,0.08154314169883728,0.005276990554854273,-0.004655287593090906
1772644035334422300,4.69142236328125,0.0885743555098772,-0.0018832929959520697,0.0026012502732686697
1772644035344463400,4.70146337890625,0.08273790444135666,-0.007118636366166174,0.009050462945271284
1772644035354503400,4.71150341796875,0.08947276565432548,0.006154540574364363,0.002480181176867336
1772644035364544500,4.72154443359375,0.10383622204959392,-0.0008157733622938395,-0.00621189678478986
1772644035374585300,4.73158544921875,0.09440729944705963,-0.0030316593134775754,0.0015110073511488734
1772644035384626400,4.74162646484375,0.08692483473718166,-0.0009128405285999178,0.005813992641540244
1772644035394667300,4.751667236328125,0.08513035253584385,-0.00031034459080547095,-0.003984329528966918
1772644035404707300,4.761707275390625,0.08962064969241619,0.00265120862852782,0.0004879022479522973
1772644035414748400,4.77174853515625,0.09081891956627368,0.01637556340266019,0.0022611681313253937
1772644035424789500,4.78178955078125,0.10652852987349033,0.005098126856610178,0.00194013774972409
1772644035434830300,4.791830322265625,0.08333470129072666,0.01062426986694336,-0.006291099500842392
1772644035444870400,4.801870361328125,0.08827332673668861,0.004901544838584959,-0.003228414861438796
1772644035454911500,4.811911376953125,0.09919628728926182,0.011494549895450472,0.0020272680439054965
1772644035464952600,4.82195263671875,0.0869277573466301,0.012034173197485506,0.0023445081663783637
1772644035474993400,4.831993408203125,0.0896200651705265,0.00008497486971318721,-0.003309846067195758
1772644035485034500,4.842034423828125,0.08573007199466227,0.0014142872447147964,0.004913682800950482
1772644035495074300,4.85207421875,0.09500818794965743,0.0008153349708765745,-0.003371567925484851
1772644035505115400,4.862115478515625,0.08603051624596118,-0.00563665418010205,0.0033693759683985263
1772644035515156200,4.87215625,0.08842413338422775,0.007710757040418684,0.0006518241053912788
1772644035525197300,4.882197265625,0.0893237125724554,0.009159092685207725,-0.0032466537710279224
1772644035535237400,4.8922373046875,0.09575929857790469,0.0015783552326261996,-0.00044062904012389477
1772644035545278200,4.9022783203125,0.08753098393678664,0.006777750506624579,0.011803844173485413
1772644035555319300,4.9123193359375,0.1056359649479389,0.009814889712817966,0.003566231981059536
1772644035565360400,4.9223603515625,0.09620704234540461,-0.008531060447357594,-0.006010592925874516
1772644035575400400,4.932400390625,0.09216507347822189,-0.007306267892755567,-0.005665871141431853
1772644035585441300,4.942441162109375,0.0879728824853897,0.007267579850181937,0.00335286322501488
1772644035595482400,4.952482421875,0.09455518348515034,0.017815715740993616,0.011403108752332627
1772644035605523500,4.9625234375,0.10188625702559947,0.004943484284169972,-0.0019842234866227952
1772644035615564300,4.972564208984375,0.10308160429000854,0.020116649627126754,0.008630977157875894
1772644035625604400,4.982604248046875,0.09185761496424674,-0.0019502207523211836,0.0106292748356238
1772644035635645400,4.9926455078125,0.0848228940218687,0.0068018620345741505,0.01043552409550175
1772644035645686300,5.002686279296875,0.08586801916062832,0.0025219927582889796,-0.0030112558462657034
1772644035655727400,5.012727294921875,0.08811375226080417,0.01134169742129743,-0.009180875258753076
1772644035665767400,5.022767333984375,0.09110416624844074,0.007174019815213978,-0.003848592586396262
1772644035675808500,5.03280859375,0.09499474394619464,0.0052304114667698735,0.006637054261146113
1772644035685849300,5.042849365234375,0.08107844679653645,-0.004354359284602105,0.015925463281292466
1772644035695890400,5.052890380859375,0.08841478103399276,0.005863046814501285,-0.0035942250996828075
1772644035705930500,5.062930419921875,0.0848234785437584,0.003208988641761243,0.0005076663943473249
1772644035715971600,5.0729716796875,0.10083587118983268,0.007361322548240423,0.006492074566194787
1772644035726012400,5.083012451171875,0.10038812742233276,0.010773578677140176,0.005310673628747463
1772644035736053500,5.093053466796875,0.09963877035975456,0.008835377156175673,0.0065602535647340116
1772644035746094600,5.103094482421875,0.08587035724818706,0.012796974263526498,0.0037013661354314536
1772644035756134100,5.113134033203125,0.09125731098353862,0.0068140639290213585,0.004564695833344012
1772644035766175200,5.12317529296875,0.08572130416631699,0.007138510110415518,0.0007449822815600782
1772644035776216300,5.13321630859375,0.09200491448044776,0.02002535461448133,0.003484983438393101
1772644035786257200,5.143257080078125,0.09005962563157081,0.01256097355056554,0.000568411005102098
1772644035796297200,5.153297119140625,0.10307809715867042,0.00003540010694414377,-0.006082297322060912
1772644035806338300,5.16333837890625,0.09440086970627308,-0.00554524956960231,-0.0014755433121230452
1772644035816379400,5.17337939453125,0.09739420630335807,0.004222293870151043,0.005245755166374147
1772644035826420200,5.183420166015625,0.0964952116370201,0.006991137528978288,0.008156345383450388
1772644035836461300,5.19346142578125,0.09888824425339698,0.002994322977773845,0.004417880374332889
1772644035846501400,5.20350146484375,0.09634382046759128,0.0036249124988913532,0.013967817274341359
1772644035856542500,5.21354248046875,0.086465400531888,0.016083886979706585,0.005636334519693627
1772644035866583300,5.223583251953125,0.08960895925462245,-0.002504932025633752,0.005343662582896649
1772644035876624400,5.233624267578125,0.09095569768846035,0.005574694859795272,0.0008606628167908638
1772644035886664400,5.24366455078125,0.0905091229647398,-0.004083287258259952,0.0005747220148798078
1772644035896705300,5.253705322265625,0.08677169000208378,-0.00718929044958204,-0.000010064736288040876
1772644035906746400,5.263746337890625,0.10547580595016479,0.01555317763648927,0.005843821524223312
1772644035916787500,5.273787353515625,0.09470306752324104,0.014348843348026274,-0.0007920362936798483
1772644035926828300,5.283828369140625,0.0927571941524744,-0.0029869068562984463,0.007579431411484256
1772644035936868400,5.293868408203125,0.10457739580571651,-0.0028452333632856606,0.013502145124506204
1772644035946909400,5.303909423828125,0.0899117415934801,-0.0020666136736050248,-0.001287610391434282
1772644035956950500,5.313950439453125,0.08946165973842143,0.00963595294933766,0.004120422664564103
1772644035974521300,5.331521240234375,0.09095511316657066,0.008235365436412394,0.005306581975519657
1772644035984562400,5.3415625,0.09484802895188331,0.010744900571927427,-0.007337183620827272
1772644035994603500,5.351603515625,0.0909574512541294,0.0031049072127789256,-0.0119708530371543
1772644036004643300,5.361643310546875,0.08571779703497887,0.008841295440308749,0.0062059876338113095
1772644036014684400,5.371684326171875,0.07958031719326973,-0.0038119960362091657,0.0021564017157535997
1772644036024725500,5.3817255859375,0.0833195037215948,0.0011939590249210594,0.0038060320863034574
1772644036034766300,5.391766357421875,0.09618716860115528,0.010056881775148213,-0.003533498755237087
1772644036044805600,5.4018056640625,0.09513795180916786,0.012622823273018002,-0.0007814053018111735
1772644036054846500,5.411846435546875,0.10261866295337677,-0.006109386258386075,-0.0010705061751883477
1772644036064887600,5.421887451171875,0.08271627713143825,0.006009981004521251,0.008578845111839473
1772644036074928600,5.4319287109375,0.09124445150196552,0.015444493097625672,-0.005439725102204829
1772644036084968400,5.441968505859375,0.09199088595509529,-0.0030525925036519763,0.001008373324945569
1772644036095009500,5.452009521484375,0.08106617183685302,0.009119454794563352,0.0045501649844925844
1772644036105050600,5.462050537109375,0.09752280111908912,0.012229878432676195,0.008135165598103776
1772644036115091500,5.472091552734375,0.08869418249726295,0.005477079704217612,-0.010089450604189186
1772644036125132500,5.482132568359375,0.09123802176117897,-0.0038005978593602776,-0.00048622174751944836
1772644036135172600,5.492172607421875,0.08195522963106631,-0.003521817450597882,-0.0019147932459134607
1772644036145213700,5.502213623046875,0.08150573229789733,-0.001108691894263029,-0.0035699948407243937
1772644036155254500,5.512254638671875,0.10051321510672569,0.01169409105554223,0.0003998038393910974
1772644036165295600,5.522295654296875,0.08958791646659374,-0.0011343743247911333,0.007286083621252328
1772644036175335700,5.532335693359375,0.08270400217175483,0.000577909485809505,0.003912561200698837
1772644036185376800,5.542376708984375,0.08345102114677429,0.005092135507240891,0.003769143275171518
1772644036195417600,5.55241748046875,0.08913549652397632,-0.0005360431054607034,0.0006158942754846066
1772644036205458700,5.562458740234375,0.08300269285738468,0.010809745969064533,0.008140956018073483
1772644036215499500,5.57249951171875,0.08449731532931327,0.00861285697929561,0.01280859163608402
1772644036225539600,5.58253955078125,0.0874888983607292,0.008917758210003375,0.0019420922447927296
1772644036235580700,5.59258056640625,0.09751344876885414,-0.003494637182727456,-0.012661127723101526
1772644036245621800,5.602621826171875,0.09661445410251616,0.0034185397392138836,0.011337697099614888
1772644036255662600,5.61266259765625,0.09780980136692523,0.00033825551103800535,0.0007000654275994747
1772644036265702700,5.62270263671875,0.09780746327936649,0.007713314323686063,-0.0022481990518979727
1772644036275743700,5.63274365234375,0.10648235264420508,0.010835866791009903,0.004953384623676538
1772644036285784800,5.642784912109375,0.09226444219946861,0.013007913600467144,0.009717630750266834
1772644036295825700,5.65282568359375,0.08897124587297439,0.0046596623741090295,0.0028498912720941005
1772644036305865500,5.662865478515625,0.0973497826397419,0.004991195883415639,-0.005669597468478605
1772644036315906600,5.672906494140625,0.09645020345151424,0.00862688550464809,0.0013964410607703029
1772644036325947600,5.68294775390625,0.10168576601743698,0.007771693447418511,0.007857883026683703
1772644036335988500,5.692988525390625,0.08283318150937556,0.007388795077055693,0.010941391258407384
1772644036346029600,5.703029541015625,0.08433014206886291,0.004514043358340859,0.0012343001684639603
1772644036356070400,5.7130703125,0.08627601543962955,0.006137151048146188,0.00020271036471240222
1772644036366110500,5.7231103515625,0.09211071294248104,0.003911072496511042,0.0024620518651325253
1772644036376151600,5.733151611328125,0.08522621412575244,-0.0040998730668798085,-0.0029937475890386847
1772644036386192600,5.743192626953125,0.09121347184181212,0.012461239503137767,0.006721015350706875
1772644036396233500,5.7532333984375,0.1133615907639265,0.001923807669430971,0.002253432349441573
1772644036406273500,5.7632734375,0.09076514355242252,-0.0008924918603152037,0.00019805245590396225
1772644036416314600,5.773314697265625,0.08582827167212963,0.014180610641650855,-0.008320714765461161
1772644036426355700,5.783355712890625,0.09480886598527431,0.0067744260383769865,0.007234335167706012
1772644036436396500,5.793396484375,0.09406184701025486,-0.0010557926632463932,0.0157690671431832
1772644036446436600,5.8034365234375,0.08627952257096767,0.005119279242493212,0.011579753094026818
1772644036456477700,5.813477783203125,0.09241466432511806,0.007502959508635104,-0.006963774598017334
1772644036466518500,5.8235185546875,0.0940600934445858,0.01261558981463313,-0.003655956091126427
1772644036476559600,5.8335595703125,0.09151742322444915,0.017506503661349416,0.015968087713466958
1772644036486600700,5.8436005859375,0.09241466432511806,-0.0003158975487574935,0.00615670513198711
1772644036496640800,5.853640869140625,0.09076923520565032,0.007888926618918777,-0.007915257503418252
1772644036506681600,5.863681640625,0.08957330341935157,-0.006631546968966722,-0.0061773460612166665
1772644036516722700,5.87372265625,0.08493395318090916,0.0008635214941576123,0.006540690347738564
1772644036526763800,5.883763671875,0.08762976813614368,0.011284487341344357,0.006941581032518297
1772644036536803800,5.893803955078125,0.10169687193334102,0.007207593291252851,-0.016670600826479493
1772644036546844700,5.9038447265625,0.09810615396499633,0.020644107567332683,0.011332518600998445
1772644036556885800,5.9138857421875,0.08449263915419578,-0.00039188539441674944,0.0006237761878408491
1772644036566926600,5.923926513671875,0.08374912731051444,0.016700447975471613,0.00250839349119924
1772644036576966400,5.93396630859375,0.08824234707653522,0.013596673273853957,-0.012343841934856027
1772644036587007500,5.944007568359375,0.0871978064596653,0.005890775071643293,-0.0031176662296522406
1772644036597048600,5.954048583984375,0.08270634025931357,0.005648819541931152,-0.00038115393784828483
1772644036607089400,5.96408935546875,0.09961480496227741,0.005514890963956714,0.012206817217497154
1772644036617130500,5.974130615234375,0.10335632957816124,0.004158361788466573,-0.002023916176194325
1772644036627170600,5.984170654296875,0.08570084590017794,0.00650616702362895,-0.0053496813317295165
1772644036637211600,5.994211669921875,0.08360475040376186,0.0194060902049765,0.003202303172647953
1772644036647252500,6.00425244140625,0.09452712643444537,-0.00004997662156820297,-0.0017830018260981888
1772644036657293600,6.01429345703125,0.0946744259506464,-0.0022665932251140475,0.00460066219586879
1772644036667333600,6.024333740234375,0.09228139333426952,0.01160356322787702,-0.004942826697044074
1772644036677374700,6.034374755859375,0.0915367124468088,-0.0044928909724578255,0.00501233000298962
1772644036687415600,6.04441552734375,0.08016600812673569,0.01162489827685058,0.01051450761584565
1772644036697456600,6.05445654296875,0.08989362141489982,0.01368668964486569,0.0030322438353672623
1772644036707497500,6.06449755859375,0.08839782989919186,0.004686002391763032,-0.013133850668231025
1772644036717537500,6.07453759765625,0.08630231892466544,0.010537029974907635,-0.0004124532584100961
1772644036727578600,6.08457861328125,0.09856851077973842,0.017268785915337502,0.0064213930833153425
1772644036737619700,6.09461962890625,0.10275602559745312,0.0013482362711802125,0.006081374873453751
1772644036747660500,6.10466064453125,0.0987134722083807,0.005188252825476229,0.008271423130482436
1772644036757700600,6.11470068359375,0.09781330849826335,-0.00011613719295710325,0.0034862164142541586
1772644036767741700,6.12474169921875,0.09347498703300952,0.0054344096062704916,0.002178303020307794
1772644036777782800,6.13478271484375,0.09616787937879562,0.008148271674849092,-0.010132696090871468
1772644036787823600,6.14482373046875,0.10948504159152507,0.006533895280770957,-0.0003976392817683518
1772644036797863700,6.15486376953125,0.09287585209608078,0.010094583437032997,0.003808762899506837
1772644036807904800,6.16490478515625,0.08195113797783851,0.006567359158955514,0.006111843076953664
1772644036817945600,6.174945556640625,0.10948328802585601,0.0031604733249172567,0.020359107480337844
1772644036827986700,6.184986572265625,0.09212298790216446,0.005599829301051795,0.002142966845445335
1772644036838027800,6.19502783203125,0.09571838204562663,0.0012888342341408133,0.0055708863343577825
1772644036848067600,6.205067626953125,0.09242635476291179,0.008931786735355853,-0.0035756847959943112
1772644036858108400,6.2151083984375,0.10484569135308265,0.008785948523879051,0.0006755155082326382
1772644036868149500,6.2251494140625,0.09317512730360031,0.011297456420771778,-0.00025366423381492496
1772644036878190600,6.235190673828125,0.09347381798923016,-0.003801803435757756,-0.0101001637944486
1772644036888230700,6.245230712890625,0.09182780434787273,-0.0021876462373882533,0.007143725141650065
1772644036898271500,6.255271484375,0.08299860120415688,0.003053286623395979,-0.004045521664293483
1772644036908312600,6.2653125,0.07686229040622711,0.0038428660985082384,-0.002983299260260537
1772644036918353700,6.275353759765625,0.09272095379531382,0.009168408502824604,-0.005513365727150813
1772644036928394500,6.28539453125,0.0903261676132679,-0.009827091607265174,-0.004909719011886045
1772644036938434600,6.2954345703125,0.08479016079604625,-0.005483874771185219,0.00462810732522048
1772644036948475600,6.3054755859375,0.09332125777602195,-0.004783690612576902,0.0005715893428772687
1772644036958516500,6.3155166015625,0.08882920705378056,-0.0005080956526100635,0.0001302570498548448
1772644036968557600,6.3255576171875,0.0921206498146057,0.013310842069797216,0.010986518174922093
1772644036978597600,6.33559765625,0.08808277260065078,0.00713251876104623,0.009422255399730056
1772644036988638700,6.345638671875,0.09586158990859985,0.007925349639169871,0.002903840815881267
1772644036998679600,6.355679443359375,0.09271861570775508,0.01169354306627065,0.004808258798252791
1772644037008720600,6.365720703125,0.1036409917384386,-0.005619228121265769,-0.004620335010718554
1772644037018760700,6.3757607421875,0.07835457479059696,-0.0026763796024024487,-0.006631857496220618
1772644037028801800,6.3858017578125,0.0798515353500843,0.009441562888398767,0.012642541753640397
1772644037038843000,6.3958427734375,0.08583587045669555,0.008455401395261287,0.005717491730814799
1772644037048884000,6.405884033203125,0.0918202055633068,0.0037172669574618337,0.001168605387955904
1772644037058924800,6.4159248046875,0.10304302584528922,0.007593706532008945,0.0005926595303695648
1772644037068964900,6.42596484375,0.0867354496449232,0.013942417971603572,0.006288743146974593
1772644037079006000,6.436005859375,0.09227321002781391,0.007793065029010176,0.0066994793723337345
1772644037089047000,6.446047119140625,0.08808335712254046,0.007639956826530397,-0.004686760443588719
1772644037099088000,6.456087890625,0.09600947394669056,0.0016490823812782764,0.01775140006681904
1772644037109127700,6.466127685546875,0.09151800774633884,0.0027930282520130276,-0.0021637173725292083
1772644037119169000,6.4761689453125,0.09376257180273533,0.008326185525022447,-0.0014343436520546675
1772644037129210000,6.486210205078125,0.09346505016088485,0.004993570503592491,-0.0009998612249270081
1772644037139251000,6.4962509765625,0.09151683870255947,0.015221059605292976,0.005794639487098902
1772644037149290800,6.506290771484375,0.09107143302261829,0.005419248569756746,0.013069343197811395
1772644037159331800,6.516331787109375,0.07969839061498642,0.00604055880587548,0.004676439978973939
1772644037169372700,6.52637255859375,0.08059621623754501,0.012451996750757097,0.003371001669904217
1772644037179413800,6.536413818359375,0.09017126931250095,0.0009841887317597867,0.004883013668050989
1772644037189454800,6.546454833984375,0.09840016847550868,0.006998261389508843,0.010437387259025125
1772644037199495000,6.556494873046875,0.0906178440362215,0.006097951548919081,-0.0011380732523743062
1772644037209535700,6.56653564453125,0.0958545756459236,0.004329224843345582,0.004533661374263465
1772644037219576800,6.576576904296875,0.09435644604265689,0.013234671561047434,0.010008786583412439
1772644037229618000,6.586617919921875,0.09599953707456588,0.01634403575323522,0.019960427018953487
1772644037239658000,6.596657958984375,0.08701952728331089,-0.0021676263626664877,-0.008858639300754293
1772644037249698800,6.60669873046875,0.07235504211485386,0.01340962626915425,-0.0029263357754796744
1772644037259740000,6.616739990234375,0.08836743476092815,0.013284209791198372,-0.002896516025951132
1772644037269781000,6.626781005859375,0.09659516488015651,0.005403320348262786,0.011801451286999508
1772644037279821800,6.63682177734375,0.09285422478616237,0.008425736909359693,-0.0014477693892084062
1772644037289862000,6.64686181640625,0.09809212543964385,0.006472703145444392,0.007510083369165659
1772644037299903000,6.656903076171875,0.08761807769834995,0.009175641961209475,0.0046286735808011145
1772644037309943800,6.66694384765625,0.0985392846852541,-0.005403356880880892,-0.004244286506250501
1772644037319985000,6.67698486328125,0.09988134694397449,0.010605638231709598,-0.012641518840333446
1772644037330025000,6.68702490234375,0.087463179397583,-0.0025904914172366258,0.003763681648764759
1772644037340066000,6.697066162109375,0.09763795193135738,-0.0013809694970026612,-0.003521917915297672
1772644037350107000,6.70710693359375,0.08790975412130356,-0.0002916033577173948,-0.007269881405122578
1772644037360148000,6.71714794921875,0.08731003466248512,0.009032872489653527,0.00333821364515461
1772644037370187800,6.727187744140625,0.09658639705181121,0.008620236568152905,-0.006238300734525546
1772644037380229000,6.73722900390625,0.10556874493062496,0.000878938258998096,0.00152323664505966
1772644037390270000,6.74727001953125,0.10302607471048832,0.0031848040485754608,0.0019346213243901728
1772644037400311000,6.75731103515625,0.09105565093159675,0.005675634483620524,-0.006968834365624934
1772644037410351900,6.767351806640625,0.09135375709533691,0.005089285963028669,0.0007277571521233767
1772644037420391700,6.7773916015625,0.09868483063578605,0.011393573739007115,-0.003133256524428725
1772644037430432800,6.787432861328125,0.09254910435974598,0.005869622685760259,-0.0032767749146558342
1772644037440473900,6.797473876953125,0.09584288520812988,0.0075083663361147045,0.0033485615092329678
1772644037450514700,6.8075146484375,0.09943477222025394,0.012713789492100476,-0.0024459409805480388
1772644037460554800,6.8175546875,0.09299918621480464,0.0041909123511984945,-0.008357156052021308
1772644037470595800,6.827595947265625,0.10122866989970207,0.007350253164954483,0.01077872977629304
1772644037480637000,6.837636962890625,0.09823650234639644,0.005391922171413898,0.018722016930952667
1772644037490677800,6.847677734375,0.08626432500183581,0.008414740591309965,0.0040457499931566415
1772644037500717800,6.8577177734375,0.09135317257344722,0.008387560323439538,0.011075283303763717
1772644037510759000,6.867759033203125,0.09629179801940918,0.00850632786490023,0.0022777174073271454
1772644037520800000,6.877800048828125,0.09284311887025833,0.008980009791254996,0.007026848163176328
1772644037530840800,6.8878408203125,0.08550853819847107,-0.0010965630650520324,0.00010040076770819723
1772644037540882000,6.8978818359375,0.09358663071393966,0.0073361150417476885,-0.006736057656211778
1772644037550922000,6.907921875,0.09867255567610263,0.0067430445194244385,0.0036880225966684516
1772644037560962800,6.917962890625,0.08939268615543841,0.004567709774337709,0.005483536844467744
1772644037571004000,6.92800390625,0.08655132524967193,0.012903101519122719,-0.0013900935183744877
1772644037581045000,6.938044921875,0.10316402187645435,0.012502082970179617,0.0029492051944136617
1772644037591085000,6.9480849609375,0.09493629175722598,0.006452829401195049,-0.0016893139269668607
1772644037601126000,6.9581259765625,0.09523673600852489,0.012848887113854289,0.003534859595261514
1772644037611167000,6.9681669921875,0.09314239407777786,0.016424736306630074,0.0011502751468215138
1772644037621208000,6.9782080078125,0.11319441750347614,0.011310498565435409,-0.00005161145622842013
1772644037631249000,6.988248779296875,0.09763152219057082,0.006268814603798091,0.0010815390258561818
1772644037641289000,6.9982890625,0.09239245249330998,-0.002482464465498924,0.0017724712989293037
1772644037651330000,7.008330078125,0.09882745397686958,0.011293620495870708,0.003826344221970066
1772644037661371000,7.018370849609375,0.09014847295880317,0.0029191023170948025,-0.010120886922068893
1772644037671412000,7.028411865234375,0.0876069717824459,0.018544979863613843,-0.002603862355463207
1772644037681451800,7.03845166015625,0.07668459575176238,0.017741335330531,-0.0016742990209255367
1772644037691492900,7.048492919921875,0.09538929622173309,0.0014530483525246381,-0.003831440522195771
1772644037701533700,7.05853369140625,0.09853285494446754,0.0032001477481797334,0.004608544108225032
1772644037711574800,7.06857470703125,0.09778583596944808,0.002699943141080439,0.011511775024887174
1772644037721614800,7.07861474609375,0.1073620580881834,0.011677359116449952,0.007957242614775895
1772644037731656000,7.088656005859375,0.08536708390116692,0.004541260158829391,-0.0004663114706519991
1772644037741696800,7.09869677734375,0.09060323098897934,0.014731559055298566,-0.003863479628274217
1772644037751737900,7.10873779296875,0.0961380687624216,0.000401164679415524,-0.007990880022896453
1772644037761779000,7.118779052734375,0.0944914705991745,0.007865216949768364,0.00464839206142351
1772644037771818800,7.12881884765625,0.08192249640524386,0.00006988689843565225,-0.0028079061607364565
1772644037781859800,7.13885986328125,0.08222352517843246,0.0012287746099755167,0.0049385432475712145
1772644037791901000,7.14890087890625,0.09883388371765613,0.011192680872045457,0.004099909599497914
1772644037801941800,7.158941650390625,0.10242635525166988,0.01562547568771988,0.0094033132372424
1772644037811981800,7.16898193359375,0.10062719687521457,0.013309161569364368,0.010671963199879973
1772644037822023000,7.17902294921875,0.09119885879456996,0.00541340335085988,-0.002022080412134528
1772644037832064000,7.18906396484375,0.0871580589711666,0.0025764994245022536,0.0023349092209711667
1772644037842104800,7.199104736328125,0.08282032202780246,0.0073037836747244,0.004001746454648673
1772644037852146000,7.20914599609375,0.08267243798971176,0.004983998957648873,-0.0034600225270725784
1772644037862186000,7.21918603515625,0.09359656758606433,0.004379128399677574,0.002501141766505316
1772644037872227000,7.22922705078125,0.07623685198426246,-0.0012485387563705443,-0.011093695743288844
1772644037882268000,7.239267822265625,0.10257599285542965,0.008411817981861532,-0.0002302011598367244
1772644037892309000,7.24930908203125,0.09734101481139659,0.005514379507303237,-0.0013270656189881265
1772644037902349000,7.25934912109375,0.09389759635925292,0.0015070435620844363,0.003199745889380574
1772644037912390000,7.269389892578125,0.08237608539164065,0.008658120893128216,-0.0011173501247540116
1772644037922431000,7.279430908203125,0.0900081877052784,0.003531681257486343,0.007153296687593683
1772644037932472000,7.28947216796875,0.09045768503844738,0.00727989134248346,-0.0029003793503157792
1772644037942511900,7.299511962890625,0.0775906046807766,0.006202727097645401,-0.0001407601775601506
1772644037952552700,7.309552734375,0.08447451897561549,0.014596315303072333,-0.0012540734480135142
1772644037962593800,7.31959375,0.1054226144582033,0.010311002666689455,0.001837024435121566
1772644037972635000,7.329634765625,0.09734335289895533,0.014167093572951853,0.004069742790097371
1772644037982675700,7.33967578125,0.0835766933530569,0.004008687652088701,0.003577383562736213
1772644037992715800,7.3497158203125,0.09719371529519558,0.010433350404724479,-0.006854825197672471
1772644038002756900,7.3597568359375,0.09779635736346244,0.011209449343755841,0.008254663791926577
1772644038012798000,7.3697978515625,0.09270809431374072,0.0034179186847060916,0.0016974333013407884
1772644038022838800,7.3798388671875,0.08687339681088924,-0.004411240570992231,-0.0017048037570435552
1772644038032878800,7.38987890625,0.08463175536394119,-0.008991517565958201,-0.010851712814113125
1772644038042920000,7.399919921875,0.08119301308691501,-0.010744790974073111,0.00415115572954528
1772644038052960800,7.409960693359375,0.0927139395326376,0.0007874240506440401,-0.005656610122742131
1772644038063001900,7.420001953125,0.08912205252051353,0.005000109842233359,0.00064160410547629
1772644038073043000,7.43004296875,0.08553484168350696,0.0077445131795480845,0.00818571760840714
1772644038083082800,7.440082763671875,0.09062544282078742,0.01826331337802112,0.002064184254501015
1772644038093123800,7.450123779296875,0.0948135421603918,0.0064601724574342365,0.0011088654241990297
1772644038103165000,7.4601650390625,0.09391688558161258,0.00926262612491846,0.0012835826702881604
1772644038113206000,7.4702060546875,0.09242050954401493,0.005681589300371707,-0.0005619812643155455
1772644038123245800,7.480245849609375,0.09227145646214485,0.003137750036455691,0.007475651376601308
1772644038133286700,7.49028662109375,0.09122399323582649,0.0037404651699587703,0.003913374051451683
1772644038143327700,7.50032763671875,0.10139759672582149,0.00003353694342076778,-0.0009833576146978885
1772644038153368800,7.510368896484375,0.09272036927342414,0.009690751876495778,0.00008749562036246061
1772644038163408600,7.52040869140625,0.09212474146783352,0.009910130248218775,0.005905287654185667
1772644038173449700,7.53044970703125,0.08898293631076812,0.001650835946947336,0.007557594039011746
1772644038183490800,7.54049072265625,0.09107610919773577,-0.0045572979781776666,0.0010623228687327354
1772644038193531600,7.55053173828125,0.08464110771417617,0.003267002439312637,0.0011720759866759181
1772644038203572700,7.56057275390625,0.0981079075306654,0.009576587444916367,0.003387359149660915
1772644038213612800,7.57061279296875,0.09960486809015273,0.0010592632619664073,-0.0036920503178145734
1772644038223654000,7.58065380859375,0.09631342532932757,0.014052125423774122,-0.002938756865635514
1772644038233694700,7.59069482421875,0.09182254365086555,0.0003369768694043159,-0.0002496639121323824
1772644038243735800,7.60073583984375,0.09332067325413226,-0.0034150691404938698,0.010006220166990532
1772644038253776000,7.61077587890625,0.10304711749851703,0.016761347849853336,0.000471252507250756
1772644038263817000,7.62081689453125,0.09137479988336562,0.01708615935742855,-0.007024619673471897
1772644038273857800,7.63085791015625,0.08389233517348765,0.004219188597612083,-0.013267824911978095
1772644038283899000,7.64089892578125,0.09765841019749641,0.006319266149401664,0.011141991864424198
1772644038293939700,7.650939697265625,0.09541384614109992,0.008760741017386317,0.00832387483692728
1772644038303979800,7.660979736328125,0.08000058843195437,-0.0026897505406290293,-0.0005914082881994545
1772644038314020900,7.671020751953125,0.09466682716608046,-0.00037288843300193545,0.005436099239857867
1772644038324062000,7.68106201171875,0.10274842681288719,0.002728730844147503,0.0016855328009929508
1772644038334102800,7.691102783203125,0.09077975659966468,0.010729155013523995,0.001407519577210769
1772644038344142800,7.701142822265625,0.09063479517102241,0.009725275200605392,0.006852770237904041
1772644038354184000,7.711183837890625,0.0960246715158224,0.0006486366344615816,0.007918207512330263
1772644038364225000,7.72122509765625,0.09258592923879623,-0.0018204934254288673,-0.00020524024851620195
1772644038374265900,7.731265869140625,0.08615268132090569,0.003975589100085199,0.0036607601304072886
1772644038384305700,7.7413056640625,0.08914718696177006,0.008439400108531118,-0.005058096240321174
1772644038394346800,7.7513466796875,0.08510814070403576,0.0000323313670232892,0.010600980322901158
1772644038404387800,7.761387939453125,0.08316402089893818,0.0036040523739531635,-0.0018386410034727304
1772644038414428700,7.7714287109375,0.09393851289153099,0.012109722651727496,0.005939189923787489
1772644038424469800,7.7814697265625,0.10381693282723427,0.005176197061501443,0.006330445130541921
1772644038434509800,7.791509765625,0.10127660069465637,0.014383695465698837,-0.0027257351694628595
1772644038444550700,7.801550537109375,0.11354688420295715,0.015296170668117701,0.0017157818087842314
1772644038454591700,7.811591796875,0.09304653248786926,0.012741700412333011,0.00009805354699492454
1772644038464632800,7.8216328125,0.0951408744186163,0.0010993030114099384,0.005162762191193178
1772644038474673000,7.8316728515625,0.09574117839932442,0.0019753186609596015,0.0026934768676757813
1772644038484713700,7.841713623046875,0.09155074097216129,0.010519603916071355,-0.0025319113641045984
1772644038494754800,7.8517548828125,0.0800298145264387,0.013934125067293643,0.006117268170742317
1772644038504796000,7.8617958984375,0.09334639221727847,0.003944792103022337,0.006563934226008132
1772644038514835700,7.871835693359375,0.10382102448046207,-0.00325885566547513,0.00451479227701202
1772644038524876800,7.881876708984375,0.0951449660718441,0.008338935408741236,0.0058403874581214035
1772644038534918000,7.89191796875,0.10741641862392425,0.006651603376306593,0.0029848701628390696
1772644038544958700,7.901958740234375,0.08721709568202494,-0.0015966946069151163,0.004245282020093873
1772644038554999800,7.911999755859375,0.09484919799566269,0.0113887514334172,0.000518900174414739
1772644038565039900,7.922039794921875,0.09724164609014987,-0.0018713102972134946,-0.0024575766194146124
1772644038575081000,7.9320810546875,0.09649462711513042,0.0025905279498547313,0.00919714140696451
1772644038585121800,7.942121826171875,0.09485036703944205,0.02003331872522831,-0.0008228972228243946
1772644038595163000,7.952162841796875,0.09604922143518924,0.010127499325945973,0.005573525816015899
1772644038605203000,7.962202880859375,0.0830278272986412,0.007620704136788845,0.009721841134503483
1772644038615244000,7.972244140625,0.09350304408371447,0.000265701731480658,0.0028648879118263718
1772644038625284900,7.982284912109375,0.09335691361129284,-0.0028253596190363165,-0.004042114997655153
1772644038635326000,7.992325927734375,0.090064886328578,0.00601396305989474,-0.006170642325794324
1772644038645366800,8.00236669921875,0.08452712594568729,0.01814458236917853,0.01332946457187645
1772644038655406600,8.012406494140626,0.09769523507654666,0.004974573542177677,0.0031716431729029862
1772644038665447700,8.02244775390625,0.08961889612674713,0.005336977113783359,0.00786685178442858
1772644038675488800,8.03248876953125,0.09081482791304588,0.015254340820387005,0.004268060107482597
1772644038685529600,8.042529541015625,0.10442892724573612,0.00904295549225062,0.0073028246934991325
1772644038695569700,8.052569580078124,0.09230945038497447,-0.006242511118762195,0.0003816836608108133
1772644038705610800,8.06261083984375,0.09156126236617565,0.0025961905056610703,0.014579035374708473
1772644038715651800,8.07265185546875,0.09305471579432487,0.005635375538468361,0.010769614888075738
1772644038725692700,8.082692626953126,0.07973696905970573,0.003408748997561633,-0.004514436083985492
1772644038735733800,8.092733642578125,0.08273089017868042,0.00412533630169928,0.00861639151009731
1772644038745773800,8.10277392578125,0.10053776502609252,0.007752659953385591,0.0050899800827726716
1772644038755815000,8.11281494140625,0.099192195636034,0.002357194118015468,-0.00648402825705707
1772644038765855700,8.122855712890624,0.09500234273076057,0.00042070963010191917,-0.0006856989755295216
1772644038775896800,8.132896728515625,0.08662146787643432,0.010620726202987135,0.010874207773711531
1772644038785937000,8.14293701171875,0.0991881039828062,0.006360767203569412,0.006114875284256413
1772644038795977700,8.152977783203125,0.09589256956875324,0.008230725793913006,-0.0038303628099616615
1772644038806018800,8.163018798828125,0.10217793344855308,0.007907631319388746,-0.0020171211092267186
1772644038816060000,8.173059814453126,0.09739069917201995,0.0034011867456138134,-0.004757898584194481
1772644038826100000,8.183099853515625,0.09006137919723987,0.006641885699890554,-0.0013826499974355102
1772644038836140800,8.193140869140626,0.09290215558111667,0.011011004162207245,-0.002182056746818125
1772644038846182000,8.203181884765625,0.09664251115322113,0.0049161578858271235,0.004781726984353736
1772644038856223000,8.213222900390624,0.09604162265062331,-0.0005341068767011166,-0.0016674582881852982
1772644038866263800,8.223263916015625,0.10352525640428066,0.0030088629597797988,0.004600452133314684
1772644038876304000,8.233303955078124,0.08886135575771331,0.008659034208580852,0.001926547615788877
1772644038886345000,8.243344970703125,0.08601590319871902,0.007378200617805123,-0.005520151660963893
1772644038896385800,8.2533857421875,0.09319675461351871,0.007421016846224665,0.0028764961512293664
1772644038906427000,8.263427001953126,0.10157821398973464,-0.0008593567756935953,-0.007448471108730882
1772644038916466700,8.273466796875,0.08242693879604339,-0.001987009098753333,0.002751609396236017
1772644038926507800,8.2835078125,0.09259995776414871,0.012418971263989805,0.0007099475007969886
1772644038936548600,8.293548583984375,0.0964870283305645,0.015653350075334308,0.006031507849739864
1772644038946589700,8.303589599609374,0.09753332251310348,0.006994279334135353,-0.0009829648890532553
1772644038956630800,8.313630859375,0.09648761285245418,0.00020903964079916476,-0.008019247600855305
1772644038966670800,8.3236708984375,0.09962766444385052,0.0020326018061488866,0.0029937384558841582
1772644038976711700,8.333711669921875,0.09169920953214168,0.006604037907533347,0.0029821850154083222
1772644038986752800,8.343752685546875,0.09484335277676582,0.009847440275549887,-0.0031413210998754945
1772644038996793900,8.3537939453125,0.0873632261544466,0.001719626866839826,0.0001060267908964306
1772644039006833700,8.363833740234375,0.08661562265753746,0.0058925651699304575,0.0035503768248017877
1772644039016874800,8.373874755859376,0.08960779021084309,0.012653802933171391,0.0030694979726802554
1772644039026915800,8.383915771484375,0.09289923297166824,0.01041669153086841,-0.008434851797576992
1772644039036957400,8.39395751953125,0.09095160603523254,0.004034041289053857,-0.0010253975249826907
1772644039046997500,8.40399755859375,0.09259878872036933,0.00938515652604401,0.011839865334937348
1772644039057038600,8.41403857421875,0.10711422080695629,0.0059377194859087466,0.003891116553870961
1772644039067079400,8.424079345703126,0.08077741802334786,0.003097016167268157,0.01018051728797145
1772644039077120500,8.43412060546875,0.09065233082771301,-0.004175605184212327,-0.007947771533532069
1772644039087161600,8.44416162109375,0.0949918213367462,0.007354344818182289,-0.0015630023998674004
1772644039097201700,8.45420166015625,0.09992869321703911,0.004099836534261703,0.005174379563750699
1772644039107242500,8.464242431640624,0.09020341801643371,0.001654014284722507,0.004912303694617003
1772644039117283600,8.47428369140625,0.09275076441168785,-0.0002552534027025103,0.008371887830272316
1772644039127324700,8.48432470703125,0.08287702065110206,-0.0006310644451528787,-0.0013558989878278225
1772644039137364500,8.494364501953125,0.08721651116013526,-0.0004824497547000646,0.00747154145706445
1772644039147405300,8.5044052734375,0.09844050048589706,0.013709887857362628,-0.014394436055421829
1772644039157446400,8.5144462890625,0.09859072261154651,0.011036576994881033,-0.0038530312994960693
1772644039167487700,8.52448779296875,0.09425064758062363,0.017634988879226147,0.0054132115546148265
1772644039177527600,8.534527587890626,0.07794073329269885,0.010882811205275357,-0.0014846673334948718
1772644039187568400,8.544568359375,0.08317688038051128,0.006468538426980376,0.00533694971431978
1772644039197609500,8.554609375,0.10023615173101424,-0.0008307882683351635,0.0011757018490228801
1772644039207650300,8.564650390625,0.08961363542973995,0.0040535497071221465,0.008483668508520349
1772644039217691400,8.57469140625,0.10203004941046237,0.0044662586938589805,0.002640778566058725
1772644039227731500,8.5847314453125,0.09843816239833832,0.007036985964700579,-0.004113088741479441
1772644039237772500,8.5947724609375,0.09394903428554534,0.011222016564384102,0.0014300054036546497
1772644039247813400,8.6048134765625,0.09499591298997402,0.0033359760222956537,0.0078298442422878
1772644039257854500,8.6148544921875,0.10083119501471519,-0.000538673453964293,-0.005949793516192585
1772644039267894500,8.62489453125,0.10053250432908535,0.000226904091052711,0.0056509293006267395
1772644039277935600,8.634935546875,0.09274784180223941,0.004975450325012207,0.007745371696073562
1772644039287976400,8.6449765625,0.0908007993876934,0.014500124919600784,0.0010497282486408948
1772644039298017500,8.655017578125,0.08750760306119919,0.01203088526185602,-0.0004978665195405483
1772644039308058600,8.66505859375,0.09738368490934371,0.0000668912237510085,0.00019229856855235993
1772644039318098400,8.675098388671875,0.09693301853239536,0.0052064460692927235,0.003051459992490709
1772644039328139500,8.685139404296875,0.10351356596648692,-0.005339534397050738,0.005970187850249931
1772644039338180600,8.6951806640625,0.0877986949622631,0.004772438566200435,0.008396675211656839
1772644039348221400,8.705221435546875,0.09288637349009514,0.009111965607851743,-0.001021808195253834
1772644039358261500,8.715261474609376,0.0999199253886938,0.00893668210618198,0.0033116178991738706
1772644039368302600,8.725302490234375,0.09603227030038833,0.004533844037353992,0.009712406585877761
1772644039378343700,8.73534375,0.08705576764047146,0.009420337437279522,-0.002908964515570551
1772644039388384500,8.745384521484375,0.09543313536345958,0.008631707810238004,-0.00654866359164007
1772644039398425600,8.755425537109375,0.10770341887176037,0.004637194813974201,-0.008144152622157707
1772644039408465400,8.76546533203125,0.09019581923186779,0.0073503627628088,0.011242209969041869
1772644039418506500,8.775506591796875,0.0878033711373806,0.012544753068126737,0.001331997522432357
1772644039428547600,8.785547607421876,0.09259411254525184,0.0024522154577076433,-0.001372347799129784
1772644039438588700,8.795588623046875,0.0806231042444706,0.012613069063983857,-0.004482040784880519
1772644039448628500,8.80562841796875,0.09363982220590114,0.011168313615769147,0.005258833843655884
1772644039458669300,8.81566943359375,0.09752923085987568,0.005016439922526478,0.0002958868071902543
1772644039468710400,8.82571044921875,0.099475688752532,0.018281579687073824,-0.005954076965665444
1772644039478751500,8.83575146484375,0.09678454997241497,0.004269895871542394,-0.00832019417565316
1772644039488791600,8.84579150390625,0.08256722404956818,0.009741970607079565,-0.003868986920453608
1772644039498832400,8.855832275390625,0.09528758941292763,-0.008100194749422371,-0.0041689014487899835
1772644039508873500,8.86587353515625,0.10606208140552044,0.00011511427965015172,0.0019271960697602479
1772644039518914600,8.87591455078125,0.09214344616830349,0.010837510758824645,0.0017412450436037033
1772644039528955400,8.885955322265625,0.08017243786752223,-0.004098082968592644,-0.003419745315611362
1772644039538995500,8.895995361328126,0.07942132723927497,0.011555120976269245,-0.01404121130411513
1772644039549036500,8.90603662109375,0.1026169093877077,0.0026863164745271205,-0.0007718885547947138
1772644039559077400,8.916077392578124,0.09722995565235615,-0.0007832227995619177,0.002442315118201077
1772644039569118500,8.926118408203125,0.09887538477182388,0.014043795986846089,-0.005019873988628387
1772644039579158500,8.936158447265624,0.10037000724375247,0.012137852767668664,0.00009667444066144526
1772644039589199600,8.94619970703125,0.09603051673471927,0.0058395198084414,0.00327029950809665
1772644039599240400,8.956240478515625,0.09752864633798598,0.010715199553407728,-0.004504069953598082
1772644039609281500,8.966281494140626,0.09214227712452411,0.008742986164987086,-0.007618932304810732
1772644039619322600,8.976322509765625,0.08720715880990028,0.007879391605593264,-0.0032189255138859152
1772644039629362700,8.98636279296875,0.090495678961277,0.013385368610732256,-0.005609099452896043
1772644039639403500,8.996403564453125,0.09109364485442638,-0.0017110417015850543,-0.0035482761992607264
1772644039649444600,9.006444580078124,0.10306523767709731,0.008316833174787461,-0.002362345217168331
1772644039659485700,9.016485595703125,0.08989771306812763,0.004537351168692112,-0.004288655370939523
1772644039669525500,9.026525390625,0.09274491919279097,0.006369498499296605,0.00781945071243681
1772644039679566600,9.036566650390625,0.09843348622322082,0.00870641701426357,0.0058274823107756675
1772644039689607700,9.046607666015625,0.09304594796597956,0.004546155529655516,-0.0013782386837992817
1772644039699648500,9.0566484375,0.09080255295336245,0.009302264015562832,-0.0036616917121689765
1772644039709688300,9.066688232421875,0.09304653248786926,-0.004443023948743939,0.0077001625811681145
1772644039719729400,9.0767294921875,0.08481587975919246,-0.0018763883311301468,0.004132953352574259
1772644039729770500,9.0867705078125,0.07703472436368465,0.005002155668847263,-0.0048467641777358945
1772644039739811300,9.096811279296874,0.10097732548713684,0.009349354560300708,0.004806907091382891
1772644039749852400,9.106852294921875,0.09768120655119418,0.007396028535440564,0.008975160086201504
1772644039759892500,9.116892578125,0.09184709357023238,0.00991192034650594,-0.0003706325438339263
1772644039769933600,9.12693359375,0.09589081600308418,0.0081759999319911,0.005882162506924942
1772644039779974400,9.136974365234375,0.09199848473966121,0.015543167699128389,0.0038101237395312634
1772644039790015500,9.147015380859376,0.09933072732388973,0.0006127616034820676,0.00017459851508028803
1772644039800055600,9.1570556640625,0.09499065229296684,0.013809658437408506,0.00131395954224281
1772644039810096400,9.167096435546876,0.09020224897265433,0.01160666850041598,-0.008514109312556684
1772644039820137500,9.177137451171875,0.10292261433601378,0.01145746928807348,0.004575472955685109
1772644039830178600,9.187178466796874,0.09663783497810363,0.014033384190686046,0.0014973258856683968
1772644039840219400,9.197219482421875,0.09963117157518864,0.00383234470449388,0.009478661762084811
1772644039850259500,9.207259521484374,0.09394844976365566,0.007014774132892489,0.007526340384222566
1772644039860300500,9.217300537109375,0.10158230564296244,0.014914295211061834,-0.009343911200203002
1772644039870341600,9.227341552734375,0.10472644888758659,0.007691358220204711,-0.0036814010596368458
1772644039880382500,9.237382568359376,0.084078213134408,-0.0005856909334659576,0.012600721039064228
1772644039890422500,9.247422607421875,0.0822831464111805,0.004780585340037942,-0.0008945833527017384
1772644039900463600,9.257463623046876,0.08991524872481822,0.0022422625014558435,-0.021895139674888923
1772644039910504700,9.267504638671875,0.08183715620934963,-0.00018814298324286937,-0.006989338297536596
1772644039920545500,9.277545654296874,0.09006780893802642,0.001599507618509233,0.0006058021397329867
1772644039930586600,9.287586669921875,0.08168985669314861,-0.0035225115703418847,-0.0019928543176501987
1772644039940626700,9.297626708984374,0.09096797264814377,0.016329422705993055,0.001649566438468173
1772644039950667500,9.30766748046875,0.0990484032511711,0.015592669396661221,0.008207354051480069
1772644039960708600,9.31770849609375,0.09201485135257244,0.0015415303535759447,-0.000315833616675809
1772644039978279700,9.33527978515625,0.08677811974287032,-0.006804565448313951,0.00034468525182455775
1772644039988320500,9.345320556640624,0.08154080361127852,0.0011079977745190263,0.010681653476832434
1772644039998361600,9.355361572265625,0.09710019179284572,0.007927651194110511,-0.00007692856057547033
1772644040008401400,9.3654013671875,0.10129062922000884,0.028304961051419376,0.0007470098418649285
1772644040018442500,9.3754423828125,0.10637889226973056,0.006428316014446318,-0.0018063187696039675
1772644040028483300,9.3854833984375,0.10174304916262626,-0.0008384966507554054,-0.007041726071899756
1772644040038524400,9.3955244140625,0.09605857378542422,0.011221285912021994,-0.0026983996379654853
1772644040048564700,9.405564697265625,0.09276479293704032,0.007688581741228699,-0.0007589834074489772
1772644040058605600,9.41560546875,0.08573007199466227,0.010139116698503493,-0.0027126838916447012
1772644040068646700,9.425646728515625,0.08976911825239658,-0.00044299452714622017,0.01944745426182635
1772644040078687700,9.435687744140624,0.09036825318932533,0.00894702083710581,0.0052437550055328755
1772644040088727800,9.445727783203125,0.09156710758507251,-0.004401559427194297,-0.0031827034230343994
1772644040098768600,9.4557685546875,0.09919745633304118,0.0005975640343502163,-0.005620817290153354
1772644040108809700,9.465809814453126,0.08812018200159072,-0.000035290509089827534,0.005172543799690902
1772644040118850800,9.475850830078125,0.08737316302657126,0.015048589115217326,-0.0009619312341790646
1772644040128891600,9.4858916015625,0.08901859214603901,0.00040675416998565197,0.006048869976494461
1772644040138931700,9.495931640625,0.1011398225724697,0.0020525851482525465,0.0016734222380910067
1772644040148972800,9.505972900390624,0.1003904655098915,0.013065927398018538,-0.0041539961406029755
1772644040159013600,9.516013671875,0.09784370363652706,0.007396284263767302,-0.0007417217453941702
1772644040169054700,9.5260546875,0.09604220717251301,0.007621507854387164,0.005455881652561947
1772644040179094500,9.536094482421875,0.0931973391354084,0.007926482150331138,0.0008796323787420988
1772644040189135600,9.546135498046874,0.09080372199714183,-0.00021974369790405033,0.004011719859391451
1772644040199176700,9.5561767578125,0.10203063393235207,0.0010972937174141407,0.010987988612800837
1772644040209217800,9.5662177734375,0.09245967251062392,0.012846110634878278,-0.007794215806480496
1772644040219259000,9.5762587890625,0.09470657465457916,0.0164660912303254,0.001462729496322572
1772644040229298700,9.586298583984375,0.09096621908247471,0.006849865894764662,-0.00909000950437039
1772644040239339500,9.596339599609376,0.10592822589278221,0.005848433767259121,-0.0020455434861127286
