time,seconds_elapsed,z,y,x
1772644030705624300,0.062624267578125,0.0008661436731927097,0.0005637292633764446,0.0006234390893951058
1772644030715665400,0.07266552734375,0.0006096812430769205,0.00021592038683593273,-0.0016106865368783474
1772644030725705200,0.082705322265625,-0.0003112426493316889,-0.0005705145886167884,0.00014393101446330547
1772644030735746000,0.09274609375,0.0001276463153772056,-0.0008432223694398999,-0.00017724628560245037
1772644030745787100,0.102787109375,0.0011142579605802894,-0.0006848422344774008,-0.0001440115738660097
1772644030755828200,0.112828125,0.0010785716585814953,0.0007798962760716677,0.00020725931972265244
1772644030765869000,0.122869140625,0.0010310123907402158,-0.00009419233538210392,0.0003203554078936577
1772644030775909000,0.1329091796875,0.0005750792333856225,0.0004778546281158924,-0.0001763240434229374
1772644030785950200,0.1429501953125,-0.0005876758368685842,-0.0006819841219112277,-0.0005244931671768427
1772644030795991300,0.1529912109375,-0.0003096418222412467,0.00013427477097138762,0.0014153532683849335
1772644030806032100,0.1630322265625,0.0009326692670583725,-0.0014151830691844225,-0.0008472525514662266
1772644030816073200,0.1730732421875,0.0010879315668717027,-0.0008420707890763879,0.0009048409992828965
1772644030826113300,0.18311328125,0.0005180371226742864,0.0002506402670405805,0.0012998183956369758
1772644030836154000,0.193154052734375,0.0012679832288995385,-0.00014590437058359385,0.00010512443259358406
1772644030846195200,0.2031953125,-0.0009454934624955058,-0.0017103762365877628,-0.0007736210245639086
1772644030856236300,0.213236328125,-0.000222977832891047,-0.000049096415750682354,-0.0009938646107912064
1772644030866276400,0.2232763671875,0.0011853032046929002,0.000039042322896420956,-0.0005049759056419134
1772644030876317200,0.233317138671875,0.0003325589932501316,0.0004180101095698774,-0.00041709141805768013
1772644030886358300,0.243358154296875,0.0010160523233935237,0.0005229350063018501,-0.0009359298273921013
1772644030896399400,0.2533994140625,0.0006240350194275379,-0.0004973219474777579,0.0004108306020498276
1772644030906440200,0.263440185546875,-0.0008206595666706562,-0.0007109241560101509,-0.0002760249190032482
1772644030916480300,0.273480224609375,0.00030133017571642995,0.00007470836862921715,-0.0016086704563349485
1772644030926521300,0.283521240234375,0.00046767410822212696,-0.0014127119211480021,0.0012061677407473326
1772644030936562200,0.293562255859375,-0.0016018684254959226,-0.0001570314634591341,-0.000050844158977270126
1772644030946603300,0.303603271484375,-0.0005272492999210954,-0.0005881830584257841,0.00006820657290518284
1772644030956643300,0.313643310546875,0.0008067280286923051,0.0001047714613378048,0.0016799516743049026
1772644030966684400,0.323684326171875,-0.0008550845086574554,-0.000349563779309392,0.0007547695422545075
1772644030976725200,0.333725341796875,-0.00018364854622632265,0.0011259900638833642,-0.0006764424033463001
1772644030986766300,0.343766357421875,0.0012747301952913404,0.00038145750295370817,-0.0000065944623202085495
1772644030996807400,0.353807373046875,0.00040760496631264687,-0.00009018834680318832,-0.00017144414596259594
1772644031006847200,0.36384716796875,0.0006865508621558547,0.0006374868098646402,0.00008682603947818279
1772644031016888000,0.37388818359375,-0.0009371783817186952,-0.0008629381190985441,-0.0006460756994783878
1772644031026929200,0.38392919921875,-0.0009184145601466298,0.001433026627637446,0.0009654788300395012
1772644031036969700,0.3939697265625,-0.0006827248726040125,-0.0008050939068198204,0.00013377354480326176
1772644031047009800,0.404009765625,0.0008332773577421904,-0.0001771465176716447,-0.001246134052053094
1772644031057050600,0.414050537109375,0.0008870732272043824,-0.00043520680628716946,0.0002787918783724308
1772644031067091700,0.424091796875,-0.00020354834850877523,-0.0005745991365984082,0.0009923061588779092
1772644031077132800,0.4341328125,-0.00237162783741951,-0.0015517128631472588,-0.0005174397956579924
1772644031087173600,0.444173583984375,-0.0000230701407417655,0.0002948907786048949,0.0015559173189103603
1772644031097213700,0.454213623046875,-0.0008699554018676281,0.0006187311373651028,-0.0007802075706422329
1772644031107254800,0.4642548828125,-0.0011891198810189962,0.00004587392322719097,0.0003231929149478674
1772644031117295600,0.474295654296875,-0.0003757905215024948,-0.0009868998313322663,-0.00013407180085778236
1772644031127336700,0.484336669921875,-0.002431184984743595,0.00022970372810959816,0.00021095736883580685
1772644031137376500,0.49437646484375,-0.001172841526567936,0.0006126662483438849,-0.00043512554839253426
1772644031147417600,0.50441748046875,0.00024963589385151863,0.0002339270431548357,-0.000020165927708148956
1772644031157458400,0.51445849609375,-0.0005660903407260776,0.00006481632590293884,0.00027464586310088634
1772644031167499500,0.52449951171875,0.00033322611125186086,0.0007229660404846072,-0.0004606551956385374
1772644031177540600,0.53454052734375,-0.0007291088113561273,0.0013615920906886458,0.0013423049822449684
1772644031187580700,0.54458056640625,-0.0006335413781926036,-0.0003277254290878773,0.00008330750279128551
1772644031197621500,0.55462158203125,-0.0009866764303296804,0.0008262222399935126,-0.0012400171253830194
1772644031207662600,0.56466259765625,-0.0003906222991645336,0.0003475014236755669,0.0003455113619565964
1772644031217703700,0.57470361328125,0.00016198359662666917,0.0005714732687920332,-0.0004100273363292217
1772644031227743700,0.58474365234375,0.0000036634737625718117,0.0006257252534851432,-0.00023128394968807697
1772644031237784600,0.59478466796875,-0.0018632123246788979,0.00032745121279731393,0.0002526124007999897
1772644031247825700,0.60482568359375,-0.001602422446012497,0.002552132587879896,0.000542852096259594
1772644031257866500,0.614866455078125,-0.0006751096807420254,0.000617079611402005,0.0008618987631052732
1772644031267907600,0.624907470703125,0.0005961030256003141,0.001319770235568285,0.0004873602883890271
1772644031277947600,0.63494775390625,0.0006560240872204304,-0.00006214401219040155,-0.0010929594282060862
1772644031287988700,0.64498876953125,0.0005433975020423532,-0.000022773980163037777,0.0006745705613866448
1772644031298029600,0.655029541015625,-0.000533851096406579,-0.0009783162968233228,0.0014772473368793726
1772644031308070700,0.665070556640625,0.0012366651790216565,0.0008423439576290548,-0.00010148133151233196
1772644031318110700,0.67511083984375,-0.0006198243936523795,0.0003067823126912117,0.0016663249116390944
1772644031328151800,0.68515185546875,0.00015186320524662733,-0.00028262368869036436,-0.0007098356727510691
1772644031338192600,0.695192626953125,0.0008176534320227802,-0.0019569529686123133,0.0008286724332720041
1772644031348233700,0.705233642578125,0.0009961382020264864,-0.0007984299445524812,-0.0004090946167707443
1772644031358274800,0.71527490234375,0.0008459359523840249,0.0003113092388957739,-0.0011417302303016186
1772644031368314600,0.725314697265625,-0.0001405335497111082,0.00003560760524123907,-0.00047586020082235336
1772644031378355700,0.735355712890625,0.0008075517835095525,0.0010654520010575652,-0.00047346344217658043
1772644031388396800,0.745396728515625,-0.0003333422355353832,0.0007438805187121034,-0.0009416460525244474
1772644031398437600,0.755437744140625,-0.00021057052072137594,-0.0008010192541405559,-0.0006223330274224281
1772644031408477400,0.7654775390625,-0.00015909213107079268,0.001843995414674282,-0.0002769399434328079
1772644031418518500,0.7755185546875,-0.00043899030424654484,0.0005960381822660565,-0.0010015859734266996
1772644031428559600,0.7855595703125,-0.0007994873449206352,0.0011490603210404515,-0.0007011035922914743
1772644031438600400,0.795600341796875,0.0008833641186356544,-0.0005926470039412379,0.00035590515471994877
1772644031448641500,0.8056416015625,0.00018287048442289233,-0.0006320956163108349,-0.00047191185876727104
1772644031458681600,0.815681640625,0.00022574735339730978,0.0014062878908589482,-0.000015978701412677765
1772644031468722700,0.82572265625,-0.0013668127357959747,0.00015264551620930433,0.00031807017512619495
1772644031478763500,0.835763427734375,0.0005200369632802904,-0.0012172844726592302,0.0013910578563809395
1772644031488804600,0.8458046875,-0.00016693060752004385,0.000659806071780622,0.000006491085514426231
1772644031498844700,0.8558447265625,0.00031403632601723075,-0.00017402967205271125,0.0009854689706116915
1772644031508885500,0.865885498046875,-0.0013928457628935575,0.00037977256579324603,0.0006035212427377701
1772644031518926600,0.875926513671875,0.001072442508302629,-0.0004101209924556315,0.0008056551450863481
1772644031528967700,0.8859677734375,0.0002560700522735715,0.0006382132414728403,-0.0005040632095187902
1772644031539008500,0.896008544921875,-0.00007362931501120329,-0.0011421098606660962,-0.0004883504007011652
1772644031549048600,0.906048583984375,-0.0004391635302454233,-0.00033660593908280134,0.00045805296394973993
1772644031559089700,0.916089599609375,0.0008450127206742764,0.000448227598099038,-0.0020463839173316956
1772644031569130800,0.926130859375,0.00012781209079548717,-0.0004792814143002033,0.00046863488387316465
1772644031579171600,0.936171630859375,-0.00020428409334272146,-0.00007288309279829264,-0.00017079012468457222
1772644031589211600,0.946211669921875,0.0012703253887593746,0.0005124106537550688,0.00013271369971334934
1772644031599252700,0.956252685546875,-0.0007345023332163692,0.000935586984269321,-0.0008089800830930471
1772644031609293800,0.9662939453125,-0.0013527668779715896,-0.00011292204726487398,-0.0010335270781069994
1772644031619334700,0.976334716796875,-0.00013516959734261036,-0.0008988208137452602,-0.000032178591936826706
1772644031629375700,0.986375732421875,-0.000614286633208394,0.0007775182602927089,0.00006566941738128662
1772644031639415800,0.996415771484375,0.0006168927648104727,-0.0008257046574726701,-0.0014038628432899714
1772644031649456600,1.00645654296875,0.00045191857498139143,-0.0007827841909602284,0.0006580025656148791
1772644031659497700,1.016497802734375,-0.0015798071399331093,-0.0002048781607300043,-0.00020619318820536137
1772644031669538800,1.026538818359375,-0.0011631827801465988,0.0001489573041908443,-0.0007053632289171219
1772644031679578600,1.03657861328125,0.0005910413456149399,0.000957493030000478,0.000660305842757225
1772644031689619500,1.046619384765625,0.00010219734394922853,-0.0001913110027089715,-0.0006835800595581532
1772644031699660500,1.05666064453125,0.001498492667451501,-0.0017537877429276705,-0.0008777244947850704
1772644031709701600,1.06670166015625,-0.0010840627364814281,0.0003193561569787562,0.00024182163178920746
1772644031719742500,1.076742431640625,0.0012376811355352402,-0.0019176991190761328,-0.00009133969433605671
1772644031729782500,1.086782470703125,0.0003680016961880028,-0.0010555662447586656,0.0016144084511324763
1772644031739823600,1.09682373046875,0.0014556366950273514,0.00011222984176129103,0.00002929498441517353
1772644031749864700,1.10686474609375,-0.0010213371133431792,-0.0009695703047327697,0.0001341216266155243
1772644031759905500,1.116905517578125,0.0007464691298082471,0.0006682737730443478,-0.00023206300102174282
1772644031769945600,1.126945556640625,-0.0021780808456242085,-0.0006547840894199908,0.001023555058054626
1772644031779986700,1.136986572265625,-0.000044089858420193195,-0.00043347541941329837,0.0012219605268910527
1772644031790027500,1.147027587890625,-0.0008465403225272894,-0.0002043719869107008,0.002112245187163353
1772644031800068600,1.157068603515625,-0.0004308209754526615,0.00031201489036902785,-0.0004683579318225384
1772644031810109700,1.167109619140625,-0.00018234492745250463,-0.0017756898887455463,-0.0030226658564060926
1772644031820149800,1.177149658203125,0.00012125540524721146,0.0006456561968661845,-0.00016189808957278728
1772644031830190600,1.187190673828125,0.00015113892732188106,-0.0007841828046366572,-0.0007439972832798958
1772644031840231700,1.197231689453125,0.00025074119912460446,0.00026084156706929207,-0.00015730294398963451
1772644031850272800,1.207272705078125,0.001091864425688982,-0.0008078351966105402,-0.0002563297748565674
1772644031860312600,1.2173125,0.0012425993336364627,0.0002832618774846196,0.0008414252661168575
1772644031870353700,1.227353759765625,0.00037844956386834383,-0.0008548310725018382,-0.00020404928363859653
1772644031880394800,1.237394775390625,0.00032598525285720825,-0.00045642221812158823,0.00030381535179913044
1772644031890435600,1.247435546875,0.0013673891080543399,-0.00001742551103234291,-0.0016714255325496197
1772644031900476700,1.2574765625,0.00020198983838781714,-0.0005489924224093556,0.001114507089368999
1772644031910516700,1.267516845703125,-0.0002306387759745121,-0.0003429973730817437,-0.0003240706864744425
1772644031920557800,1.277557861328125,0.0005597874987870455,-0.0010335550177842379,0.0000932465773075819
1772644031930598700,1.2875986328125,0.0006747953593730927,0.00033602758776396513,-0.0011530173942446709
1772644031940639700,1.2976396484375,-0.0005332145374268293,0.0010622716508805752,-0.000737031688913703
1772644031950679600,1.307679443359375,0.0010853036073967814,-0.0012459666468203068,-0.000873335637152195
1772644031960720600,1.317720703125,-0.0005863626720383763,-0.000193485408090055,0.000936016091145575
1772644031970761500,1.327761474609375,-0.00023566652089357376,-0.000048434187192469835,-0.000036961864680051804
1772644031980802600,1.337802490234375,-0.0014042615657672286,0.0001483734231442213,0.00027063325978815556
1772644031990843600,1.34784375,-0.00012256333138793707,0.0002644775668159127,0.0016299415146932006
1772644032000883500,1.357883544921875,0.00008436432108283043,-0.0007416647276841104,-0.00039645773358643055
1772644032010924500,1.367924560546875,-0.0006038644351065159,0.00011881545651704073,-0.0017000350635498762
1772644032020965600,1.377965576171875,-0.00036844098940491676,-0.001103841932490468,0.00036205060314387083
1772644032031007500,1.388007568359375,0.0002843907568603754,-0.001381575595587492,-0.0002445802092552185
1772644032041047600,1.398047607421875,-0.00028153101447969675,0.0001454810262657702,-0.0001753382384777069
1772644032051088600,1.408088623046875,0.0005136756808497012,-0.0005841925740242004,-0.000033066608011722565
1772644032061129500,1.41812939453125,-0.000349721172824502,0.00011675135465338826,-0.0004738199058920145
1772644032071170600,1.428170654296875,0.0004917072947137058,-0.0005405485280789435,-0.000013360753655433655
1772644032081211600,1.438211669921875,-0.0015565298963338137,-0.0008004730916582048,0.0009717424400150776
1772644032091251700,1.448251708984375,0.0008469928288832307,-0.00045557599514722824,-0.00023381179198622704
1772644032101292500,1.45829248046875,0.002058198442682624,0.00019237102242186666,0.0007813852280378342
1772644032111333600,1.468333740234375,-0.0010953472228720784,-0.00011411780724301934,-0.0002693489659577608
1772644032121374700,1.478374755859375,-0.0001651052152737975,-0.0006073351833038032,-0.0006565726362168789
1772644032131414500,1.48841455078125,-0.0005580228753387928,-0.00042092427611351013,-0.0003557612653821707
1772644032141455600,1.49845556640625,-0.000499167013913393,-0.0006179981864988804,-0.0006700141821056604
1772644032151496700,1.50849658203125,-0.00032752042170614004,0.0010787692153826356,0.00060989276971668
1772644032161537500,1.51853759765625,-0.001958174165338278,0.0003453346434980631,0.0003518324811011553
1772644032171578600,1.52857861328125,-0.0010189086897298694,0.00027426891028881073,-0.0002986961044371128
1772644032181618700,1.53861865234375,-0.00018454028759151697,-0.00034172023879364133,0.0008629747899249196
1772644032191659800,1.54865966796875,0.0002083060098811984,-0.000979595584794879,-0.0008498178794980049
1772644032201700600,1.55870068359375,0.0002780808135867119,-0.000040032260585576296,0.0005648533115163445
1772644032211741700,1.56874169921875,0.0002612293465062976,-0.00024500046856701374,0.0008425182895734906
1772644032221781800,1.57878173828125,0.00044578639790415764,0.000011994561646133661,0.0007538349600508809
1772644032231822800,1.58882275390625,0.0007524400716647506,-0.00044128752779215574,-0.0005168707575649023
1772644032241863700,1.59886376953125,0.00025416258722543716,0.0008777761831879616,-0.0006502952892333269
1772644032251904800,1.60890478515625,0.0009597126627340913,-0.00044254836393520236,-0.0002986281178891659
1772644032261945600,1.618945556640625,0.0008739588083699346,0.000015781610272824764,0.00016662618145346642
1772644032271985400,1.6289853515625,0.0004978001234121621,-0.0005812732269987464,-0.001470908522605896
1772644032282026500,1.639026611328125,0.0027087563648819923,0.0006967777735553682,0.0003672053571790457
1772644032292067600,1.649067626953125,-0.00041022803634405136,-0.0012804634170606732,-0.0010707154870033264
1772644032302108400,1.6591083984375,0.0007921891519799829,0.00020318356109783053,-0.0012057377025485039
1772644032312148500,1.6691484375,0.00037792528746649623,-0.0006006619660183787,-0.000030985334888100624
1772644032322189600,1.679189453125,-0.00009105738718062639,0.0000020114239305257797,0.0005679595051333308
1772644032332230700,1.689230712890625,-0.0013057631440460682,0.00004941149381920695,0.0007689723279327154
1772644032342271500,1.699271484375,0.0010735049145296216,0.00022810959490016103,-0.0009357170201838017
1772644032352312600,1.7093125,0.00047662091674283147,-0.0002535199746489525,0.00044479710049927235
1772644032362352600,1.7193525390625,-0.00009755662176758051,-0.00045112648513168097,-0.0009922445751726627
1772644032372393700,1.729393798828125,0.00048518547555431724,-0.000275197671726346,-0.00007696636021137238
1772644032382434600,1.7394345703125,0.0017861395608633757,0.0010396050056442618,-0.00006125355139374733
1772644032392475600,1.7494755859375,-0.00031073857098817825,0.0016871351981535554,-0.0021092877723276615
1772644032402515700,1.759515625,0.00028101576026529074,-0.0002886640140786767,0.00013282732106745243
1772644032412556500,1.769556640625,-0.0005861099343746901,-0.00008995179086923599,-0.00041424669325351715
1772644032422597600,1.77959765625,0.0007942064548842609,-0.0006066050846129656,0.0014736681478098035
1772644032432638700,1.789638671875,-0.00022796320263296366,0.00039731868309900165,-0.00029071816243231297
1772644032442679600,1.799679443359375,-0.00012063782196491957,0.0002979828277602792,-0.0008505145087838173
1772644032452719600,1.8097197265625,-0.0004322371678426862,-0.0005849851295351982,-0.0008558586705476046
1772644032462760700,1.8197607421875,0.0011227825889363885,0.0005886699073016644,0.002297057770192623
1772644032472801800,1.8298017578125,0.00033737911144271493,0.00005024234997108579,0.00045719381887465715
1772644032482842600,1.839842529296875,0.0008614892140030861,0.001196466851979494,-0.00007117725908756256
1772644032492882700,1.849882568359375,0.001284476718865335,0.0007494809688068926,0.0005201234016567469
1772644032502923800,1.859923828125,0.000154231209307909,0.0006219155620783567,-0.0010580657981336117
1772644032512964600,1.869964599609375,-0.001653722720220685,-0.00046268803998827934,-0.0004220742266625166
1772644032523005700,1.880005615234375,0.0014568493934348226,0.0013607783475890756,0.00047407939564436674
1772644032533045500,1.89004541015625,-0.00018797267694026232,0.0010303596500307322,-0.0011806292459368706
1772644032543086600,1.900086669921875,0.00024319312069565058,0.000967775413300842,-0.0007017927709966898
1772644032553127400,1.91012744140625,0.0008769907290115952,0.0007515586330555379,-0.0010701026767492294
1772644032563168500,1.92016845703125,-0.0003083823248744011,-0.0005880113458260894,-0.0014187104534357786
1772644032573209600,1.930209716796875,-0.0015356530202552676,0.00033427157904952765,0.0007351246895268559
1772644032583249700,1.940249755859375,0.0005645157070830464,0.00004265550523996353,0.00008291658014059067
1772644032593290500,1.95029052734375,0.00035806128289550543,-0.00022660044487565756,-0.0015509547665715218
1772644032603331600,1.96033154296875,0.0011681949254125357,0.00034784339368343353,0.000510331941768527
1772644032613372700,1.97037255859375,0.001256170216947794,0.0007093673339113593,-0.0009439876303076744
1772644032623412700,1.980412841796875,0.00002712139394134283,0.000011352822184562683,-0.0008710171096026897
1772644032633453600,1.99045361328125,-0.000751538434997201,-0.00022184057161211967,0.000210154103115201
1772644032643494700,2.00049462890625,-0.0004705748287960887,-0.0005984115414321423,0.001138532068580389
1772644032653535500,2.010535400390625,0.0012519621523097157,0.0008354026940651238,-0.00007328856736421585
1772644032663576600,2.02057666015625,0.0007840447360649705,-0.0007212149212136865,-0.000050119124352931976
1772644032673616600,2.03061669921875,-0.00021568278316408396,-0.0006476135458797216,-0.0006140775512903929
1772644032683657700,2.04065771484375,-0.0006359296385198832,0.00009434315143153071,-0.0005264594219624996
1772644032693698600,2.050698486328125,0.0008938350947573781,0.0011493995552882552,-0.0003483998589217663
1772644032703739600,2.06073974609375,0.0001747815404087305,0.0004172966000624001,-0.0000740943942219019
1772644032713779700,2.07077978515625,0.0006743529811501503,0.0006937952130101621,-0.0010523353703320026
1772644032723820800,2.08082080078125,0.0014160433784127235,-0.0008071623742580414,0.000024380860850214958
1772644032733861600,2.090861572265625,0.0009091272950172424,-0.0004647135501727462,-0.0013777900021523237
1772644032743902700,2.10090283203125,0.0011333654401823878,0.000556076061911881,0.0005953459767624736
1772644032753943800,2.11094384765625,0.0009639248019084334,0.0002168923383578658,-0.0003374693915247917
1772644032763983600,2.120983642578125,0.0012600683839991689,-0.0002957661636173725,0.0000034151598811149597
1772644032774024700,2.131024658203125,0.00009734800551086664,0.00015235715545713902,0.0001645791344344616
1772644032784065800,2.141065673828125,0.0017751394771039486,-0.00025963387452065945,-0.001297762617468834
1772644032794106600,2.151106689453125,-0.0006309899035841227,0.0013011767296120524,-0.0007866411469876766
1772644032804146400,2.161146484375,0.0012614524457603693,0.0020396714098751545,0.00017049908638000488
1772644032814187500,2.1711875,0.000010857474990189075,-0.0006394707597792149,-0.00008883466944098473
1772644032824228600,2.181228515625,0.00012164493091404438,0.0007781297899782658,-0.00014023366384208202
1772644032834269400,2.19126953125,0.0005224667838774621,0.00033581670140847564,-0.0004585438873618841
1772644032844310500,2.201310546875,0.000005547190085053444,0.0014005484990775585,-0.0012867869809269905
1772644032854350600,2.2113505859375,0.0013074561720713973,-0.00041082524694502354,-0.00032826722599565983
1772644032864391700,2.2213916015625,0.00011143053416162729,-0.0012561125913634896,-0.00011068698950111866
1772644032874432500,2.2314326171875,0.0009818484541028738,-0.0009667464764788747,0.0004554388578981161
1772644032884473600,2.2414736328125,0.0022212835028767586,-0.0006482324097305536,0.00043466617353260517
1772644032894513700,2.251513671875,-0.001488323207013309,-0.0003483014879748225,-0.0016455394215881824
1772644032904554500,2.261554443359375,-0.00016260170377790928,-0.000004487461410462856,-0.0008425961714237928
1772644032914595600,2.271595703125,0.0010446131927892566,-0.0007808066438883543,-0.000384253216907382
1772644032924636700,2.28163671875,0.0010968111455440521,0.00018512184033170342,0.000879949308000505
1772644032934677500,2.291677490234375,-0.0004106634296476841,-0.0016280250856652856,0.00039385922718793154
1772644032944717600,2.301717529296875,-0.0010109399445354939,0.0005512397037819028,-0.0008232053369283676
1772644032954758700,2.311758544921875,-0.0015124790370464325,-0.00043991778511554003,-0.0006046171765774488
1772644032964799700,2.3217998046875,0.0005426822463050485,0.0008671616669744253,-0.0005540172569453716
1772644032974840600,2.331840576171875,-0.0009073169203475118,0.0018154954304918647,-0.0013605712447315454
1772644032984880600,2.341880615234375,0.000621071201749146,-0.0005770884454250336,-0.00008145510219037533
1772644032994921700,2.351921630859375,-0.0008872234029695392,0.0024369237944483757,-0.0000637606717646122
1772644033004962600,2.361962646484375,0.0009133396670222282,-0.0005500777624547482,0.0008174792164936662
1772644033015003600,2.372003662109375,0.0009018259588629007,0.0007822545012459159,0.0009492611279711127
1772644033025044700,2.382044677734375,-0.0009573268471285701,-0.0010249665938317776,0.00047175632789731026
1772644033035084500,2.39208447265625,-0.001310612540692091,0.000014597433619201183,0.00010971189476549625
1772644033045125400,2.40212548828125,-0.000790230929851532,-0.00017848180141299963,-0.0012061560992151499
1772644033055166500,2.41216650390625,0.0010324057657271624,0.0000774332438595593,-0.00042334222234785557
1772644033065207600,2.42220751953125,0.002117377705872059,0.001058009103871882,0.0006491126259788871
1772644033075247600,2.43224755859375,0.001472197356633842,-0.000522240879945457,-0.00020727887749671936
1772644033085288400,2.442288330078125,-0.0005020039388909936,-0.00020852056331932545,0.0006715642521157861
1772644033095329500,2.45232958984375,-0.00005201867315918207,0.0008927636663429439,0.0007962262025102973
1772644033105370600,2.46237060546875,-0.0006664099637418985,0.0007734540267847478,-0.0008227094076573849
1772644033115411500,2.472411376953125,-0.00008044741116464138,0.0010774906259030104,0.00032442878000438213
1772644033125451300,2.482451171875,-0.001028532744385302,0.0019877590239048004,0.0004173730267211795
1772644033135492400,2.492492431640625,0.000508482800796628,-0.00020956259686499834,0.00008900021202862263
1772644033145533400,2.502533447265625,0.00010235077934339643,-0.00010436773300170898,-0.0016604301054030657
1772644033155574300,2.51257421875,0.0008907982846722007,0.000010439776815474033,-0.0005025810096412897
1772644033165614300,2.5226142578125,0.00005190260708332062,0.00008820404764264822,0.0002289894036948681
1772644033175655400,2.532655517578125,0.00008645060006529093,0.0012081194436177611,-0.0022584116086363792
1772644033185696300,2.5426962890625,-0.000335926772095263,-0.001680877641774714,0.0005818497156724334
1772644033195737300,2.5527373046875,-0.0014133326476439834,-0.00012498791329562664,-0.000579724321141839
1772644033205778400,2.5627783203125,0.0005949571495875716,0.0007200331310741603,-0.0008526982273906469
1772644033215818500,2.572818603515625,0.00019484118092805147,-0.00013234000653028488,-0.0005480730906128883
1772644033225859300,2.582859375,0.000324270804412663,0.0005041554686613381,0.0007608705200254917
1772644033235900400,2.592900390625,-0.0002508434699848294,0.0007458676118403673,-0.0008707966189831495
1772644033245941500,2.60294140625,-0.001061509596183896,-0.00014602509327232838,0.00005172239616513252
1772644033255981600,2.612981689453125,0.0014895736239850521,-0.0007826283108443022,-0.0008952824864536524
1772644033266022400,2.6230224609375,-0.00042976648546755314,0.001048028701916337,0.0008943616412580013
1772644033276063500,2.6330634765625,0.0006572459824383259,-0.0001894329907372594,-0.0006628027185797691
1772644033286104300,2.643104248046875,-0.0006564913783222437,0.0008484008722007275,0.00042696285527199507
1772644033296144400,2.653144287109375,0.0006630449206568301,-0.0006755819777026772,0.0008038516389206052
1772644033306185500,2.663185546875,0.0004899394698441029,-0.0003040709998458624,-0.00018524634651839733
1772644033316226600,2.6732265625,0.0012162933126091957,-0.00018323305994272232,-0.00023115682415664196
1772644033326267400,2.683267333984375,0.0009654235909692943,-0.00012704043183475733,-0.00022796099074184895
1772644033336308500,2.69330859375,-0.00011153379455208778,0.0004924131208099425,0.000652786111459136
1772644033346348500,2.7033486328125,-0.00026067078579217196,-0.0002282382920384407,-0.0002881085965782404
1772644033356389600,2.7133896484375,-0.000611780327744782,-0.00028962234500795603,-0.00007735309191048145
1772644033366430500,2.723430419921875,0.00008223950862884521,0.0006075965939089656,0.000911478535272181
1772644033376471600,2.733471435546875,0.00013030320405960083,-0.00045905355364084244,-0.00031987065449357033
1772644033386511400,2.743511474609375,0.0007055460009723902,0.00042058853432536125,-0.0002514272928237915
1772644033396552400,2.753552490234375,-0.0009396545356139541,-0.00025234941858798265,0.0001062068622559309
1772644033406593300,2.76359326171875,0.00041695969412103295,-0.00014289352111518383,0.00041353562846779823
1772644033416634400,2.77363427734375,0.00036848767194896936,-0.0005208859220147133,0.0007559115765616298
1772644033426675200,2.78367529296875,-0.0009076991700567305,0.0010687548201531172,0.0009330117609351873
1772644033436715300,2.79371533203125,0.00007545191328972578,-0.00047769281081855297,-0.00022757635451853275
1772644033446756400,2.80375634765625,0.000882389722391963,-0.0004097821656614542,-0.00006405822932720184
1772644033456797400,2.81379736328125,-0.001206228625960648,0.00015022378647699952,0.0002799700014293194
1772644033466838300,2.82383837890625,-0.00045308656990528107,-0.000613038195297122,0.00042378075886517763
1772644033476878300,2.83387841796875,0.0002395850606262684,0.00035593390930444,-0.00019872048869729042
1772644033486919400,2.84391943359375,-0.0002270007971674204,-0.00044913962483406067,-0.0008205685298889875
1772644033496960500,2.85396044921875,-0.00040206697303801775,0.000028475304134190083,-0.0016631975304335356
1772644033507001300,2.86400146484375,0.000022440915927290916,-0.0012311999453231692,0.0008233960252255201
1772644033517042400,2.87404248046875,-0.0005407989374361932,0.0008777446346357465,-0.0014373003505170345
1772644033527082500,2.88408251953125,0.00020648405188694596,0.0018170415423810482,0.002271417761221528
1772644033537123300,2.894123291015625,0.0003798558027483523,-0.00009457545820623636,-0.000008514383807778358
1772644033547164400,2.904164306640625,0.0004395927535369992,-0.0002452570479363203,-0.0007447041571140289
1772644033557205500,2.91420556640625,0.0004822831251658499,0.000012526055797934532,-0.000024834880605340004
1772644033567245600,2.92424560546875,-0.00013876601587980986,-0.00037602917291224003,0.00036744866520166397
1772644033577286400,2.934286376953125,0.000019225175492465496,-0.0016603524563834071,0.0007543956162407994
1772644033587327500,2.944327392578125,0.0009486683993600309,0.0004536649212241173,-0.0005963596049696207
1772644033597368600,2.95436865234375,-0.00005412357859313488,0.001724589616060257,-0.0009822514839470387
1772644033607409400,2.964409423828125,0.0006167266983538866,0.0007586611318401992,-0.0007004891522228718
1772644033617449500,2.974449462890625,-0.000402771751396358,-0.0002939538098871708,0.0005668923258781433
1772644033627490600,2.984490478515625,-0.00034098641481250525,-0.00026492541655898094,0.0013876785524189472
1772644033637531400,2.994531494140625,0.00021479924907907844,-0.00046216207556426525,-0.0004978980869054794
1772644033647572500,3.004572509765625,0.0010086875408887863,0.0016891395207494497,-0.00033810827881097794
1772644033657612300,3.0146123046875,-0.00015643966617062688,0.00023030408192425966,-0.0000030151568353176117
1772644033667653400,3.0246533203125,-0.000001710082869976759,0.0013163411058485508,0.00014186068437993526
1772644033677694200,3.034694091796875,-0.0008181424345821142,0.0008900091634131968,-0.001272957306355238
1772644033687735300,3.0447353515625,0.0014894866617396474,0.0006588468095287681,0.0005094963125884533
1772644033697776400,3.0547763671875,-0.0009406775352545083,-0.0002816467313095927,0.00017719785682857037
1772644033707816400,3.06481640625,0.0020218228455632925,0.0009884147439152002,-0.0004057681653648615
1772644033717857300,3.074857177734375,-0.00042486621532589197,-0.0006083773914724588,-0.0006562862545251846
1772644033727898400,3.0848984375,-0.0012669578427448869,0.0006150787812657654,0.00021270313300192356
1772644033737939500,3.094939453125,0.0007731918012723327,-0.0006056110141798854,0.00027340836822986603
1772644033747979500,3.1049794921875,-0.0003322863485664129,0.0004577891668304801,-0.0011646987404674292
1772644033758020400,3.115020263671875,-0.0006862625596113503,0.000019614584743976593,0.0006005206378176808
1772644033768061400,3.1250615234375,-0.00016721250722184777,-0.00026454462204128504,0.0007424671202898026
1772644033778102300,3.135102294921875,-0.0004555222694762051,-0.0003918911097571254,-6.05359673500061e-9
1772644033788143400,3.145143310546875,0.0017991098575294018,0.0017173324013128877,0.0005552630173042417
1772644033798183400,3.155183349609375,-0.0003481763997115195,0.0006369218463078141,0.0001837403979152441
1772644033808224500,3.165224609375,-0.0007050400017760694,0.0017498568631708622,-0.00045382045209407806
1772644033818265300,3.175265380859375,0.0015871049836277962,0.0009150519035756588,0.000432519125752151
1772644033828306400,3.185306396484375,-0.0016169440932571888,0.00045672187115997076,0.00014489772729575634
1772644033838346500,3.195346435546875,-0.0008811505977064371,0.0002955158706754446,0.00023561879061162472
1772644033848387600,3.2053876953125,-0.0003607689868658781,0.0011719621252268553,0.00006997003220021725
1772644033858428400,3.215428466796875,-0.000718338938895613,0.0001998688094317913,0.0016393476398661733
1772644033868469500,3.225469482421875,-0.000956159143242985,0.0013125374680384994,0.00011788378469645977
1772644033878509600,3.235509521484375,-0.0004990407032892108,-0.00065767508931458,0.0004305581096559763
1772644033888550400,3.24555029296875,-0.000443114317022264,-0.0002036060905084014,0.0008547996403649449
1772644033898591500,3.255591552734375,-0.0015132083790376782,-0.00030175421852618456,0.0015522297471761703
1772644033908632600,3.265632568359375,0.0005986783653497696,-0.0014402555534616113,0.0008627373026683927
1772644033918673400,3.27567333984375,-0.00029866257682442665,0.0004968069843016565,-0.00031001679599285126
1772644033928713200,3.285713134765625,0.00038363930070772767,0.00012396444799378514,0.0006998538738116622
1772644033938754300,3.29575439453125,-0.0006084764609113336,0.00047846604138612747,-0.00034015486016869545
1772644033948795400,3.30579541015625,0.0002828835276886821,-0.0008848061552271247,-0.0002789020072668791
1772644033958836200,3.315836181640625,0.00033712416188791394,-0.0008382115047425032,-0.00023822812363505363
1772644033968876300,3.325876220703125,0.00033419468672946095,-0.0004216930828988552,-0.0007412992417812347
1772644033978917400,3.33591748046875,0.0012825224548578262,-0.00002029561437666416,-0.00004559056833386421
1772644033988958500,3.34595849609375,-0.0005223017069511116,0.0003826406318694353,0.0002449604216963053
1772644033998999300,3.355999267578125,0.0007221567211672664,-0.0014067769516259432,0.0005583581514656544
1772644034009040400,3.366040283203125,-0.0013330047950148582,0.0010918007465079427,0.0012675579637289047
1772644034019080400,3.37608056640625,0.00008337770123034716,-0.0004571988247334957,0.0002806109841912985
1772644034029121300,3.386121337890625,-0.0004252861253917217,0.0001984714181162417,0.0006036523263901472
1772644034039162400,3.396162353515625,0.0002700810437090695,0.0007508687558583915,0.0004391501424834132
1772644034049203500,3.406203369140625,-0.00018318899674341083,0.00039427151205018163,0.0011062719859182835
1772644034059243500,3.416243408203125,-0.0009712749742902815,-0.0003505735076032579,-0.0011927043087780476
1772644034069284400,3.426284423828125,0.0005344763631001115,0.0005929844337515533,-0.0005708560347557068
1772644034079325400,3.436325439453125,-0.0007649053586646914,0.0003321015974506736,0.0006121342303231359
1772644034089366500,3.446366455078125,-0.0004703596932813525,-0.0010064032394438982,-0.00004380242899060249
1772644034099407400,3.456407470703125,0.0006848339689895511,-0.0014606683980673552,0.00024630571715533733
1772644034109447400,3.466447509765625,0.0007868329994380474,-0.00028355116955935955,-0.0005316038150340319
1772644034119488500,3.476488525390625,0.00039936212124302983,0.00033014960354194045,-0.0006425781175494194
1772644034129529600,3.486529541015625,0.0013122938107699156,0.0007349501247517765,-0.0004132799804210663
1772644034139570400,3.4965703125,0.0007343923207372427,-0.0002608239883556962,0.0007430951809510589
1772644034149610500,3.506610595703125,-0.00018652877770364285,0.0005833980394527316,0.00013722595758736134
1772644034159651600,3.516651611328125,0.00012214627349749207,0.00039510667556896806,-0.000964711420238018
1772644034169692400,3.5266923828125,0.0006023142486810684,-0.000943930703215301,0.0009455739054828882
1772644034179733500,3.5367333984375,0.001988328993320465,0.0008617985877208412,0.0004664744483307004
1772644034189774600,3.546774658203125,-0.001929447171278298,-0.0011073427740484476,-0.0017048008739948273
1772644034199814700,3.556814697265625,-0.0000556273153051734,-0.00014645664487034082,-0.001258396077901125
1772644034209855500,3.56685546875,-0.0008234166889451444,-0.000685480423271656,0.0008260599570348859
1772644034219896600,3.576896484375,0.0006987435044720769,-0.00031631189631298184,-0.00045372452586889267
1772644034229937700,3.586937744140625,-0.00012417318066582084,-0.001896631671115756,-0.000782358692958951
1772644034239977500,3.5969775390625,-0.0003185760579071939,-0.00009953760309144855,0.001228690380230546
1772644034250018600,3.6070185546875,-0.000685027043800801,-0.0006721172831021249,-0.0022587189450860023
1772644034260059600,3.6170595703125,-0.0010300993453711271,0.0009969015372917056,0.00028886389918625355
1772644034270100500,3.6271005859375,-0.0011118585243821144,0.000019255152437835932,0.0001727500930428505
1772644034280141600,3.6371416015625,-0.0002751643187366426,-0.00006698234938085079,0.0018009732011705637
1772644034290181400,3.647181396484375,-0.00014307157834991813,0.00036098767304793,0.000019052065908908844
1772644034300222500,3.657222412109375,-0.0011963775614276528,-0.000792651844676584,0.0008190867956727743
1772644034310263300,3.66726318359375,-0.0000360382255166769,0.0005767456023022532,0.00042893365025520325
1772644034320304400,3.677304443359375,0.000446001417003572,0.0010130738373845816,-0.0008230556268244982
1772644034330344400,3.687344482421875,-0.001615551533177495,-0.00042716367170214653,0.0015085418708622456
1772644034340385500,3.697385498046875,0.00017958373064175248,-0.0002143215388059616,0.0001860358752310276
1772644034350426400,3.70742626953125,0.0006264621624723077,0.00018169049872085452,-0.000020891660824418068
1772644034360467500,3.717467529296875,-0.0004138596705161035,-0.00006732187466695905,-0.00042257062159478664
1772644034370508500,3.727508544921875,0.0004913487355224788,0.000034677155781537294,0.00025653536431491375
1772644034380548400,3.73754833984375,-0.0015887490008026361,-0.000316574121825397,0.0010500652715563774
1772644034390589400,3.74758935546875,0.001552449306473136,-0.0012223151279613376,0.00014405790716409683
1772644034400630500,3.757630615234375,0.0007522034575231373,-0.0010961483931168914,0.00011946400627493858
1772644034410671400,3.76767138671875,0.0011681892210617661,-0.0004181074909865856,0.00020042411051690578
1772644034420711400,3.77771142578125,-0.0013485271483659744,0.000030147610232234,0.0010395561112090945
1772644034430752500,3.78775244140625,-0.00029471440939232707,0.0004711670917458832,0.0005061250412836671
1772644034440793600,3.797793701171875,0.000616642995737493,-0.0010010236874222755,-0.0004623711574822664
1772644034450834400,3.80783447265625,0.00009226659312844276,0.0013321716105565429,-0.00020724022760987282
1772644034460874500,3.81787451171875,-0.0011735891457647085,-0.00026456371415406466,0.00015691202133893967
1772644034470915600,3.82791552734375,0.00017024175031110644,-0.0002581720473244786,0.00031031016260385513
1772644034480956700,3.837956787109375,0.0006162510253489017,0.0005647799698635936,-0.000809880206361413
1772644034490997500,3.84799755859375,-0.00020906253485009074,0.0004878146282862872,-0.0006468947976827621
1772644034501038600,3.85803857421875,0.00054507254390046,-0.0012614123988896608,0.001050613820552826
1772644034511078700,3.86807861328125,-0.0012469685170799494,-0.00008935510413721204,-0.00048629636876285076
1772644034521119500,3.878119384765625,-0.00042706396197900176,-0.001154047902673483,-0.000734835397452116
1772644034531160600,3.88816064453125,-0.0010094973258674145,-0.0006685536354780197,0.0010627983137965202
1772644034541201700,3.89820166015625,-0.0008005753043107688,0.0010410831309854984,-0.0002984022721648216
1772644034551241500,3.908241455078125,0.00142396311275661,0.00010258512338623405,0.0008454255294054747
1772644034561282300,3.9182822265625,-0.00011645467020571232,0.00022042449563741684,0.00157112255692482
1772644034571323400,3.928323486328125,0.0015642662765458226,0.00021163607016205788,-0.0011998966801911592
1772644034581364500,3.938364501953125,0.0005225578788667917,0.0006202952936291695,0.000024472130462527275
1772644034591405300,3.9484052734375,0.0001486500259488821,0.0010357483988627791,-0.00017579738050699234
1772644034601445400,3.9584453125,0.0007362733595073223,0.0005406987038441002,-0.00023174704983830452
1772644034611486500,3.968486572265625,-0.0005194070399738848,0.0006898357532918453,0.0004148684674873948
1772644034621527600,3.978527587890625,0.00023184885503724217,0.0001797873410396278,-0.0017638045828789473
1772644034631568400,3.988568359375,0.000641975668258965,0.0009036345290951431,0.00011851778253912926
1772644034641608400,3.9986083984375,-0.00015917571727186441,-0.0008720826590433717,0.00027426285669207573
1772644034651649500,4.0086494140625,-0.0000939281890168786,-0.00007792795076966286,-0.0007100412622094154
1772644034661690400,4.0186904296875,-0.001178818754851818,-0.0002709203399717808,0.0005822135135531425
1772644034671731500,4.0287314453125,-0.00038466404657810926,0.0015117996372282505,0.00018859817646443844
1772644034681772500,4.0387724609375,0.0010066148824989796,-0.00034703454002738,-0.0021997932344675064
1772644034691812600,4.0488125,-0.00003947480581700802,0.0004673600778914988,0.0004324753535911441
1772644034701853400,4.058853515625,0.00007848866516724229,0.000540764129254967,-0.0001807559747248888
1772644034711894500,4.06889453125,-0.00039848341839388013,-0.00019613257609307766,-0.0004955416079610586
1772644034721935600,4.078935546875,0.0006468401988968253,0.0001879436313174665,-0.00020336220040917397
1772644034731975700,4.0889755859375,-0.00022481248015537858,0.0006840905407443643,0.0001745403278619051
1772644034742016500,4.0990166015625,-0.0006348025053739548,-0.0005981705617159605,0.0006210689898580313
1772644034752057600,4.1090576171875,-0.00033386528957635164,0.00034964847145602107,0.00016486947424709797
1772644034762098400,4.119098388671875,0.000017439539078623056,-0.0009218426421284676,-0.001434763427823782
1772644034772139500,4.129139404296875,-0.00044967891881242394,-0.0005015956703573465,-0.00179136055521667
1772644034782179600,4.1391796875,0.0007994010229595006,0.0012572779087349772,0.00015108403749763966
1772644034792220700,4.149220703125,0.00033973943209275603,0.0013171990867704153,0.0012267348356544971
1772644034802261500,4.159261474609375,0.0003092472325079143,0.0007696994580328465,0.0004471797728911042
1772644034812302600,4.169302490234375,-0.0007964972173795104,0.00003946071956306696,0.0013470619451254606
1772644034822342400,4.17934228515625,0.0004937598132528365,-0.0004103824030607939,0.0018339211819693446
1772644034832383500,4.189383544921875,0.0020466491114348173,-0.0007478048792108893,0.00013269390910863876
1772644034842424300,4.19942431640625,-0.0011671904940158129,-0.001561306999064982,-0.0005452637560665607
1772644034852465400,4.20946533203125,0.00012151309056207538,-0.0002712717978283763,-0.0007407397497445345
1772644034862506500,4.219506591796875,-0.00006911915261298418,-0.0006983749335631728,-0.00009559420868754387
1772644034872546600,4.229546630859375,-0.0007895042654126883,0.00027314620092511177,0.000012530246749520302
1772644034882587400,4.23958740234375,-0.00003885856131091714,0.00016725994646549225,0.00037079432513564825
1772644034892628500,4.24962841796875,-0.00007694179657846689,-0.00030917953699827194,0.001447244081646204
1772644034902669300,4.25966943359375,0.0007589795859530568,-0.0005439420929178596,-0.00006578071042895317
1772644034912709400,4.26970947265625,0.00039758862112648785,0.0008185311453416944,0.0007933549350127578
1772644034922750500,4.27975048828125,0.0006749455351382494,0.00038912176387384534,-0.00010294234380126
1772644034932791600,4.28979150390625,-0.0009354679496027529,-0.00033445912413299084,0.0008704429492354393
1772644034942832400,4.299832275390625,-0.0007641674601472914,0.000020865583792328835,-0.00018796022050082684
1772644034952872400,4.30987255859375,-0.002340226201340556,-0.00046809075865894556,0.00025359191931784153
1772644034962913500,4.31991357421875,-0.0009654012974351645,0.00024973199469968677,-0.00011057872325181961
1772644034972954600,4.32995458984375,0.00004926306428387761,-0.00048689835239201784,-0.0011382924858480692
1772644034982995500,4.339995361328125,0.0003563885693438351,0.0007647611200809479,-0.0005210430826991796
1772644034993036500,4.35003662109375,-0.00015334045747295022,0.0001687456388026476,-0.0000954698771238327
1772644035003076600,4.36007666015625,0.00040418439311906695,-0.000009855488315224648,-0.0008459633681923151
1772644035013117400,4.370117431640625,-0.00017345522064715624,0.0008729823748581111,0.0012209158157929778
1772644035023158500,4.380158447265625,-0.0006444127066060901,-0.00007286726031452417,0.0014832173474133015
1772644035033199400,4.390199462890625,0.00005679763853549957,-0.00048326037358492613,-0.0005687482189387083
1772644035043239400,4.400239501953125,-0.0019628098234534264,-0.0002954155206680298,-0.00016254070214927197
1772644035053280300,4.4102802734375,-0.0008544024312868714,0.0012761158868670464,0.00008060596883296967
1772644035063321300,4.4203212890625,-0.000009368930477648973,0.0005090057384222746,-0.0005506337620317936
1772644035073362400,4.430362548828125,-0.0011204396141692996,0.000197682180441916,-0.0009541027247905731
1772644035083403300,4.4404033203125,-0.000995917827822268,0.00010580522939562798,0.001785522559657693
1772644035093443300,4.450443359375,-0.0006529027596116066,-0.0015253809979185462,0.0008313119178637862
1772644035103484400,4.460484375,0.00084731011884287,0.0015804886352270842,-0.0003755206707865
1772644035113525500,4.470525390625,-0.0013969356659799814,-0.00044271477963775396,-0.00022957962937653065
1772644035123566300,4.48056640625,-0.0005618528230115771,-0.00015002035070210695,-0.0007017338648438454
1772644035133606400,4.4906064453125,-0.0004164442652836442,0.0001250841305591166,-0.0006013326346874237
1772644035143647500,4.5006474609375,-0.0011413448955863714,0.00015356019139289856,0.00017861812375485897
1772644035153688300,4.510688232421875,0.0002405692939646542,0.0000496969441883266,0.0009402821306139231
1772644035163729400,4.5207294921875,0.0010547155980020761,0.00023536145454272628,-0.0009724870324134827
1772644035173769500,4.53076953125,0.0006677582277916372,-0.0015252543380483985,-0.0004137558862566948
1772644035183810600,4.540810546875,-0.0021292574238032103,-0.00030789192533120513,0.0003385883755981922
1772644035193851400,4.550851318359375,0.0004031424759887159,-0.00008684949716553092,-0.00016474910080432892
1772644035203892500,4.560892578125,8.583301678299904e-7,-0.00006080034654587507,-0.0000012558884918689728
1772644035213933600,4.57093359375,0.000023495173081755638,0.0002252231352031231,0.0005798458587378263
1772644035223973400,4.580973388671875,0.0002714325091801584,0.0006658682832494378,-0.0003249580040574074
1772644035234014200,4.59101416015625,0.00010897970059886575,0.000024046457838267088,-0.0010932800360023975
1772644035244055300,4.60105517578125,-0.0009286870481446385,-0.0003400786081328988,-0.0006467041093856096
1772644035254096400,4.611096435546875,0.00119118916336447,0.0006719225784763694,0.0006694301264360547
1772644035264136200,4.62113623046875,0.0018126270733773708,-0.00047973834443837404,0.0004465945530682802
1772644035274177300,4.63117724609375,-0.0003168365219607949,0.0006808672333136201,0.0004953304305672646
1772644035284218400,4.64121826171875,-0.00039970711804926395,0.00008061359403654933,-0.00015800166875123978
1772644035294259200,4.65125927734375,-0.0005808020941913128,-0.000017124461010098457,0.00042017060332000256
1772644035304300300,4.66130029296875,0.0015255415346473455,0.00024480296997353435,0.0013919476186856627
1772644035314340400,4.67134033203125,-0.0006185694364830852,0.0002035239594988525,0.0008931375341489911
1772644035324381400,4.68138134765625,-0.0004129961598664522,-0.0007186638540588319,0.0005939783295616508
1772644035334422300,4.69142236328125,-0.0010337790008634329,-0.00016019894974306226,-0.00017993617802858353
1772644035344463400,4.70146337890625,0.00013565376866608858,-0.0016284671146422625,-0.00011295708827674389
1772644035354503400,4.71150341796875,0.001669368240982294,-0.0006055468111298978,-0.0013329512439668179
1772644035364544500,4.72154443359375,-0.000030495692044496536,-0.0005370026919990778,0.0012892363592982292
1772644035374585300,4.73158544921875,-0.001689112395979464,-0.0009165031369775534,0.0003270362503826618
1772644035384626400,4.74162646484375,0.001108127529732883,-0.000011784082744270563,-0.0004894626326858997
1772644035394667300,4.751667236328125,0.000045792548917233944,0.0012015521060675383,-0.00040317606180906296
1772644035404707300,4.761707275390625,-0.0005256285658106208,0.00044868187978863716,-0.00033534783869981766
1772644035414748400,4.77174853515625,0.0002522807917557657,0.000540294626262039,-0.0001428013201802969
1772644035424789500,4.78178955078125,-0.0006235858891159296,-0.00003443146124482155,0.0017211622325703502
1772644035434830300,4.791830322265625,-0.0010219948599115014,-0.00028929603286087513,-0.0005526447203010321
1772644035444870400,4.801870361328125,-0.0004978155484423041,-0.00019888964015990496,0.001244735554791987
1772644035454911500,4.811911376953125,0.00033548753708601,-0.00040102354250848293,-0.0003771295305341482
1772644035464952600,4.82195263671875,0.0012407861649990082,-0.0008776566246524453,-0.00008502532728016376
1772644035474993400,4.831993408203125,0.00020268606022000313,0.0008616538252681494,-0.0005934229120612144
1772644035485034500,4.842034423828125,-0.0011814606841653585,0.0001687262556515634,0.00026342878118157387
1772644035495074300,4.85207421875,-0.00012871320359408855,-0.000543402973562479,-0.00014909496530890465
1772644035505115400,4.862115478515625,0.000911506125703454,0.0006154082948341966,0.0002121392171829939
1772644035515156200,4.87215625,0.0014012614265084267,0.0008878496591933072,-0.0007465989328920841
1772644035525197300,4.882197265625,-0.0011224572081118822,-0.0008773617446422577,-0.00023799273185431957
1772644035535237400,4.8922373046875,0.0010842381743714213,-0.0009956060675904155,0.00020648865029215813
1772644035545278200,4.9022783203125,0.00005615409463644028,-0.0002374526229687035,0.00005843723192811012
1772644035555319300,4.9123193359375,-0.0001427840907126665,-0.0002819274668581784,0.00008826470002532005
1772644035565360400,4.9223603515625,0.00042830384336411953,-0.0011141435243189335,0.000023442786186933517
1772644035575400400,4.932400390625,0.0011220573214814067,-0.0004243847797624767,0.001214674673974514
1772644035585441300,4.942441162109375,-0.00014514965005218983,0.00028216862119734287,0.001345282420516014
1772644035595482400,4.952482421875,0.0006119870813563466,-0.0015876367688179016,0.001481902552768588
1772644035605523500,4.9625234375,0.000004956498742103577,-0.0010073406156152487,0.000018112827092409134
1772644035615564300,4.972564208984375,-0.00042833981569856405,0.001169260940514505,0.0005270428955554962
1772644035625604400,4.982604248046875,0.0006116253207437694,0.0015653917798772454,0.0002808833960443735
1772644035635645400,4.9926455078125,-0.0007564405677840114,-0.0011246672365814447,0.0016574714099988341
1772644035645686300,5.002686279296875,-0.0005195150151848793,0.0010813220869749784,-0.0020929411984980106
1772644035655727400,5.012727294921875,0.002016613259911537,-0.0007197738159447908,0.000530272489413619
1772644035665767400,5.022767333984375,0.0009852276416495442,-0.0003189780400134623,0.00010777893476188183
1772644035675808500,5.03280859375,0.00074341258732602,-0.0002782316296361387,0.000902199768461287
1772644035685849300,5.042849365234375,0.00011342775542289019,-0.000004774366971105337,-0.0001405871007591486
1772644035695890400,5.052890380859375,-0.0012879276182502508,0.0014519747346639633,-0.000050838571041822433
1772644035705930500,5.062930419921875,-0.0009131272090598941,0.000048768939450383186,0.00045652897097170353
1772644035715971600,5.0729716796875,0.0011814490426331758,-0.00009637337643653154,-0.0010313792154192924
1772644035726012400,5.083012451171875,-0.0004380405880510807,-0.0004605847061611712,0.0003986791707575321
1772644035736053500,5.093053466796875,0.000992076937109232,-0.0007167808362282813,-0.00046791345812380314
1772644035746094600,5.103094482421875,0.001834067632444203,0.0007530097500421107,-0.000864420086145401
1772644035756134100,5.113134033203125,0.000272389966994524,0.00008295843144878745,0.00038034142926335335
1772644035766175200,5.12317529296875,0.00005960254929959774,0.00028159626526758075,0.0006777398521080613
1772644035776216300,5.13321630859375,0.00017811317229643464,-0.000815626117400825,-0.0007233491633087397
1772644035786257200,5.143257080078125,-0.00042745901737362146,0.0004313273529987782,0.00006482517346739769
1772644035796297200,5.153297119140625,0.00026256608543917537,0.0007101602968759835,-0.0003650090657174587
1772644035806338300,5.16333837890625,0.00018099515000358224,0.0011499528773128986,-0.00002737250179052353
1772644035816379400,5.17337939453125,-0.00012153992429375648,0.00046898258733563125,0.0012014100793749094
1772644035826420200,5.183420166015625,0.0002927738823927939,0.001371270278468728,0.0015779419336467981
1772644035836461300,5.19346142578125,-0.0005613018292933702,-0.00006736943032592535,0.001639993512071669
1772644035846501400,5.20350146484375,0.0013482957147061825,-0.0000956388539634645,-0.000041812658309936523
1772644035856542500,5.21354248046875,-0.001384906587190926,-0.0004913845914416015,0.0005201143212616444
1772644035866583300,5.223583251953125,-0.0001685295719653368,-0.0007037533796392381,-0.00031053414568305016
1772644035876624400,5.233624267578125,0.00038034789031371474,0.00010291812941431999,-0.0006420977879315615
1772644035886664400,5.24366455078125,0.0011659571900963783,-0.0013558928621932864,-0.0017615326214581728
1772644035896705300,5.253705322265625,-0.0004993174225091934,-0.00000274082412943244,-0.00016416865400969982
1772644035906746400,5.263746337890625,-0.00026738049928098917,0.0009403006406500936,-0.0010396135039627552
1772644035916787500,5.273787353515625,-0.00045087223406881094,-6.158370524644852e-8,0.001040847972035408
1772644035926828300,5.283828369140625,0.0005110555212013423,-0.0003706368734128773,0.0007636895170435309
1772644035936868400,5.293868408203125,-0.0002058674581348896,-0.0008225753554143012,-0.0004280749708414078
1772644035946909400,5.303909423828125,-0.0004413706483319402,0.0003920973977074027,0.0006423882441595197
1772644035956950500,5.313950439453125,-0.00014815665781497955,-0.0009309609886258841,0.001244262559339404
1772644035974521300,5.331521240234375,0.00028814480174332857,0.000522246235050261,-0.0002688553649932146
1772644035984562400,5.3415625,0.00001330662053078413,-0.00045566644985228777,-0.00037564802914857864
1772644035994603500,5.351603515625,-0.0004965626867488027,-0.00019636476645246148,0.00024095620028674603
1772644036004643300,5.361643310546875,-0.000040363287553191185,-0.0000658698845654726,-0.00007196515798568726
1772644036014684400,5.371684326171875,-0.00024216296151280403,-0.0012309490703046322,0.0007794717093929648
1772644036024725500,5.3817255859375,-0.00016306713223457336,-0.00036169326631352305,-0.0002849937882274389
1772644036034766300,5.391766357421875,0.0007482459768652916,-0.0012929894728586078,0.00049441191367805
1772644036044805600,5.4018056640625,-0.0003276710631325841,-0.002785957418382168,0.0002211716491729021
1772644036054846500,5.411846435546875,0.0002821020898409188,-0.0017150132916867733,0.0003529416862875223
1772644036064887600,5.421887451171875,-0.00019886484369635582,-0.00018715776968747377,-0.0005480055697262287
1772644036074928600,5.4319287109375,0.0007745699258521199,0.0006857435801066458,0.0006154532311484218
1772644036084968400,5.441968505859375,0.0007362203905358911,0.0006351434858515859,0.001059668487869203
1772644036095009500,5.452009521484375,0.0009907337371259928,0.0003834023664239794,0.00042239483445882797
1772644036105050600,5.462050537109375,0.0012517235008999705,0.0003184212255291641,0.0005310517735779285
1772644036115091500,5.472091552734375,-0.00007125618867576122,-0.0005121779977343976,-0.0004689574707299471
1772644036125132500,5.482132568359375,0.00002009025774896145,-0.0006669075810350478,-0.00007534213364124298
1772644036135172600,5.492172607421875,0.0003823263687081635,-0.0010448211105540395,0.00045114406384527683
1772644036145213700,5.502213623046875,-0.00030024186708033085,0.00010326760821044445,0.00018855626694858074
1772644036155254500,5.512254638671875,0.0007884560036472976,0.001113662263378501,-0.00026408350095152855
1772644036165295600,5.522295654296875,-0.0006821415154263377,0.00036797719076275826,0.000754575477913022
1772644036175335700,5.532335693359375,-0.00019169715233147144,0.000020593346562236547,0.00062218913808465
1772644036185376800,5.542376708984375,0.00039020355325192213,-0.0003940608585253358,-0.0005493354983627796
1772644036195417600,5.55241748046875,-0.00008223997429013252,-0.0004120261874049902,0.0003685168921947479
1772644036205458700,5.562458740234375,-0.00012245378457009792,0.0010247491300106049,0.000722450902685523
1772644036215499500,5.57249951171875,0.0011737175518646836,-0.0018237225012853742,0.0005385257536545396
1772644036225539600,5.58253955078125,0.00022430066019296646,-0.0007049284176900983,-0.0008516444358974695
1772644036235580700,5.59258056640625,0.00017975608352571726,-0.0014341457281261683,-0.0002456093207001686
1772644036245621800,5.602621826171875,0.0006961430190131068,-0.00016781268641352654,0.00013708695769309998
1772644036255662600,5.61266259765625,-0.00019593373872339725,-0.00007482606451958418,0.000579731771722436
1772644036265702700,5.62270263671875,0.0006576093728654087,-0.0007235720404423773,0.0005570949288085103
1772644036275743700,5.63274365234375,-0.00018628966063261032,-0.0006829696940258145,0.0008203904144465923
1772644036285784800,5.642784912109375,0.000019572675228118896,0.00008375442121177912,0.00013728952035307884
1772644036295825700,5.65282568359375,-0.0006661306833848357,0.0000386561150662601,0.00037349690683186054
1772644036305865500,5.662865478515625,-0.0015758664812892675,0.0007931296131573617,-0.0007000232581049204
1772644036315906600,5.672906494140625,-0.000044763204641640186,-0.0017143990844488144,0.0020844738464802504
1772644036325947600,5.68294775390625,-0.0006290606688708067,-0.0017511507030576468,-0.001010119216516614
1772644036335988500,5.692988525390625,0.0012148563982918859,-0.0017666901694610715,-0.0005746628157794476
1772644036346029600,5.703029541015625,0.00006144132930785418,-0.0003805148880928755,-0.00023537618108093739
1772644036356070400,5.7130703125,0.00040854321559891105,-0.000645767489913851,-0.00021770992316305637
1772644036366110500,5.7231103515625,-0.00037469249218702316,0.0007968668360263109,0.001615610090084374
1772644036376151600,5.733151611328125,-0.00021682283841073513,0.00032052688766270876,-0.00007558520883321762
1772644036386192600,5.743192626953125,0.0006084908382035792,-0.0005181024898774922,-0.00001593027263879776
1772644036396233500,5.7532333984375,0.00026531092589721084,0.00017666909843683243,0.0007015398005023599
1772644036406273500,5.7632734375,0.00003494753036648035,-0.0006779393297620118,-0.00021911505609750748
1772644036416314600,5.773314697265625,0.0014605068136006594,0.0002359938807785511,0.00007450534030795097
1772644036426355700,5.783355712890625,0.00008631567470729351,0.0003680866793729365,-0.0007089967839419842
1772644036436396500,5.793396484375,-0.00015646324027329683,-0.000419910647906363,0.0006922216853126884
1772644036446436600,5.8034365234375,0.0011141308350488544,-0.001116327359341085,0.00007783039472997189
1772644036456477700,5.813477783203125,-0.0008646039059385657,0.00022539403289556503,-0.0009017710108309984
1772644036466518500,5.8235185546875,0.001282702898606658,-0.00020310853142291307,0.0005856043426319957
1772644036476559600,5.8335595703125,-0.0007803523913025856,-0.0007010169792920351,0.000296066515147686
1772644036486600700,5.8436005859375,0.0012164857471361756,0.00044254446402192116,-0.0006671987939625978
1772644036496640800,5.853640869140625,-0.0000838874839246273,0.00024143862538039684,-0.0007217302918434143
1772644036506681600,5.863681640625,-0.00015366228763014078,0.00013757531996816397,0.0003312835469841957
1772644036516722700,5.87372265625,-0.0007042076904326677,-0.00004446174716576934,-0.000009774230420589447
1772644036526763800,5.883763671875,-0.00008821848314255476,0.0002990860375575721,0.00027305353432893753
1772644036536803800,5.893803955078125,0.00026734272250905633,-0.0003208504058420658,-0.0007567801512777805
1772644036546844700,5.9038447265625,0.0004958419012837112,0.00036651152186095715,-0.0014457399956882
1772644036556885800,5.9138857421875,0.0008814756292849779,0.0011091367341578007,-0.0018745532725006342
1772644036566926600,5.923926513671875,-0.00006394647061824799,0.0002065914450213313,-0.0012348620221018791
1772644036576966400,5.93396630859375,-0.001032486790791154,0.0006053028628230095,-0.0007204408757388592
1772644036587007500,5.944007568359375,0.00004129961598664522,0.0009557748562656343,0.0010236632078886032
1772644036597048600,5.954048583984375,0.0012216070899739861,0.0004578202497214079,-0.0004965041298419237
1772644036607089400,5.96408935546875,0.0006178684416227043,0.0006066909991204739,-0.0003526934888213873
1772644036617130500,5.974130615234375,-0.0004821494221687317,0.0003407407784834504,0.0007528486894443631
1772644036627170600,5.984170654296875,-0.00027016177773475647,-0.00030800525564700365,-0.00015049544163048267
1772644036637211600,5.994211669921875,0.0006920329760760069,-0.0012908551143482327,-0.0002707999665290117
1772644036647252500,6.00425244140625,-0.001190289156511426,-0.00036540674045681953,-0.0006337887607514858
1772644036657293600,6.01429345703125,-0.0008318058680742979,-0.0003025108017027378,0.0011266027577221394
1772644036667333600,6.024333740234375,-0.0011162314331158996,0.00006260850932449102,-0.0006758247036486864
1772644036677374700,6.034374755859375,0.00007214245852082968,0.00036103621823713183,-0.0008377169724553823
1772644036687415600,6.04441552734375,0.0016772296512499452,-0.00019156967755407095,-0.0008827243000268936
1772644036697456600,6.05445654296875,0.00045009393943473697,0.00008234451524913311,-0.000504662049934268
1772644036707497500,6.06449755859375,-0.00024579011369496584,-0.0007898407056927681,-0.0006892192177474499
1772644036717537500,6.07453759765625,0.00038602721178904176,0.001996514620259404,0.0010614050552248955
1772644036727578600,6.08457861328125,-0.0008515437366440892,0.0009810513583943248,0.001089634606614709
1772644036737619700,6.09461962890625,0.0012871496146544814,0.0009726883727125823,0.0011113694636151195
1772644036747660500,6.10466064453125,0.0010474651353433728,-0.0006268061697483063,0.0005252077244222164
1772644036757700600,6.11470068359375,-0.000727094360627234,0.0008878509979695082,-0.0006518370937556028
1772644036767741700,6.12474169921875,0.0006462978199124336,0.0006966360379010439,0.00012314273044466972
1772644036777782800,6.13478271484375,0.0009788949973881245,0.000776679371483624,0.0003463961184024811
1772644036787823600,6.14482373046875,-0.0013902530772611499,0.0006552392151206732,0.0012880900176241994
1772644036797863700,6.15486376953125,0.000718974566552788,0.0005858239019289613,0.0005156956613063812
1772644036807904800,6.16490478515625,0.0005123132723383605,-0.00035240768920630217,0.000978819327428937
1772644036817945600,6.174945556640625,0.0010017105378210545,0.00043448375072330236,0.0002983361482620239
1772644036827986700,6.184986572265625,-0.0017717053415253758,-0.00148299231659621,-0.0000028673093765974045
1772644036838027800,6.19502783203125,0.0005367861595004797,0.0010672055650502443,-0.000990802189335227
1772644036848067600,6.205067626953125,-0.0002730811247602105,-0.00008780742064118385,0.0003596867900341749
1772644036858108400,6.2151083984375,-0.0014296636218205094,-0.00017025379929691553,-0.00026926607824862003
1772644036868149500,6.2251494140625,0.0006760978139936924,0.0003674383624456823,0.00018640072084963322
1772644036878190600,6.235190673828125,-0.00023591169156134129,-0.000024632434360682964,-0.000012396369129419327
1772644036888230700,6.245230712890625,-0.0002513580257073045,0.0003362258430570364,-0.0009168058168143034
1772644036898271500,6.255271484375,0.00024845817824825644,-0.0013047048123553395,0.0017460247036069632
1772644036908312600,6.2653125,0.00006123795174062252,0.0002575054531916976,-0.00010700291022658348
1772644036918353700,6.275353759765625,0.0005008084699511528,-0.0006175515009090304,0.0007281276630237699
1772644036928394500,6.28539453125,0.000030227936804294586,0.00039418338565155864,0.000755025539547205
1772644036938434600,6.2954345703125,-0.00038739806041121483,0.0014101138804107904,-0.0008242588955909014
1772644036948475600,6.3054755859375,-0.000887539703398943,0.00006521749310195446,0.0013368962099775672
1772644036958516500,6.3155166015625,-0.0009051891975104809,-0.00007000018376857042,-0.00001195794902741909
1772644036968557600,6.3255576171875,0.00035342079354450107,0.0014591868966817856,-0.00044392282143235207
1772644036978597600,6.33559765625,0.00013226032024249434,-0.0003804255975410342,0.00039588799700140953
1772644036988638700,6.345638671875,0.0009573076386004686,0.00033676368184387684,0.0006954935379326344
1772644036998679600,6.355679443359375,0.001283056102693081,-0.0007692317012697458,-0.0001429400872439146
1772644037008720600,6.365720703125,0.0002681253827176988,0.00043558242032304406,-0.0005168479401618242
1772644037018760700,6.3757607421875,-0.0004667846951633692,0.00019053096184507012,-0.0004199931863695383
1772644037028801800,6.3858017578125,0.0015572176780551672,0.0004749565268866718,-0.00017684674821794033
1772644037038843000,6.3958427734375,-0.00007359602022916079,0.0003182341461069882,0.0024563027545809746
1772644037048884000,6.405884033203125,-0.00034417316783219576,-0.000881253625266254,-0.0004859576001763344
1772644037058924800,6.4159248046875,0.0015161201590672135,-0.0006802757270634174,0.0005600589793175459
1772644037068964900,6.42596484375,0.0014804338570684195,0.00027739693177863955,-0.0006676584016531706
1772644037079006000,6.436005859375,0.0006967561785131693,0.0005747347604483366,0.00009866803884506226
1772644037089047000,6.446047119140625,0.00004348275251686573,0.0022802231833338737,-0.00048536318354308605
1772644037099088000,6.456087890625,-0.00010633096098899841,-0.0012177533935755491,0.00307302619330585
1772644037109127700,6.466127685546875,-0.0011092773638665676,0.0003183578955940902,-0.000356858829036355
1772644037119169000,6.4761689453125,0.00026393571170046926,0.00011617102427408099,0.000018765917047858238
1772644037129210000,6.486210205078125,0.0002910999464802444,0.00008421309757977724,-0.000312265008687973
1772644037139251000,6.4962509765625,-0.00016737706027925014,0.00047561019891873,-0.0006678774952888489
1772644037149290800,6.506290771484375,-0.001285105710849166,0.0004910565330646932,-0.00021753692999482155
1772644037159331800,6.516331787109375,0.0001838121679611504,-0.0009054212714545429,0.0009640081552788615
1772644037169372700,6.52637255859375,0.00028421333990991116,0.00003866938641294837,0.0008798522176221013
1772644037179413800,6.536413818359375,-0.000031813979148864746,-0.0009057039278559387,0.00037680426612496376
1772644037189454800,6.546454833984375,0.0003378327237442136,-0.0008609628421254456,0.0003453788813203573
1772644037199495000,6.556494873046875,7.604248821735382e-7,0.0003406469477340579,0.0009439521236345172
1772644037209535700,6.56653564453125,-0.0010431987466290593,-0.00011981354327872396,0.0005990726640447974
1772644037219576800,6.576576904296875,0.0005678075249306858,-0.0003338145324960351,0.0007846547523513436
1772644037229618000,6.586617919921875,0.001979016698896885,-0.0002011891920119524,0.001440058695152402
1772644037239658000,6.596657958984375,0.00048395886551588774,0.00009173585567623377,-0.00033241603523492813
1772644037249698800,6.60669873046875,0.0008362950757145882,0.001080567599274218,0.0013240701518952847
1772644037259740000,6.616739990234375,0.0019858661107718945,0.0009123440249823034,-0.00012940121814608574
1772644037269781000,6.626781005859375,0.00011978915426880121,-0.0011105932062491775,-0.00037840683944523335
1772644037279821800,6.63682177734375,-0.00003132002893835306,0.00047247676411643624,-0.00020622764714062214
1772644037289862000,6.64686181640625,0.0010810823878273368,0.00011268368689343333,-0.00008958112448453903
1772644037299903000,6.656903076171875,0.0002959631383419037,0.00005280610639601946,0.00012132339179515839
1772644037309943800,6.66694384765625,0.0002072798670269549,0.0007928985869511962,0.0022222911939024925
1772644037319985000,6.67698486328125,-0.0006056858692318201,0.0010226020822301507,0.0007497522747144103
1772644037330025000,6.68702490234375,-0.00043337931856513023,-0.0006554556894116104,0.0009244555840268731
1772644037340066000,6.697066162109375,0.0023855543695390224,-0.0005929002072662115,0.0008797463960945606
1772644037350107000,6.70710693359375,-0.0010557824280112982,-0.0005044832359999418,0.00048293545842170715
1772644037360148000,6.71714794921875,-0.0016748857451602817,0.0002859924570657313,0.0011610649526119232
1772644037370187800,6.727187744140625,-0.00019443454220891,0.0004961158847436309,-0.0004320379812270403
1772644037380229000,6.73722900390625,-0.0001105648698285222,-0.0010536875342950225,-0.002533095423132181
1772644037390270000,6.74727001953125,0.00018717657076194882,0.0005894828354939818,0.00005283369682729244
1772644037400311000,6.75731103515625,-0.00153570924885571,-0.0012628549011424184,-0.0003685920964926481
1772644037410351900,6.767351806640625,-0.0009452863596379757,-0.001511860522441566,-0.0011153423693031073
1772644037420391700,6.7773916015625,-0.000362174934707582,0.0015819366089999676,0.0006653424352407455
1772644037430432800,6.787432861328125,0.00034249742748215795,0.0012943153269588947,0.0005489622708410025
1772644037440473900,6.797473876953125,0.000534830498509109,0.00018850888591259718,-0.0000852260272949934
1772644037450514700,6.8075146484375,-0.0003466758644208312,-0.00048606976633891463,0.0007725781761109829
1772644037460554800,6.8175546875,-0.0016670548357069492,-0.0010965738911181688,0.00019989162683486938
1772644037470595800,6.827595947265625,-0.0007224315777420998,0.00048055019578896463,0.0007394480053335428
1772644037480637000,6.837636962890625,0.0014895717613399029,0.0002115510287694633,-0.00045664398930966854
1772644037490677800,6.847677734375,-0.0005719811888411641,0.000258156331256032,-0.00012294994667172432
1772644037500717800,6.8577177734375,0.0006567973177880049,0.00024514872347936034,-0.0007387886289507151
1772644037510759000,6.867759033203125,0.0007004731451161206,-0.000666184991132468,0.0012929369695484638
1772644037520800000,6.877800048828125,0.0007624577847309411,-0.0009692209423519671,0.0020066434517502785
1772644037530840800,6.8878408203125,-0.0008434283081442118,0.000003631867002695799,0.0008710717083886266
1772644037540882000,6.8978818359375,-0.000036948476918041706,-0.0003918514703400433,-0.00024818768724799156
1772644037550922000,6.907921875,0.00016119075007736683,-0.0013473937287926674,0.0006716682109981775
1772644037560962800,6.917962890625,-0.00006062013562768698,-0.0005126263713464141,0.0008584386669099331
1772644037571004000,6.92800390625,0.0009585716179572046,-0.000092645816039294,-0.0012172290589660406
1772644037581045000,6.938044921875,0.00005424697883427143,-0.0003046952188014984,-0.00036475295200943947
1772644037591085000,6.9480849609375,0.0006380118429660797,-0.0009076348505914211,-0.0004989760927855968
1772644037601126000,6.9581259765625,-0.00005324278026819229,-0.0005751025746576488,0.0003847519401460886
1772644037611167000,6.9681669921875,-0.00035790831316262484,-0.00022702739806845784,-0.0008038168307393789
1772644037621208000,6.9782080078125,-0.0008001397363841534,0.0009059339645318687,0.00036055012606084347
1772644037631249000,6.988248779296875,0.0016686106100678444,0.0008050001342780888,0.0005027629667893052
1772644037641289000,6.9982890625,-0.0012378160608932376,0.00026549719041213393,0.0011469352757558227
1772644037651330000,7.008330078125,0.0003054857370443642,-0.0005030911415815353,0.00047528615687042475
1772644037661371000,7.018370849609375,0.001996922306716442,0.000017172947991639376,-0.00047354772686958313
1772644037671412000,7.028411865234375,-0.00017195602413266897,0.00009999721078202128,-0.0007542448583990335
1772644037681451800,7.03845166015625,0.0011444175615906715,-0.0005998542183078825,-0.0002946981694549322
1772644037691492900,7.048492919921875,0.00045918620890006423,-0.00015350832836702466,0.0005681660259142518
1772644037701533700,7.05853369140625,-0.0009199443738907576,0.000263315683696419,-0.0011235657148063183
1772644037711574800,7.06857470703125,-0.0006483019096776843,0.00021857459796592593,0.0002871106844395399
1772644037721614800,7.07861474609375,-0.0010850155958905816,-0.0005547339096665382,-0.0006490040104836226
1772644037731656000,7.088656005859375,-0.002371588721871376,-0.0020226682536303997,-0.0010796370916068554
1772644037741696800,7.09869677734375,-0.0015887332847341895,-0.0001738786231726408,-0.00041713519021868706
1772644037751737900,7.10873779296875,0.001042203395627439,-0.0011102460557594895,0.0011019319063052535
1772644037761779000,7.118779052734375,0.0004888693802058697,-0.00009103270713239908,-0.00032269046641886234
1772644037771818800,7.12881884765625,0.0008798214257694781,-0.0005357805639505386,0.0002980923745781183
1772644037781859800,7.13885986328125,-0.0002043974818661809,0.0002483706921339035,-0.0011726885568350554
1772644037791901000,7.14890087890625,0.0004715128452517092,-0.0008880001259967685,-0.0006808028556406498
1772644037801941800,7.158941650390625,-0.000027025467716157436,-0.0006237894995138049,-0.00023705861531198025
1772644037811981800,7.16898193359375,0.0004502130323089659,-0.0001454857410863042,0.0010324702598154545
1772644037822023000,7.17902294921875,0.0008282397175207734,-0.0003859283169731498,-0.00009473576210439205
1772644037832064000,7.18906396484375,-0.0006303736008703709,-0.0007566403364762664,-0.0008207135833799839
1772644037842104800,7.199104736328125,-0.00015829980839043856,-0.0008209897205233574,-0.0011072824709117413
1772644037852146000,7.20914599609375,-0.00014604919124394655,0.0003353548236191273,-0.00031339400447905064
1772644037862186000,7.21918603515625,0.0001797527656890452,-0.00006989773828536272,-0.0007815312128514051
1772644037872227000,7.22922705078125,-0.000752087333239615,-0.00006643554661422968,-0.0010273410007357597
1772644037882268000,7.239267822265625,0.0005780284991487861,0.0005304752849042416,-0.0010554585605859756
1772644037892309000,7.24930908203125,0.0000017205020412802696,-0.00002958741970360279,0.00009396183304488659
1772644037902349000,7.25934912109375,0.0001352639519609511,-0.00019725027959793806,-0.001404882874339819
1772644037912390000,7.269389892578125,0.0005203570472076535,-0.00013679650146514177,-0.00017450260929763317
1772644037922431000,7.279430908203125,0.0003403496812097728,-0.0001878970069810748,-0.0015994091518223286
1772644037932472000,7.28947216796875,0.0005890888860449195,0.00026590563356876373,-0.00013333884999155998
1772644037942511900,7.299511962890625,0.00036172993713989854,0.0013415273278951645,0.0007066717371344566
1772644037952552700,7.309552734375,0.00061286601703614,0.0008435162017121911,0.001085106865502894
1772644037962593800,7.31959375,-0.0006256084889173508,0.00013534777099266648,-0.0001960026565939188
1772644037972635000,7.329634765625,-0.0010730194626376033,-0.0003533422714099288,0.00020906399004161358
1772644037982675700,7.33967578125,0.0004494613385759294,-0.00017032132018357515,0.0005831680027768016
1772644037992715800,7.3497158203125,-0.0021883996669203043,-0.0008725968655198812,-0.0003398836124688387
1772644038002756900,7.3597568359375,-0.001028418424539268,0.00030334899201989174,-0.0008263194467872381
1772644038012798000,7.3697978515625,0.0021308897994458675,-0.0022072128485888243,0.0005369526334106922
1772644038022838800,7.3798388671875,0.00006207393016666174,0.0001682235742919147,-0.0010154859628528357
1772644038032878800,7.38987890625,-0.00021835695952177048,0.0000965845538303256,-0.0010426503140479326
1772644038042920000,7.399919921875,-0.00024342257529497147,0.0003612799337133765,-0.00022435840219259262
1772644038052960800,7.409960693359375,-0.00039282592479139566,-0.0010808217339217663,0.00025607598945498466
1772644038063001900,7.420001953125,-0.0011626300401985645,0.00033727328991517425,-0.000692631583660841
1772644038073043000,7.43004296875,0.00006322306580841541,0.0008845528936944902,-0.0008897054940462112
1772644038083082800,7.440082763671875,-0.0008417750941589475,-0.0005459696985781193,-0.0013172740582376719
1772644038093123800,7.450123779296875,-0.0001616037916392088,-0.00017046404536813498,0.0000049853697419166565
1772644038103165000,7.4601650390625,0.00029469263972714543,0.00044199771946296096,-0.0009306052234023809
1772644038113206000,7.4702060546875,-0.00004086561966687441,-0.00009196600876748562,0.00011575082316994667
1772644038123245800,7.480245849609375,-0.0005362083902582526,-0.00047100847586989403,-0.00010182475671172142
1772644038133286700,7.49028662109375,0.0011551652569323778,-0.0009125604992732406,0.0010276219109073281
1772644038143327700,7.50032763671875,0.0003703319816850126,-0.0008505759760737419,-0.000577596016228199
1772644038153368800,7.510368896484375,0.0007500987267121673,0.00013106525875627995,-0.0017424626275897026
1772644038163408600,7.52040869140625,0.00007417664164677262,0.0003984011127613485,-0.0008771482389420271
1772644038173449700,7.53044970703125,0.000057132390793412924,-0.00009534892160445452,0.0000773286446928978
1772644038183490800,7.54049072265625,0.0005931529449298978,0.0007845347281545401,0.0010391968535259366
1772644038193531600,7.55053173828125,-0.0005528052570298314,0.0004300680011510849,0.00009963358752429485
1772644038203572700,7.56057275390625,0.0002635664422996342,0.0007416602456942201,0.00026266369968652725
1772644038213612800,7.57061279296875,-0.0008760001510381699,-0.000057820696383714676,0.00045600917655974627
1772644038223654000,7.58065380859375,0.001758093829266727,-0.001108301803469658,-0.00011141877621412277
1772644038233694700,7.59069482421875,0.00018789403839036822,0.0016672445926815271,0.00011574896052479744
1772644038243735800,7.60073583984375,0.0006261138478294015,-0.000013236072845757008,-0.00008671311661601067
1772644038253776000,7.61077587890625,-0.00006311223842203617,0.000590768875554204,0.0007852058624848723
1772644038263817000,7.62081689453125,0.0003192126750946045,-0.0017334790900349617,-0.00039343303069472313
1772644038273857800,7.63085791015625,0.0014023203402757645,0.0003248780267313123,0.0002752866130322218
1772644038283899000,7.64089892578125,-0.0007598451338708401,-0.0004888492403551936,-0.0004805719945579767
1772644038293939700,7.650939697265625,-0.000123083358630538,0.001797208096832037,0.0011972193606197834
1772644038303979800,7.660979736328125,-0.000026995199732482433,0.0007018162286840379,0.0009110335959121585
1772644038314020900,7.671020751953125,0.0005280075129121542,-0.0008289687102660537,-0.0019515983294695616
1772644038324062000,7.68106201171875,0.0001578439841978252,0.00022268376778811216,0.0004212745698168874
1772644038334102800,7.691102783203125,-0.0006184674566611648,0.0008445319253951311,-0.001022158656269312
1772644038344142800,7.701142822265625,-0.00008388212881982327,0.0002190062659792602,-0.001069077756255865
1772644038354184000,7.711183837890625,0.0008365062531083822,-0.0008949940092861652,0.00019112997688353062
1772644038364225000,7.72122509765625,-0.0005320024210959673,0.00023658497957512736,-0.001461630454286933
1772644038374265900,7.731265869140625,0.0011886658612638712,0.0007726792828179896,-0.00024296785704791546
1772644038384305700,7.7413056640625,-0.0006849581841379404,0.0009664722019806504,-0.0003346570301800966
1772644038394346800,7.7513466796875,-0.0013241168344393373,0.0006623392109759152,0.000060555990785360336
1772644038404387800,7.761387939453125,0.00006965018110349774,0.00008941860869526863,-0.00020730867981910706
1772644038414428700,7.7714287109375,0.0005516823148354888,0.0003213798627257347,-0.00007628113962709904
1772644038424469800,7.7814697265625,-0.0004974169423803687,0.0004760497831739485,-0.000619795173406601
1772644038434509800,7.791509765625,-0.00010033964645117521,0.0005743204383179545,0.00014373310841619968
1772644038444550700,7.801550537109375,0.00005525094456970692,0.0009791386546567082,0.00006300699897110462
1772644038454591700,7.811591796875,0.0005727030802518129,-0.00017321109771728516,0.00010748184286057949
1772644038464632800,7.8216328125,-0.0011278175516054034,0.00098128872923553,0.000029165297746658325
1772644038474673000,7.8316728515625,0.001378749730065465,0.00022228778107091784,-0.00004167482256889343
1772644038484713700,7.841713623046875,0.0010659208055585623,-0.00002076092641800642,-0.0008285366930067539
1772644038494754800,7.8517548828125,-0.0001186532317660749,0.0006407683249562979,0.0006332724587991834
1772644038504796000,7.8617958984375,0.0011528765317052603,-0.0003136902814731002,-0.0008594386745244265
1772644038514835700,7.871835693359375,-0.0008887027506716549,-0.00037441030144691467,-0.00019071903079748154
1772644038524876800,7.881876708984375,0.0010757852578535676,0.0006280449451878667,-0.0009326944127678871
1772644038534918000,7.89191796875,-0.00036391965113580227,-0.00015119602903723717,-0.0004884791560471058
1772644038544958700,7.901958740234375,0.0002546948962844908,0.0008895689970813692,-0.0008052622433751822
1772644038554999800,7.911999755859375,0.000992923160083592,-0.0009466805495321751,-0.0004798241425305605
1772644038565039900,7.922039794921875,-0.0003904427867382765,-0.0006719249067828059,0.0007435532752424479
1772644038575081000,7.9320810546875,0.0003661612863652408,-0.00035740563180297613,-0.000033024465665221214
1772644038585121800,7.942121826171875,0.0004243628936819732,0.000728616607375443,-0.00121981929987669
1772644038595163000,7.952162841796875,0.0016217201482504606,-0.000011742115020751953,-0.0006118195597082376
1772644038605203000,7.962202880859375,-0.0006705853738822043,-0.0004271561047062278,0.0007032101275399327
1772644038615244000,7.972244140625,0.00007589865708723664,0.0008008275181055069,-0.0011215878184884787
1772644038625284900,7.982284912109375,-0.000775863416492939,0.0010203927522525191,0.0008226757636293769
1772644038635326000,7.992325927734375,0.0009176406892947853,0.0011655350681394339,-0.0004116995260119438
1772644038645366800,8.00236669921875,0.0014771197456866503,-0.0011620601871982217,-0.00016045058146119118
1772644038655406600,8.012406494140626,0.00029787205858156085,-0.00012475892435759306,-0.001129574840888381
1772644038665447700,8.02244775390625,-0.00038433587178587914,0.0020211171358823776,0.00027465703897178173
1772644038675488800,8.03248876953125,-0.0002873968333005905,-0.0013536405749619007,-0.00010937079787254333
1772644038685529600,8.042529541015625,0.0002133118687197566,0.000338928890414536,0.0002520389389246702
1772644038695569700,8.052569580078124,-0.0004924258100800216,0.0012952700490131974,0.00046882033348083496
1772644038705610800,8.06261083984375,-0.001147306291386485,-0.00028243288397789,0.001679901615716517
1772644038715651800,8.07265185546875,0.0004090450529474765,-0.0009330431930720806,0.00009611970745027065
1772644038725692700,8.082692626953126,0.0014292182167991996,0.001177966594696045,-0.000019837636500597
1772644038735733800,8.092733642578125,-0.0003598933690227568,-0.0004446974489837885,0.00044035667087882757
1772644038745773800,8.10277392578125,-0.0020508700981736183,0.0010893720900639892,0.0006262840470299125
1772644038755815000,8.11281494140625,-0.0009203582885675132,0.000869128736667335,0.0003509132657200098
1772644038765855700,8.122855712890624,-0.00008244143100455403,-0.0005333847366273403,0.0005203887121751904
1772644038775896800,8.132896728515625,0.00016469991533085704,-0.0005584184546023607,-0.00007722456939518452
1772644038785937000,8.14293701171875,0.00047418082249350846,-0.0008229650557041168,0.0009032937232404947
1772644038795977700,8.152977783203125,0.0013706008903682232,-0.00022987916599959135,-0.0006802219431847334
1772644038806018800,8.163018798828125,0.001057273242622614,-0.00002398923970758915,-0.0001229343470185995
1772644038816060000,8.173059814453126,-0.00044821167830377817,0.0003882680903188884,0.00009384704753756523
1772644038826100000,8.183099853515625,0.0000630211434327066,-0.0005187531933188438,0.0005121307913213968
1772644038836140800,8.193140869140626,0.0008031136239878833,0.001111367717385292,-0.00009427103213965893
1772644038846182000,8.203181884765625,0.000008600240107625723,0.0006890474469400942,0.0006504218326881528
1772644038856223000,8.213222900390624,0.0005926314042881131,-0.0003096379805356264,-0.0000161672942340374
1772644038866263800,8.223263916015625,-0.000008782313670963049,0.00006520288297906518,-0.001210015732795
1772644038876304000,8.233303955078124,-0.00015472358791157603,-0.0006511874962598085,0.0005732369609177113
1772644038886345000,8.243344970703125,0.00043161321082152426,0.0005621397867798805,-0.00011106859892606735
1772644038896385800,8.2533857421875,-0.00008051266195252538,-0.000834954553283751,-0.0005187985952943563
1772644038906427000,8.263427001953126,0.0010953514138236642,0.0004392255796119571,-0.0009450013749301434
1772644038916466700,8.273466796875,-0.0007688613841310143,-0.000655866228044033,-0.0009716330096125603
1772644038926507800,8.2835078125,0.0009817747632041574,0.0004380253376439214,0.0013064374215900898
1772644038936548600,8.293548583984375,0.0005894911009818316,-0.0007193845231086016,0.0002382434904575348
1772644038946589700,8.303589599609374,-0.0001735760597512126,-0.0007211931515485048,-0.00001676729880273342
1772644038956630800,8.313630859375,0.0004666478489525616,-0.0008032185724005103,0.00021812343038618565
1772644038966670800,8.3236708984375,-0.0017818945925682783,-0.0006746246945112944,-0.0005055216606706381
1772644038976711700,8.333711669921875,0.0006082924082875252,-0.00039872119668871164,-0.00024639605544507504
1772644038986752800,8.343752685546875,-0.0005491975462064147,0.0005122349830344319,-0.0002613915130496025
1772644038996793900,8.3537939453125,-0.0009444106835871935,0.0011511273914948106,-0.0008813755121082067
1772644039006833700,8.363833740234375,0.00047603939310647547,-0.0004526947159320116,0.0004112180322408676
1772644039016874800,8.373874755859376,0.0010539453942328691,0.0004069736460223794,0.0015457244589924812
1772644039026915800,8.383915771484375,0.00002397748176008463,-0.0010805870406329632,0.0012235194444656372
1772644039036957400,8.39395751953125,-0.00013874162686988711,-0.00003076891880482435,0.000217377208173275
1772644039046997500,8.40399755859375,-0.00020970799960196018,0.00017035804921761155,-0.0017569861374795437
1772644039057038600,8.41403857421875,-0.000628356821835041,-0.0010922467336058617,0.0001463752705603838
1772644039067079400,8.424079345703126,-0.0024678364861756563,0.0006094344425946474,0.0009400576818734407
1772644039077120500,8.43412060546875,-0.000732254353351891,0.0001063633244484663,-0.000338792335242033
1772644039087161600,8.44416162109375,-0.0003623563679866493,0.0010900155175477266,0.0004334021359682083
1772644039097201700,8.45420166015625,-0.00003292330075055361,-0.00019975332543253899,0.0008147668559104204
1772644039107242500,8.464242431640624,0.0005463007837533951,-0.00012586545199155807,-0.0010200690012425184
1772644039117283600,8.47428369140625,-0.00021403172286227345,-0.0008864642586559057,-0.0013779979199171066
1772644039127324700,8.48432470703125,0.0009285453124903142,0.00028343626763671637,0.0003351927734911442
1772644039137364500,8.494364501953125,0.00014530960470438004,-0.00006943254265934229,-0.00007067294791340828
1772644039147405300,8.5044052734375,-0.00007034162990748882,0.0007062744116410613,0.0002800244837999344
1772644039157446400,8.5144462890625,-0.0003750072792172432,0.0006287763826549053,-0.00045953551307320595
1772644039167487700,8.52448779296875,-0.00014437391655519605,0.0002887551090680063,-0.0004729658830910921
1772644039177527600,8.534527587890626,-0.0010583708062767982,0.0003638562047854066,0.0005313121946528554
1772644039187568400,8.544568359375,0.0005429065204225481,0.0015580859035253525,0.000006523681804537773
1772644039197609500,8.554609375,-0.0007228938629850745,0.0003388908226042986,-0.001375923166051507
1772644039207650300,8.564650390625,-0.00032217655098065734,-0.00021191162522882223,-0.00003638211637735367
1772644039217691400,8.57469140625,-0.00011125416494905949,0.000003538094460964203,0.001122359186410904
1772644039227731500,8.5847314453125,-0.0006986300577409565,0.0009284757543355227,0.00003067660145461559
1772644039237772500,8.5947724609375,0.0006417389959096909,-0.00015569711104035378,0.0010621189139783382
1772644039247813400,8.6048134765625,0.0003736653889063746,0.00032049999572336674,0.000016347505152225494
1772644039257854500,8.6148544921875,0.00024450209457427263,0.0016704562585800886,0.00013991817831993103
1772644039267894500,8.62489453125,-0.0003382203867658973,0.00043208274291828275,0.001438839710317552
1772644039277935600,8.634935546875,0.00003755168290808797,0.0010081244399771094,0.00018449081107974052
1772644039287976400,8.6449765625,0.0005422520916908979,-0.00017206254415214062,0.0008394138421863317
1772644039298017500,8.655017578125,-0.002385627245530486,0.00021942210150882602,0.0007704379968345165
1772644039308058600,8.66505859375,-0.0018007828621193767,0.0011147807817906141,-0.0005566256586462259
1772644039318098400,8.675098388671875,0.0008908738964237273,-0.0007723352173343301,0.0013840198516845703
1772644039328139500,8.685139404296875,-0.00005473027704283595,0.00045013276394456625,0.001281025935895741
1772644039338180600,8.6951806640625,0.0006190494168549776,-0.00012271315790712833,0.00046183750964701176
1772644039348221400,8.705221435546875,-0.0007531388546340168,-0.000005544745363295078,0.00013095885515213013
1772644039358261500,8.715261474609376,-0.0004647184978239238,-0.00036933261435478926,-0.0013215290382504463
1772644039368302600,8.725302490234375,-0.00006387516623362899,0.00017738965107128024,-0.0002509569749236107
1772644039378343700,8.73534375,0.0017010016599670053,0.00022452761186286807,0.00034612370654940605
1772644039388384500,8.745384521484375,0.00030135561246424913,0.0009597790776751935,0.0003805565647780895
1772644039398425600,8.755425537109375,0.0013615600764751434,0.0007685641176067293,0.0004039923660457134
1772644039408465400,8.76546533203125,-0.0008110312628559768,0.0009868474444374442,-0.0006812375504523516
1772644039418506500,8.775506591796875,-0.0009796093218028545,-0.00019426445942372084,-0.0011550139170140028
1772644039428547600,8.785547607421876,0.00038374614086933434,0.0002354345633648336,-0.0005212428513914347
1772644039438588700,8.795588623046875,-0.00018830085173249245,-0.00045698729809373617,0.0007544112158939242
1772644039448628500,8.80562841796875,0.0008071013726294041,-0.0005685959476977587,-0.00029533798806369305
1772644039458669300,8.81566943359375,-0.0003412537043914199,-0.0013563591055572033,0.0001603288110345602
1772644039468710400,8.82571044921875,-0.0007846021326258779,-0.0006526678334921598,-0.0004381313920021057
1772644039478751500,8.83575146484375,0.00011581263970583677,-0.0008281701011583209,-0.00010230694897472858
1772644039488791600,8.84579150390625,-0.0017531305784359574,0.00011612544767558575,0.0006279760273173451
1772644039498832400,8.855832275390625,-0.0008569769561290741,-0.00015791377518326044,-0.00018828269094228745
1772644039508873500,8.86587353515625,0.000042782980017364025,0.0010989370057359338,0.00040978030301630497
1772644039518914600,8.87591455078125,0.0009075113921426237,0.0003018529387190938,0.001061988528817892
1772644039528955400,8.885955322265625,0.0006684990366920829,0.000140703865326941,-0.00007604504935443401
1772644039538995500,8.895995361328126,-0.0014697531005367637,-0.00014185754116624594,0.0009178465697914362
1772644039549036500,8.90603662109375,-0.0000348383910022676,-0.0006384574808180332,-0.0008846323471516371
1772644039559077400,8.916077392578124,-0.0012628219556063414,0.000023604370653629303,0.00023948773741722107
1772644039569118500,8.926118408203125,-0.0008788322447799146,-0.0013379347510635853,0.0005342934746295214
1772644039579158500,8.936158447265624,0.0003978871100116521,-0.0009104972705245018,0.0011939584510400891
1772644039589199600,8.94619970703125,-0.0001473823795095086,-0.000033660558983683586,-0.001146421069279313
1772644039599240400,8.956240478515625,-0.0018645885866135359,-0.0004749463405460119,0.0005300388438627124
1772644039609281500,8.966281494140626,-0.0008369043935090303,-0.0005738707259297371,-0.0011863717809319496
1772644039619322600,8.976322509765625,-0.0012451669899746776,-0.00028678192757070065,0.0016616126522421837
1772644039629362700,8.98636279296875,0.0007994768675416708,-0.0007672954816371202,0.000379401259124279
1772644039639403500,8.996403564453125,0.0007227777969092131,-0.000766496523283422,0.0003106917720288038
1772644039649444600,9.006444580078124,0.0006025810143910348,-0.0006764027057215571,-0.0005985668394714594
1772644039659485700,9.016485595703125,0.0005157619598321617,-0.00030142965260893106,-0.000844110269099474
1772644039669525500,9.026525390625,-0.00029301882022991776,0.0010908861877396703,-0.001372617669403553
1772644039679566600,9.036566650390625,0.000946682645007968,0.00005012284964323044,-0.00008125090971589088
1772644039689607700,9.046607666015625,-0.0005952339270152152,0.0006789437029510736,0.00048281520139425993
1772644039699648500,9.0566484375,-0.0010248017497360706,0.0009380693081766367,-0.0018362656701356173
1772644039709688300,9.066688232421875,0.0007905508973635733,-0.0008314053993672132,0.0003427432384341955
1772644039719729400,9.0767294921875,-0.001364212715998292,0.0003438475541770458,-0.0004202525597065687
1772644039729770500,9.0867705078125,0.00023131666239351034,0.00046275468776002526,-0.0005758639890700579
1772644039739811300,9.096811279296874,0.0006579550681635737,0.00010802166070789099,0.001337617402896285
1772644039749852400,9.106852294921875,0.0002982214209623635,0.0009485771297477186,0.0012285668635740876
1772644039759892500,9.116892578125,0.0014308638637885451,-0.00026316114235669374,-0.0022905340883880854
1772644039769933600,9.12693359375,0.00006125011714175344,-0.0003154247533529997,0.0003637454938143492
1772644039779974400,9.136974365234375,0.000711594067979604,-0.00028826051857322454,0.0009925178019329906
1772644039790015500,9.147015380859376,-0.0010798820294439793,0.0006476636044681072,0.0008854300249367952
1772644039800055600,9.1570556640625,-0.00011235562851652503,0.0003917338326573372,-0.0001790353562682867
1772644039810096400,9.167096435546876,-0.0009325539576821029,0.0019953781738877296,-0.00046265358105301857
1772644039820137500,9.177137451171875,0.0007921091746538877,0.00047577841905876994,0.0008018153021112084
1772644039830178600,9.187178466796874,0.0000837604166008532,0.0009628073312342167,0.0010872092097997665
1772644039840219400,9.197219482421875,0.0010158667573705316,-0.000710989348590374,-0.00010056048631668091
1772644039850259500,9.207259521484374,0.00003696768544614315,0.0009549555252306163,-0.00006505078636109829
1772644039860300500,9.217300537109375,-0.0002083094441331923,0.0006465615006163716,0.000331493909470737
1772644039870341600,9.227341552734375,0.0006291238823905587,0.00020482222316786647,0.000751507468521595
1772644039880382500,9.237382568359376,0.0010017001768574119,0.0005608868086710572,-0.0010834105778485537
1772644039890422500,9.247422607421875,0.0001894629094749689,0.0002575568505562842,0.00086885632481426
1772644039900463600,9.257463623046876,-0.0006161432829685509,0.0011087032034993172,-0.0011847070418298244
1772644039910504700,9.267504638671875,-0.0005697307060472667,-0.000009903567843139172,0.0006287563592195511
1772644039920545500,9.277545654296874,-0.000959883735049516,0.001314220018684864,-0.0010162782855331898
1772644039930586600,9.287586669921875,-0.0001980920205824077,0.00012142152991145849,-0.0003443402238190174
1772644039940626700,9.297626708984374,0.00018140842439606786,0.0008641771273687482,-0.00002422812394797802
1772644039950667500,9.30766748046875,-0.00045302638318389654,0.00038557284278795123,0.0004713558591902256
1772644039960708600,9.31770849609375,-0.0008266678778454661,0.0006766563165001571,-0.0001715312246233225
1772644039978279700,9.33527978515625,0.0002213739207945764,-0.00004803086631000042,-0.00011400296352803707
1772644039988320500,9.345320556640624,-0.00034139060880988836,-0.0006690347800031304,0.0008943256689235568
1772644039998361600,9.355361572265625,0.0007505054236389697,0.00036001059925183654,0.0016109822317957878
1772644040008401400,9.3654013671875,0.0006737750954926014,0.000541069486644119,0.0007716531399637461
1772644040018442500,9.3754423828125,0.00011744076618924737,0.0008744972292333841,-0.0004885545931756496
1772644040028483300,9.3854833984375,-0.0008190596709027886,-0.0002498029498383403,-0.0007888977415859699
1772644040038524400,9.3955244140625,-0.001745040761306882,0.00022210919996723533,-0.00028236466459929943
1772644040048564700,9.405564697265625,0.000185188720934093,-0.000927729532122612,0.00023219361901283264
1772644040058605600,9.41560546875,-0.0005991121870465577,0.00009652215521782637,0.0006178193725645542
1772644040068646700,9.425646728515625,0.0005280569894239306,-0.0006156305316835642,-0.00004377099685370922
1772644040078687700,9.435687744140624,0.001992529258131981,0.0006847910117357969,0.00024225260131061077
1772644040088727800,9.445727783203125,0.0007886156672611833,0.0015416252426803112,0.00003489130176603794
1772644040098768600,9.4557685546875,0.0002764898235909641,0.0001061813673004508,0.0012538202572613955
1772644040108809700,9.465809814453126,0.0002707951935008168,-0.0009377025999128819,-0.0001685689203441143
1772644040118850800,9.475850830078125,-0.00021629693219438195,-0.0005920242983847857,-0.0007440780755132437
1772644040128891600,9.4858916015625,0.00018996355356648564,0.001551015768200159,0.0007153538754209876
1772644040138931700,9.495931640625,-0.0018478874117136002,0.00027962273452430964,-0.00019544712267816067
1772644040148972800,9.505972900390624,0.0008368255221284926,0.001362053444609046,0.001474337768740952
1772644040159013600,9.516013671875,-0.00039728335104882717,0.0014502040576189756,0.0032927440479397774
1772644040169054700,9.5260546875,0.0010114447213709354,0.0010765081970021129,0.001831331755965948
1772644040179094500,9.536094482421875,0.0013187736039981246,-0.0014803926460444927,0.0008821811061352491
1772644040189135600,9.546135498046874,-0.00022531126160174608,0.0007937941700220108,-0.0015985965728759766
1772644040199176700,9.5561767578125,0.0020098797976970673,0.0001647555036470294,-0.0018270956352353096
1772644040209217800,9.5662177734375,0.00037578027695417404,-0.0016910990234464407,-0.0014018628280609846
1772644040219259000,9.5762587890625,-0.0006825599703006446,-0.002923343563452363,-0.00007054861634969711
1772644040229298700,9.586298583984375,-0.0008463547565042973,0.0006898007704876363,0.0004041582578793168
1772644040239339500,9.596339599609376,0.0005981437861919403,-0.00035762053448706865,0.0003666076809167862
