time,seconds_elapsed,z,y,x
1772651324438381600,0.251381591796875,0.001731053227558732,-0.0013315794058144093,0.0023968429304659367
1772651324448380700,0.261380615234375,-0.0009321055840700865,-0.0013315794058144093,0.0007989476434886456
1772651324458379800,0.2713798828125,-0.0009321055840700865,-0.0013315794058144093,0.0013315794058144093
1772651324468379000,0.28137890625,0.0006657897029072046,-0.0007989476434886456,0.0007989476434886456
1772651324478378000,0.2913779296875,0.0006657897029072046,-0.0013315794058144093,0.001864211168140173
1772651324488377300,0.30137744140625,0.00013315794058144093,0.0013315794058144093,-0.001864211168140173
1772651324498376400,0.31137646484375,0.00013315794058144093,0.0007989476434886456,0.00026631588116288185
1772651324508375600,0.32137548828125,0.0011984214652329683,0.00026631588116288185,-0.00026631588116288185
1772651324518374700,0.331374755859375,0.0006657897029072046,0.0013315794058144093,-0.00026631588116288185
1772651324528373800,0.341373779296875,0.00013315794058144093,0.0013315794058144093,-0.0013315794058144093
1772651324538373000,0.351373046875,0.0006657897029072046,-0.003462106455117464,0.0007989476434886456
1772651324548372200,0.361372314453125,-0.0003994738217443228,0.0013315794058144093,0.00026631588116288185
1772651324558371300,0.371371337890625,0.0006657897029072046,-0.0013315794058144093,-0.0007989476434886456
1772651324568370400,0.381370361328125,0.0011984214652329683,0.0007989476434886456,-0.0007989476434886456
1772651324578369500,0.39136962890625,0.0006657897029072046,0.0007989476434886456,0.0007989476434886456
1772651324588368600,0.40136865234375,-0.0014647373463958502,0.0013315794058144093,-0.00026631588116288185
1772651324598367700,0.41136767578125,-0.0009321055840700865,-0.0013315794058144093,-0.0007989476434886456
1772651324608367000,0.4213671875,0.00013315794058144093,-0.0007989476434886456,-0.00026631588116288185
1772651324618366200,0.4313662109375,0.0006657897029072046,0.00026631588116288185,-0.00026631588116288185
1772651324628365300,0.441365234375,0.0011984214652329683,-0.0029294746927917004,0.0007989476434886456
1772651324638364400,0.451364501953125,-0.0009321055840700865,-0.00026631588116288185,0.0007989476434886456
1772651324648363500,0.461363525390625,-0.0003994738217443228,-0.0007989476434886456,0.0007989476434886456
1772651324658362600,0.471362548828125,0.0011984214652329683,0.0007989476434886456,-0.0013315794058144093
1772651324668362000,0.481362060546875,-0.0003994738217443228,-0.0007989476434886456,0.0013315794058144093
1772651324678361000,0.491361083984375,0.00013315794058144093,0.0023968429304659367,-0.0023968429304659367
1772651324688360200,0.501360107421875,-0.0003994738217443228,-0.0007989476434886456,0.0013315794058144093
1772651324698359300,0.511359375,0.0006657897029072046,-0.00026631588116288185,-0.00026631588116288185
1772651324708358400,0.5213583984375,-0.0009321055840700865,-0.00026631588116288185,0.00026631588116288185
1772651324718357500,0.531357421875,-0.0014647373463958502,0.0007989476434886456,-0.0023968429304659367
1772651324728356900,0.54135693359375,0.0006657897029072046,0.0007989476434886456,0.00026631588116288185
1772651324738356000,0.55135595703125,0.0006657897029072046,-0.0013315794058144093,0.0023968429304659367
1772651324748355000,0.56135498046875,-0.0003994738217443228,0.0007989476434886456,0.00026631588116288185
1772651324758356000,0.57135595703125,0.001731053227558732,0.00026631588116288185,0.0023968429304659367
1772651324768358100,0.581358154296875,-0.0014647373463958502,-0.00026631588116288185,0.0013315794058144093
1772651324778360000,0.591360107421875,-0.0003994738217443228,-0.0007989476434886456,-0.00026631588116288185
1772651324788362000,0.601362060546875,0.0006657897029072046,0.00026631588116288185,-0.0013315794058144093
1772651324798364000,0.611364013671875,-0.0003994738217443228,-0.00026631588116288185,0.0013315794058144093
1772651324808365800,0.62136572265625,-0.0003994738217443228,0.00026631588116288185,-0.0007989476434886456
1772651324818367700,0.63136767578125,0.0011984214652329683,-0.0007989476434886456,0.00026631588116288185
1772651324828370000,0.641369873046875,0.0006657897029072046,-0.0013315794058144093,-0.00026631588116288185
1772651324838371800,0.651371826171875,0.00013315794058144093,0.0007989476434886456,0.00026631588116288185
1772651324848373800,0.661373779296875,-0.0003994738217443228,0.00026631588116288185,-0.00026631588116288185
1772651324858375700,0.671375732421875,0.0022636849898844957,0.0007989476434886456,0.00026631588116288185
1772651324868377600,0.681377685546875,0.00013315794058144093,-0.0007989476434886456,-0.00026631588116288185
1772651324878379500,0.691379638671875,0.0006657897029072046,0.00026631588116288185,0.00026631588116288185
1772651324888381700,0.701381591796875,-0.0003994738217443228,-0.00026631588116288185,0.0013315794058144093
1772651324898383600,0.711383544921875,0.0006657897029072046,-0.00026631588116288185,-0.0007989476434886456
1772651324908385500,0.721385498046875,0.0011984214652329683,-0.0007989476434886456,0.00026631588116288185
1772651324918387500,0.731387451171875,0.0006657897029072046,-0.00026631588116288185,-0.00026631588116288185
1772651324928389400,0.741389404296875,0.0022636849898844957,-0.001864211168140173,0.00026631588116288185
1772651324938391300,0.751391357421875,0.00013315794058144093,-0.00026631588116288185,-0.00026631588116288185
1772651324948393500,0.7613935546875,-0.0009321055840700865,-0.0007989476434886456,-0.00026631588116288185
1772651324958395400,0.7713955078125,0.00013315794058144093,-0.0007989476434886456,-0.0007989476434886456
1772651324968397300,0.781397216796875,0.0006657897029072046,0.00026631588116288185,-0.0007989476434886456
1772651324978399200,0.791399169921875,0.00013315794058144093,-0.0007989476434886456,-0.00026631588116288185
1772651324988401200,0.801401123046875,0.00013315794058144093,0.0007989476434886456,0.00026631588116288185
1772651324998403000,0.811403076171875,0.00013315794058144093,0.0007989476434886456,-0.00026631588116288185
1772651325008405200,0.8214052734375,0.0011984214652329683,0.00026631588116288185,0.00026631588116288185
1772651325018407200,0.8314072265625,0.00013315794058144093,0.0023968429304659367,-0.0013315794058144093
1772651325028409000,0.8414091796875,0.001731053227558732,-0.00026631588116288185,0.00026631588116288185
1772651325038411000,0.851410888671875,0.00013315794058144093,-0.0007989476434886456,-0.0007989476434886456
1772651325048413000,0.861412841796875,0.0006657897029072046,0.001864211168140173,-0.0007989476434886456
1772651325058414800,0.871414794921875,0.00013315794058144093,0.0007989476434886456,-0.00026631588116288185
1772651325068417000,0.8814169921875,0.00013315794058144093,0.0007989476434886456,-0.00026631588116288185
1772651325078419000,0.8914189453125,0.00013315794058144093,-0.00026631588116288185,0.001864211168140173
1772651325088420900,0.9014208984375,0.0011984214652329683,-0.0013315794058144093,0.00026631588116288185
1772651325098422800,0.9114228515625,0.00013315794058144093,0.0013315794058144093,-0.0007989476434886456
1772651325108424700,0.9214248046875,-0.0009321055840700865,0.00026631588116288185,-0.00026631588116288185
1772651325118426600,0.931426513671875,0.0005326317623257637,0.0003994738217443228,0.00026631588116288185
1772651325128428800,0.9414287109375,-0.0005326317623257637,-0.001731053227558732,0.0013315794058144093
1772651325138430700,0.9514306640625,0,-0.0006657897029072046,-0.00026631588116288185
1772651325148432600,0.9614326171875,-0.0005326317623257637,-0.00013315794058144093,0.001864211168140173
1772651325158434600,0.9714345703125,-0.0005326317623257637,0.0009321055840700865,-0.0007989476434886456
1772651325168436500,0.9814365234375,-0.0005326317623257637,-0.0022636849898844957,-0.0007989476434886456
1772651325178438400,0.9914384765625,-0.0005326317623257637,0.0009321055840700865,0.00026631588116288185
1772651325188440600,1.001440673828125,0,-0.00013315794058144093,-0.00026631588116288185
1772651325198442500,1.0114423828125,-0.0005326317623257637,0.0009321055840700865,0.0013315794058144093
1772651325208444400,1.0214443359375,-0.0010652635246515274,-0.0011984214652329683,-0.0007989476434886456
1772651325218446300,1.0314462890625,0,0.0003994738217443228,0.00026631588116288185
1772651325228448300,1.0414482421875,-0.0010652635246515274,-0.00013315794058144093,-0.0007989476434886456
1772651325238450200,1.0514501953125,0,0.0003994738217443228,0.00026631588116288185
1772651325248452000,1.0614521484375,-0.0010652635246515274,-0.00013315794058144093,0.0013315794058144093
1772651325258455600,1.07145556640625,0.0005326317623257637,0.0009321055840700865,0.00026631588116288185
1772651325268459500,1.08145947265625,0.0005326317623257637,0.0009321055840700865,-0.0007989476434886456
1772651325278463500,1.09146337890625,-0.001597895286977291,0.0009321055840700865,0.0013315794058144093
1772651325288467500,1.101467529296875,0.0005326317623257637,0.0003994738217443228,0.0007989476434886456
1772651325298471400,1.111471435546875,0,0.0003994738217443228,0.00026631588116288185
1772651325308475400,1.121475341796875,-0.0010652635246515274,-0.0011984214652329683,-0.00026631588116288185
1772651325318479400,1.131479248046875,0.0005326317623257637,-0.0011984214652329683,-0.00026631588116288185
1772651325328483300,1.1414833984375,-0.001597895286977291,0.0014647373463958502,0.00026631588116288185
1772651325338487300,1.1514873046875,-0.001597895286977291,0.0014647373463958502,-0.0007989476434886456
1772651325348491000,1.161490966796875,0.002130527049303055,-0.0022636849898844957,-0.0013315794058144093
1772651325358495000,1.171494873046875,-0.0005326317623257637,-0.00013315794058144093,0.00026631588116288185
1772651325368499000,1.1814990234375,0,-0.00013315794058144093,-0.00026631588116288185
1772651325378503000,1.1915029296875,-0.0010652635246515274,-0.0006657897029072046,-0.00026631588116288185
1772651325388507000,1.2015068359375,0.0010652635246515274,0.0009321055840700865,0.00026631588116288185
1772651325398510800,1.2115107421875,-0.0010652635246515274,-0.00013315794058144093,0.00026631588116288185
1772651325408514800,1.221514892578125,0.001597895286977291,0.0003994738217443228,0.00026631588116288185
1772651325418518800,1.231518798828125,-0.0010652635246515274,-0.00013315794058144093,-0.00026631588116288185
1772651325428522800,1.241522705078125,0,-0.0011984214652329683,-0.00026631588116288185
1772651325438526700,1.251526611328125,-0.0010652635246515274,-0.00013315794058144093,-0.0013315794058144093
1772651325448530700,1.26153076171875,-0.0005326317623257637,0.001997369108721614,-0.0007989476434886456
1772651325458534700,1.27153466796875,0.0005326317623257637,0.0003994738217443228,0.00026631588116288185
1772651325468538600,1.28153857421875,-0.0005326317623257637,-0.00013315794058144093,-0.00026631588116288185
1772651325478542600,1.29154248046875,-0.0005326317623257637,0.0003994738217443228,0.0013315794058144093
1772651325488546600,1.301546630859375,-0.001597895286977291,-0.00013315794058144093,-0.0013315794058144093
1772651325498550300,1.31155029296875,-0.0010652635246515274,0.0003994738217443228,0.00026631588116288185
1772651325508554200,1.32155419921875,-0.0005326317623257637,0.0009321055840700865,0.00026631588116288185
1772651325518558200,1.33155810546875,-0.0005326317623257637,0.0003994738217443228,-0.0013315794058144093
1772651325528562200,1.341562255859375,-0.0005326317623257637,-0.0006657897029072046,0.00026631588116288185
1772651325538566100,1.351566162109375,-0.0005326317623257637,0.0009321055840700865,-0.00026631588116288185
1772651325548570000,1.361570068359375,0.0005326317623257637,-0.00013315794058144093,-0.001864211168140173
1772651325558574000,1.371573974609375,0.0005326317623257637,0.0003994738217443228,0.0007989476434886456
1772651325568578000,1.381578125,0,-0.00013315794058144093,0.0007989476434886456
1772651325578582000,1.39158203125,0,0.0003994738217443228,-0.00026631588116288185
1772651325588586000,1.4015859375,-0.0005326317623257637,0.0009321055840700865,-0.00026631588116288185
1772651325598590000,1.41158984375,0.0005326317623257637,0.0014647373463958502,0.001864211168140173
1772651325608594000,1.421593994140625,-0.0005326317623257637,-0.00013315794058144093,0.0007989476434886456
1772651325618598000,1.431597900390625,0,0.0009321055840700865,0.0013315794058144093
1772651325628601900,1.441601806640625,0,0.0009321055840700865,-0.00026631588116288185
1772651325638605800,1.451605712890625,-0.001597895286977291,-0.0011984214652329683,-0.00026631588116288185
1772651325648609800,1.46160986328125,-0.0010652635246515274,0.0003994738217443228,-0.00026631588116288185
1772651325658613500,1.471613525390625,0.0010652635246515274,-0.00013315794058144093,-0.0007989476434886456
1772651325668617500,1.481617431640625,-0.0010652635246515274,-0.0011984214652329683,-0.001864211168140173
1772651325678621400,1.491621337890625,0.001597895286977291,0.0014647373463958502,0.00026631588116288185
1772651325688625400,1.50162548828125,0.0005326317623257637,-0.00013315794058144093,-0.001864211168140173
1772651325698629400,1.51162939453125,0.0005326317623257637,0.001997369108721614,-0.0007989476434886456
1772651325708633300,1.52163330078125,-0.0005326317623257637,0.0014647373463958502,0.00026631588116288185
1772651325718637300,1.53163720703125,0,0.0009321055840700865,0.00026631588116288185
1772651325728641300,1.541641357421875,0.0005326317623257637,0.0003994738217443228,-0.0007989476434886456
1772651325738645200,1.551645263671875,-0.0005326317623257637,-0.0006657897029072046,0.00026631588116288185
1772651325748649200,1.561649169921875,-0.0005326317623257637,-0.00013315794058144093,0.0013315794058144093
1772651325758653700,1.57165380859375,0.0005326317623257637,0.0009321055840700865,-0.00026631588116288185
1772651325768658200,1.581658203125,-0.0010652635246515274,-0.00013315794058144093,0.001864211168140173
1772651325778663000,1.591662841796875,-0.0005326317623257637,-0.001731053227558732,-0.0007989476434886456
1772651325788667400,1.60166748046875,0,-0.0011984214652329683,-0.00026631588116288185
1772651325798672100,1.611672119140625,-0.0005326317623257637,0.0009321055840700865,0.00026631588116288185
1772651325808676600,1.621676513671875,-0.0010652635246515274,-0.00013315794058144093,0.00026631588116288185
1772651325818681300,1.631681396484375,0.0005326317623257637,-0.0011984214652329683,-0.00026631588116288185
1772651325828685800,1.641685791015625,-0.0005326317623257637,0.0003994738217443228,0.001864211168140173
1772651325838690600,1.651690673828125,0,-0.001731053227558732,-0.00026631588116288185
1772651325848695000,1.661695068359375,-0.0005326317623257637,-0.00013315794058144093,0.0007989476434886456
1772651325858699800,1.67169970703125,-0.0010652635246515274,0.001997369108721614,-0.00026631588116288185
1772651325868704300,1.681704345703125,0.0005326317623257637,0.0014647373463958502,0.00026631588116288185
1772651325878709000,1.691708984375,0.0005326317623257637,-0.0011984214652329683,-0.00026631588116288185
1772651325888713500,1.70171337890625,-0.0010652635246515274,-0.0006657897029072046,-0.00026631588116288185
1772651325898718200,1.71171826171875,-0.0005326317623257637,-0.0006657897029072046,-0.00026631588116288185
1772651325908722700,1.72172265625,0,-0.00013315794058144093,-0.001864211168140173
1772651325918727400,1.7317275390625,-0.0010652635246515274,-0.0011984214652329683,-0.0007989476434886456
1772651325928732000,1.74173193359375,0.0005326317623257637,0.0009321055840700865,-0.0007989476434886456
1772651325938736600,1.751736572265625,0.0005326317623257637,-0.0011984214652329683,0.0007989476434886456
1772651325948741000,1.7617412109375,-0.002130527049303055,-0.0011984214652329683,-0.00026631588116288185
1772651325958745900,1.771745849609375,-0.0010652635246515274,0.0003994738217443228,0.00026631588116288185
1772651325968750300,1.781750244140625,0,-0.0006657897029072046,-0.00026631588116288185
1772651325978755000,1.791755126953125,0.0005326317623257637,0.0003994738217443228,0.00026631588116288185
1772651325988759600,1.801759521484375,0,0.0003994738217443228,-0.0013315794058144093
1772651325998764300,1.811764404296875,0,0.0003994738217443228,0.0007989476434886456
1772651326008768800,1.821768798828125,-0.0005326317623257637,-0.0006657897029072046,-0.00026631588116288185
1772651326018773500,1.8317734375,-0.0010652635246515274,-0.00013315794058144093,-0.0013315794058144093
1772651326028778000,1.841778076171875,0,-0.0011984214652329683,-0.0013315794058144093
1772651326038782700,1.85178271484375,-0.0010652635246515274,-0.0011984214652329683,0.0013315794058144093
1772651326048787200,1.861787109375,0.0005326317623257637,-0.0011984214652329683,0.00026631588116288185
1772651326058792000,1.8717919921875,0.0005326317623257637,-0.0027963167522102594,0.0007989476434886456
1772651326068796400,1.88179638671875,-0.001597895286977291,-0.00013315794058144093,-0.00026631588116288185
1772651326078801200,1.89180126953125,-0.0005326317623257637,0.0009321055840700865,0.00026631588116288185
1772651326088805600,1.9018056640625,-0.0005326317623257637,-0.00013315794058144093,-0.0007989476434886456
1772651326098810400,1.911810302734375,-0.0010652635246515274,-0.00013315794058144093,-0.001864211168140173
1772651326108814800,1.92181494140625,0.0010652635246515274,-0.0011984214652329683,-0.0007989476434886456
1772651326118819600,1.931819580078125,-0.0005326317623257637,0.0009321055840700865,0.00026631588116288185
1772651326128824000,1.941823974609375,0.0005326317623257637,-0.00013315794058144093,0.0007989476434886456
1772651326138828800,1.951828857421875,0,-0.00013315794058144093,-0.00026631588116288185
1772651326148833300,1.961833251953125,0.0005326317623257637,0.0009321055840700865,-0.0007989476434886456
1772651326158838000,1.971838134765625,0,-0.00013315794058144093,0.0007989476434886456
1772651326168842500,1.981842529296875,-0.0010652635246515274,-0.00013315794058144093,0.0007989476434886456
1772651326178847200,1.99184716796875,0,0.003595264395698905,-0.00026631588116288185
1772651326188851700,2.001851806640625,-0.0010652635246515274,-0.0011984214652329683,-0.00026631588116288185
1772651326198856400,2.0118564453125,0.0005326317623257637,-0.0011984214652329683,-0.0007989476434886456
1772651326208861000,2.02186083984375,0.0010652635246515274,-0.0011984214652329683,-0.00026631588116288185
1772651326218865700,2.03186572265625,0,0.0009321055840700865,-0.00026631588116288185
1772651326228870100,2.0418701171875,0,0.0025300008710473776,0.0013315794058144093
1772651326238875000,2.051875,-0.0005326317623257637,0.0009321055840700865,-0.0013315794058144093
1772651326248879400,2.06187939453125,0,-0.0011984214652329683,-0.00026631588116288185
1772651326258883800,2.0718837890625,0.0005326317623257637,-0.0022636849898844957,0.0007989476434886456
1772651326268888000,2.08188818359375,0.0005326317623257637,-0.0006657897029072046,0.00026631588116288185
1772651326278892300,2.091892333984375,-0.001597895286977291,0.0003994738217443228,-0.0013315794058144093
1772651326288896500,2.101896484375,-0.0010652635246515274,-0.0006657897029072046,-0.00026631588116288185
1772651326298900500,2.111900390625,-0.0005326317623257637,0.0009321055840700865,0.0007989476434886456
1772651326308904700,2.12190478515625,0.0005326317623257637,0.0025300008710473776,-0.00026631588116288185
1772651326318909000,2.131908935546875,0,-0.0006657897029072046,0.0007989476434886456
1772651326328913200,2.1419130859375,0,0.0014647373463958502,-0.00026631588116288185
1772651326338917400,2.15191748046875,-0.0010652635246515274,0.0009321055840700865,-0.0007989476434886456
1772651326348921600,2.161921630859375,-0.0005326317623257637,0.0003994738217443228,0.00026631588116288185
1772651326358925800,2.17192578125,0.0005326317623257637,-0.001731053227558732,-0.0007989476434886456
1772651326368930000,2.181929931640625,0.001597895286977291,-0.0011984214652329683,-0.00026631588116288185
1772651326378934300,2.191934326171875,-0.0005326317623257637,-0.001731053227558732,0.0007989476434886456
1772651326388938500,2.2019384765625,0.0010652635246515274,-0.0011984214652329683,-0.00026631588116288185
1772651326398942500,2.2119423828125,-0.0005326317623257637,0.0003994738217443228,0.00026631588116288185
1772651326408946700,2.22194677734375,0,0.0003994738217443228,-0.0007989476434886456
1772651326418951000,2.231950927734375,-0.001597895286977291,-0.0011984214652329683,0.0007989476434886456
1772651326428955100,2.241955078125,0,-0.0006657897029072046,-0.0013315794058144093
1772651326438959400,2.25195947265625,0.0005326317623257637,-0.0006657897029072046,0.0007989476434886456
1772651326448963600,2.261963623046875,0,-0.0006657897029072046,0.00026631588116288185
1772651326458967800,2.2719677734375,0.002130527049303055,-0.0011984214652329683,0.00026631588116288185
1772651326468972000,2.281971923828125,-0.001597895286977291,-0.00013315794058144093,-0.00026631588116288185
1772651326478976300,2.291976318359375,-0.001597895286977291,0.0009321055840700865,0.0007989476434886456
1772651326488980200,2.301980224609375,-0.0005326317623257637,-0.001731053227558732,0.0007989476434886456
1772651326498984400,2.311984375,0.001597895286977291,0.0014647373463958502,0.00026631588116288185
1772651326508988700,2.32198876953125,0,0.001997369108721614,-0.00026631588116288185
1772651326518993000,2.331992919921875,0.0010652635246515274,0.0014647373463958502,-0.00026631588116288185
1772651326528997000,2.3419970703125,0,-0.0006657897029072046,0.00026631588116288185
1772651326539001300,2.35200146484375,-0.0010652635246515274,-0.00013315794058144093,-0.0013315794058144093
1772651326549005600,2.362005615234375,0,-0.00013315794058144093,0.00026631588116288185
1772651326559009800,2.372009765625,0.0010652635246515274,0.0003994738217443228,-0.0007989476434886456
1772651326569014000,2.382013916015625,0.0005326317623257637,0.0003994738217443228,-0.0007989476434886456
1772651326579018000,2.39201806640625,0.0005326317623257637,-0.0011984214652329683,-0.00026631588116288185
1772651326589022200,2.402022216796875,-0.0010652635246515274,-0.0011984214652329683,0.0007989476434886456
1772651326599026400,2.4120263671875,-0.0005326317623257637,-0.00013315794058144093,0.00026631588116288185
1772651326609030700,2.42203076171875,-0.001597895286977291,0.0025300008710473776,0.0007989476434886456
1772651326619035000,2.432034912109375,0,0.0003994738217443228,0.00026631588116288185
1772651326629039000,2.4420390625,-0.0005326317623257637,0.0009321055840700865,-0.0013315794058144093
1772651326639043300,2.452043212890625,-0.0005326317623257637,-0.0006657897029072046,-0.0013315794058144093
1772651326649047600,2.462047607421875,0,0.0003994738217443228,-0.00026631588116288185
1772651326659051800,2.4720517578125,0,-0.00013315794058144093,-0.0007989476434886456
1772651326669055700,2.4820556640625,-0.0010652635246515274,0.0014647373463958502,-0.00026631588116288185
1772651326679060000,2.49206005859375,-0.0005326317623257637,0.0009321055840700865,-0.0007989476434886456
1772651326689064200,2.502064208984375,0,0.0009321055840700865,-0.00026631588116288185
1772651326699068400,2.512068359375,0,0.0009321055840700865,0.0007989476434886456
1772651326709072600,2.52207275390625,-0.0010652635246515274,-0.0011984214652329683,-0.0013315794058144093
1772651326719076900,2.532076904296875,-0.001597895286977291,0.0003994738217443228,0.0007989476434886456
1772651326729081000,2.5420810546875,0,-0.00013315794058144093,0.0013315794058144093
1772651326739085300,2.552085205078125,-0.0005326317623257637,-0.0006657897029072046,-0.0007989476434886456
1772651326749089500,2.562089599609375,0,-0.001731053227558732,0.0007989476434886456
1772651326759092700,2.5720927734375,0,0.0003994738217443228,-0.0007989476434886456
1772651326769096000,2.582095947265625,-0.0010652635246515274,-0.00013315794058144093,0.0007989476434886456
1772651326779099100,2.59209912109375,0.0005326317623257637,0.0009321055840700865,0.0013315794058144093
1772651326789102300,2.602102294921875,-0.0005326317623257637,0.0009321055840700865,-0.00026631588116288185
1772651326799105300,2.612105224609375,0.0005326317623257637,-0.0006657897029072046,0.00026631588116288185
1772651326809108500,2.6221083984375,-0.0005326317623257637,0.0003994738217443228,-0.0007989476434886456
1772651326819111400,2.632111328125,0.0005326317623257637,0.0003994738217443228,-0.0007989476434886456
1772651326829114600,2.642114501953125,-0.0010652635246515274,0.0009321055840700865,0.0013315794058144093
1772651326839117800,2.652117919921875,0,-0.0006657897029072046,0.00026631588116288185
1772651326849121000,2.66212109375,0.003195790573954582,0.0009321055840700865,0.0013315794058144093
1772651326859124000,2.6721240234375,0.0010652635246515274,-0.001731053227558732,0.00026631588116288185
1772651326869127200,2.682127197265625,0.0005326317623257637,0.0003994738217443228,-0.00026631588116288185
1772651326879130400,2.69213037109375,0.00013315794058144093,-0.0006657897029072046,-0.0013315794058144093
1772651326889133300,2.70213330078125,0.0011984214652329683,-0.0006657897029072046,0.00026631588116288185
1772651326899136500,2.712136474609375,-0.0003994738217443228,-0.00013315794058144093,0.00026631588116288185
1772651326909139700,2.7221396484375,0.0006657897029072046,0.0003994738217443228,-0.0013315794058144093
1772651326919143000,2.732142822265625,0.00013315794058144093,0.0003994738217443228,-0.00026631588116288185
1772651326929145900,2.742145751953125,0.00013315794058144093,0.0014647373463958502,0.00026631588116288185
1772651326939149000,2.752149169921875,0.0006657897029072046,-0.0006657897029072046,0.0007989476434886456
1772651326949152300,2.76215234375,0.00013315794058144093,0.0009321055840700865,-0.00026631588116288185
1772651326959155200,2.7721552734375,-0.0003994738217443228,-0.0006657897029072046,0.0007989476434886456
1772651326969158400,2.782158447265625,0.00013315794058144093,-0.0006657897029072046,0.00026631588116288185
1772651326979161600,2.79216162109375,0.00013315794058144093,-0.0011984214652329683,0.00026631588116288185
1772651326989164500,2.80216455078125,0.0011984214652329683,0.0003994738217443228,-0.001864211168140173
1772651326999167700,2.812167724609375,0.0006657897029072046,0.0003994738217443228,-0.00026631588116288185
1772651327009171000,2.8221708984375,-0.0003994738217443228,-0.0006657897029072046,-0.001864211168140173
1772651327019174000,2.832173828125,-0.0003994738217443228,-0.0022636849898844957,-0.00026631588116288185
1772651327029177000,2.842177001953125,-0.0003994738217443228,-0.0006657897029072046,-0.0013315794058144093
1772651327039180300,2.85218017578125,0.0006657897029072046,-0.0011984214652329683,-0.00026631588116288185
1772651327049183500,2.86218359375,-0.001997369108721614,-0.00013315794058144093,-0.0007989476434886456
1772651327059186400,2.8721865234375,0.00013315794058144093,0.001997369108721614,0.001864211168140173
1772651327069189600,2.882189697265625,0.0006657897029072046,-0.00013315794058144093,-0.0007989476434886456
1772651327089195800,2.90219580078125,-0.0003994738217443228,-0.0006657897029072046,-0.001864211168140173
1772651327099199000,2.912198974609375,-0.0003994738217443228,0.0003994738217443228,-0.0007989476434886456
1772651327109202200,2.9222021484375,0.00013315794058144093,0.0014647373463958502,-0.0007989476434886456
1772651327119205000,2.932205078125,0.00013315794058144093,-0.0011984214652329683,0.0007989476434886456
1772651327129208300,2.942208251953125,0.0006657897029072046,0.0009321055840700865,0.00026631588116288185
1772651327139211500,2.95221142578125,-0.0009321055840700865,-0.0006657897029072046,-0.00026631588116288185
1772651327149214500,2.96221435546875,-0.0009321055840700865,-0.0011984214652329683,0.0013315794058144093
1772651327159217700,2.9722177734375,0.0011984214652329683,0.0014647373463958502,0.0007989476434886456
1772651327169220900,2.982220947265625,-0.0009321055840700865,0.0003994738217443228,-0.00026631588116288185
1772651327179224000,2.99222412109375,0.00013315794058144093,0.0009321055840700865,-0.0007989476434886456
1772651327189227000,3.00222705078125,0.00013315794058144093,-0.0011984214652329683,-0.0007989476434886456
1772651327199230200,3.012230224609375,0.0011984214652329683,-0.0006657897029072046,0.001864211168140173
1772651327209233400,3.0222333984375,0.00013315794058144093,0.0014647373463958502,-0.00026631588116288185
1772651327219236400,3.032236328125,-0.0003994738217443228,-0.00013315794058144093,0.00026631588116288185
1772651327229239600,3.042239501953125,-0.0014647373463958502,-0.00013315794058144093,-0.0007989476434886456
1772651327239242800,3.05224267578125,0.00013315794058144093,0.0003994738217443228,-0.00026631588116288185
1772651327249245700,3.06224560546875,0.0011984214652329683,0.0003994738217443228,-0.00026631588116288185
1772651327259249200,3.072249267578125,-0.0003994738217443228,-0.00013315794058144093,0.0013315794058144093
1772651327269252400,3.08225244140625,0.001731053227558732,-0.00013315794058144093,0.0013315794058144093
1772651327279255600,3.092255615234375,-0.0025300008710473776,-0.00013315794058144093,-0.0007989476434886456
1772651327289258800,3.1022587890625,0.0006657897029072046,0.0014647373463958502,-0.00026631588116288185
1772651327299262000,3.112261962890625,0.00013315794058144093,0.0003994738217443228,0.0013315794058144093
1772651327309265400,3.122265380859375,-0.001997369108721614,-0.0011984214652329683,-0.0013315794058144093
1772651327319268600,3.1322685546875,-0.0003994738217443228,0.0003994738217443228,0.0029294746927917004
1772651327329271800,3.142271728515625,-0.0014647373463958502,-0.00013315794058144093,0.00026631588116288185
1772651327339275000,3.15227490234375,-0.0025300008710473776,-0.0006657897029072046,0.0007989476434886456
1772651327349278200,3.1622783203125,-0.0014647373463958502,0.0014647373463958502,-0.0013315794058144093
1772651327359281700,3.17228173828125,-0.0003994738217443228,-0.001731053227558732,-0.0007989476434886456
1772651327369284900,3.182284912109375,0.00013315794058144093,-0.0006657897029072046,-0.0007989476434886456
1772651327379288000,3.1922880859375,-0.0003994738217443228,0.0009321055840700865,-0.0013315794058144093
1772651327389291300,3.202291259765625,0.0006657897029072046,0.0003994738217443228,0.00026631588116288185
1772651327399294500,3.21229443359375,0.0006657897029072046,-0.0011984214652329683,0.0007989476434886456
1772651327409298000,3.2222978515625,0.0011984214652329683,-0.00013315794058144093,0.00026631588116288185
1772651327419301000,3.232301025390625,-0.0003994738217443228,0.0003994738217443228,0.0013315794058144093
1772651327429304300,3.24230419921875,0.00013315794058144093,0.0003994738217443228,0.00026631588116288185
1772651327439307500,3.2523076171875,0.0006657897029072046,-0.00013315794058144093,0.00026631588116288185
1772651327449310700,3.262310791015625,0.00013315794058144093,0.0003994738217443228,0.00026631588116288185
1772651327459314200,3.272314208984375,-0.0003994738217443228,-0.00013315794058144093,-0.0013315794058144093
1772651327469317400,3.2823173828125,0.00013315794058144093,-0.00013315794058144093,-0.00026631588116288185
1772651327479320600,3.292320556640625,-0.0003994738217443228,0.0003994738217443228,-0.0007989476434886456
1772651327489323800,3.30232373046875,0.001731053227558732,0.0003994738217443228,-0.00026631588116288185
1772651327499327200,3.3123271484375,0.0011984214652329683,-0.00013315794058144093,0.0013315794058144093
1772651327509330400,3.322330322265625,0.00013315794058144093,-0.0006657897029072046,-0.00026631588116288185
1772651327519333600,3.332333740234375,0.0011984214652329683,-0.001731053227558732,0.0007989476434886456
1772651327529336800,3.3423369140625,0.0011984214652329683,-0.0006657897029072046,-0.0007989476434886456
1772651327539340000,3.352340087890625,0.0011984214652329683,0.0009321055840700865,0.00026631588116288185
1772651327549343500,3.362343505859375,0.0011984214652329683,0.001997369108721614,0.0013315794058144093
1772651327559346700,3.3723466796875,0.0006657897029072046,0.0003994738217443228,-0.0007989476434886456
1772651327569350000,3.382349853515625,0.0011984214652329683,0.0003994738217443228,-0.00026631588116288185
1772651327579353000,3.39235302734375,0.0006657897029072046,-0.0006657897029072046,-0.00026631588116288185
1772651327589356300,3.402356201171875,0.00013315794058144093,0.0003994738217443228,0.0013315794058144093
1772651327599359700,3.41235986328125,0.00013315794058144093,-0.001731053227558732,0.0007989476434886456
1772651327609363000,3.422363037109375,0.00013315794058144093,0.0009321055840700865,-0.0007989476434886456
1772651327619366100,3.4323662109375,0.0006657897029072046,-0.0022636849898844957,-0.00026631588116288185
1772651327629369300,3.442369384765625,0.0011984214652329683,0.0003994738217443228,-0.00026631588116288185
1772651327639372500,3.45237255859375,0.0006657897029072046,-0.00013315794058144093,0.0007989476434886456
1772651327649375700,3.462375732421875,0.00013315794058144093,-0.0006657897029072046,0.0007989476434886456
1772651327659379200,3.472379150390625,-0.0009321055840700865,-0.00013315794058144093,0.0007989476434886456
1772651327669382400,3.48238232421875,-0.0003994738217443228,0.0014647373463958502,0.0007989476434886456
1772651327679385600,3.492385498046875,0.0006657897029072046,0.0014647373463958502,-0.001864211168140173
1772651327689388800,3.502388916015625,-0.0009321055840700865,-0.0006657897029072046,0.0007989476434886456
1772651327709395500,3.5223955078125,0.00013315794058144093,-0.0006657897029072046,0.00026631588116288185
1772651327719398700,3.532398681640625,0.00013315794058144093,0.0009321055840700865,-0.0007989476434886456
1772651327729401900,3.54240185546875,-0.0003994738217443228,-0.0006657897029072046,0.0007989476434886456
1772651327739405300,3.5524052734375,0.00013315794058144093,-0.0022636849898844957,0.0029294746927917004
1772651327749408500,3.562408447265625,0.00013315794058144093,-0.00013315794058144093,-0.0007989476434886456
1772651327759411200,3.5724111328125,0.0006657897029072046,-0.0022636849898844957,-0.00026631588116288185
1772651327769414000,3.582413818359375,0.00013315794058144093,0.0009321055840700865,0.00026631588116288185
1772651327779416600,3.59241650390625,-0.0003994738217443228,0.001997369108721614,-0.0007989476434886456
1772651327789419500,3.60241943359375,0.0006657897029072046,-0.00013315794058144093,-0.001864211168140173
1772651327799422200,3.612422119140625,0.0006657897029072046,0.0009321055840700865,0.00026631588116288185
1772651327809425000,3.6224248046875,-0.0009321055840700865,-0.001731053227558732,-0.0013315794058144093
1772651327819427600,3.632427490234375,0.0011984214652329683,-0.0006657897029072046,-0.0007989476434886456
1772651327829430300,3.64243017578125,-0.0009321055840700865,0.0003994738217443228,-0.00026631588116288185
1772651327839433200,3.65243310546875,0.00013315794058144093,-0.0011984214652329683,-0.0007989476434886456
1772651327849436000,3.662435791015625,0.00013315794058144093,0.0003994738217443228,-0.00026631588116288185
1772651327859438600,3.6724384765625,-0.0003994738217443228,0.001997369108721614,0.0007989476434886456
1772651327869441300,3.682441162109375,0.00013315794058144093,-0.0011984214652329683,0.00026631588116288185
1772651327879444200,3.6924443359375,-0.0003994738217443228,-0.0022636849898844957,-0.00026631588116288185
1772651327889447000,3.702447021484375,0.0006657897029072046,-0.001731053227558732,-0.0013315794058144093
1772651327899449600,3.71244970703125,0.0022636849898844957,0.0009321055840700865,-0.0007989476434886456
1772651327909452300,3.722452392578125,0.0006657897029072046,0.0009321055840700865,0.0007989476434886456
1772651327919455000,3.732455078125,-0.0003994738217443228,0.001997369108721614,0.00026631588116288185
1772651327929457700,3.742457763671875,-0.0009321055840700865,-0.00013315794058144093,0.0007989476434886456
1772651327939460600,3.752460693359375,-0.0009321055840700865,-0.0011984214652329683,-0.0007989476434886456
1772651327949463300,3.76246337890625,-0.0009321055840700865,-0.0006657897029072046,0.00026631588116288185
1772651327959466000,3.772466064453125,-0.0003994738217443228,-0.0022636849898844957,0.0007989476434886456
1772651327969468700,3.78246875,-0.0003994738217443228,0.0003994738217443228,-0.00026631588116288185
1772651327979471400,3.792471435546875,0.0006657897029072046,0.0009321055840700865,-0.0013315794058144093
1772651327989474300,3.802474365234375,-0.0003994738217443228,-0.0011984214652329683,0.001864211168140173
1772651327999477000,3.81247705078125,0.0011984214652329683,-0.00013315794058144093,-0.00026631588116288185
1772651328009479700,3.822479736328125,0.00013315794058144093,-0.0011984214652329683,-0.0013315794058144093
1772651328019482400,3.832482421875,-0.0030626326333731413,-0.00013315794058144093,-0.001864211168140173
1772651328029485000,3.842485107421875,-0.0009321055840700865,0.0003994738217443228,0.00026631588116288185
1772651328039487700,3.85248779296875,-0.0003994738217443228,-0.00013315794058144093,0.00026631588116288185
1772651328049490700,3.86249072265625,0.0011984214652329683,-0.001731053227558732,-0.00026631588116288185
1772651328059493400,3.872493408203125,-0.0003994738217443228,0.0014647373463958502,0.00026631588116288185
1772651328069496000,3.88249609375,0.001731053227558732,-0.0006657897029072046,-0.00026631588116288185
1772651328079498800,3.892498779296875,-0.0009321055840700865,-0.0011984214652329683,0.0029294746927917004
1772651328089501400,3.90250146484375,0.00013315794058144093,0.0003994738217443228,-0.00026631588116288185
1772651328099504400,3.91250439453125,0.00013315794058144093,0.0025300008710473776,-0.0013315794058144093
1772651328109507000,3.922507080078125,-0.0014647373463958502,-0.0011984214652329683,-0.0013315794058144093
1772651328119509800,3.932509765625,-0.0009321055840700865,0.0025300008710473776,-0.00026631588116288185
1772651328129512400,3.942512451171875,0.00013315794058144093,-0.0006657897029072046,0.0007989476434886456
1772651328139515100,3.95251513671875,0.0006657897029072046,0.0009321055840700865,0.00026631588116288185
1772651328149517800,3.962517822265625,-0.0003994738217443228,-0.0027963167522102594,-0.00026631588116288185
1772651328159520800,3.972520751953125,0.0006657897029072046,-0.0006657897029072046,0.0013315794058144093
1772651328169523500,3.9825234375,0.00013315794058144093,0.0003994738217443228,0.00026631588116288185
1772651328179526100,3.992526123046875,0.00013315794058144093,0.0009321055840700865,0.0013315794058144093
1772651328189528800,4.00252880859375,-0.0003994738217443228,-0.001731053227558732,-0.00026631588116288185
1772651328199531800,4.01253173828125,0.0011984214652329683,-0.0011984214652329683,-0.0007989476434886456
1772651328209534500,4.022534423828125,0.00013315794058144093,0.0003994738217443228,-0.0013315794058144093
1772651328219537200,4.032537109375,-0.0009321055840700865,0.0003994738217443228,0.0007989476434886456
1772651328229539800,4.042539794921875,0.00013315794058144093,-0.0022636849898844957,0.0007989476434886456
1772651328239542500,4.05254248046875,-0.0009321055840700865,-0.0006657897029072046,-0.0013315794058144093
1772651328249545500,4.06254541015625,0.00013315794058144093,-0.00013315794058144093,0.0007989476434886456
1772651328259548000,4.0725478515625,0.0006657897029072046,-0.00013315794058144093,0.0007989476434886456
1772651328269550600,4.082550537109375,-0.0009321055840700865,-0.00013315794058144093,-0.0007989476434886456
1772651328279553300,4.09255322265625,0.0006657897029072046,0.0014647373463958502,-0.00026631588116288185
1772651328289556000,4.102555908203125,-0.0009321055840700865,-0.001731053227558732,0.00026631588116288185
1772651328309561300,4.122561279296875,0.0006657897029072046,-0.0006657897029072046,0.0007989476434886456
1772651328319563800,4.132563720703125,-0.0003994738217443228,-0.0006657897029072046,0.00026631588116288185
1772651328329566500,4.14256640625,-0.001997369108721614,0.0014647373463958502,0.00026631588116288185
1772651328339569200,4.152569091796875,0.001731053227558732,-0.00013315794058144093,-0.0007989476434886456
1772651328349571800,4.16257177734375,0.00013315794058144093,-0.00013315794058144093,-0.00026631588116288185
1772651328359574500,4.172574462890625,-0.0003994738217443228,-0.00013315794058144093,-0.00026631588116288185
1772651328369577200,4.1825771484375,0.00013315794058144093,0.0009321055840700865,0.00026631588116288185
1772651328379579600,4.19257958984375,-0.0014647373463958502,0.0003994738217443228,0.0007989476434886456
1772651328389582300,4.202582275390625,-0.0003994738217443228,-0.0006657897029072046,0.00026631588116288185
1772651328409587700,4.222587646484375,-0.0009321055840700865,0.0003994738217443228,0.0007989476434886456
1772651328419590400,4.23259033203125,0.00013315794058144093,-0.00013315794058144093,-0.00026631588116288185
1772651328429593000,4.242593017578125,0.00013315794058144093,0.0003994738217443228,0.0007989476434886456
1772651328439595800,4.252595703125,0.00013315794058144093,0.0009321055840700865,0.00026631588116288185
1772651328449598500,4.262598388671875,-0.0014647373463958502,-0.0006657897029072046,0.00026631588116288185
1772651328459601000,4.272600830078125,-0.001997369108721614,0.0003994738217443228,-0.00026631588116288185
1772651328469603600,4.282603515625,0.0006657897029072046,0.0009321055840700865,0.0007989476434886456
1772651328479606300,4.292606201171875,0.0006657897029072046,0.0009321055840700865,-0.0007989476434886456
1772651328489609000,4.30260888671875,0.00013315794058144093,-0.001731053227558732,0.0007989476434886456
1772651328499611600,4.312611572265625,-0.0003994738217443228,-0.001731053227558732,0.0007989476434886456
1772651328509614300,4.3226142578125,-0.0003994738217443228,-0.00013315794058144093,0.00026631588116288185
1772651328519617000,4.332616943359375,0.00013315794058144093,-0.00013315794058144093,-0.0007989476434886456
1772651328529619500,4.342619384765625,-0.0003994738217443228,-0.0011984214652329683,-0.0007989476434886456
1772651328539622100,4.3526220703125,-0.0003994738217443228,0.0009321055840700865,0.0007989476434886456
1772651328549624800,4.362624755859375,0.0011984214652329683,-0.00013315794058144093,0.0013315794058144093
1772651328559627500,4.37262744140625,-0.0003994738217443228,0.0009321055840700865,0.0007989476434886456
1772651328569630200,4.382630126953125,-0.0009321055840700865,0.0003994738217443228,0.0007989476434886456
1772651328579633000,4.3926328125,0.0006657897029072046,-0.00013315794058144093,-0.0007989476434886456
1772651328589635300,4.40263525390625,-0.0003994738217443228,-0.0006657897029072046,-0.0007989476434886456
1772651328599638000,4.412637939453125,-0.0003994738217443228,0.0009321055840700865,0.0013315794058144093
1772651328609640700,4.422640625,-0.0003994738217443228,-0.0006657897029072046,0.00026631588116288185
1772651328619643400,4.432643310546875,-0.0003994738217443228,0.0003994738217443228,0.00026631588116288185
1772651328629646000,4.44264599609375,0.00013315794058144093,0.0010652635246515274,0.0007989476434886456
1772651328639648800,4.452648681640625,-0.0003994738217443228,0.0005326317623257637,0.0013315794058144093
1772651328649651500,4.4626513671875,0.00013315794058144093,0.0005326317623257637,-0.0007989476434886456
1772651328659654100,4.472654052734375,-0.0009321055840700865,-0.0005326317623257637,0.0007989476434886456
1772651328669656600,4.482656494140625,0.0006657897029072046,0.0005326317623257637,-0.0007989476434886456
1772651328679659300,4.4926591796875,0.00013315794058144093,0.001597895286977291,0.00026631588116288185
1772651328689662000,4.502661865234375,0.0011984214652329683,0.0005326317623257637,-0.00026631588116288185
1772651328699664600,4.51266455078125,0.00013315794058144093,-0.0005326317623257637,0.0007989476434886456
1772651328709667300,4.522667236328125,0.00013315794058144093,0.001597895286977291,-0.00026631588116288185
1772651328719670000,4.532669921875,-0.0003994738217443228,0,0.00026631588116288185
1772651328729672700,4.542672607421875,-0.0009321055840700865,0.001597895286977291,0.0007989476434886456
1772651328739675100,4.552675048828125,0.00013315794058144093,0.0010652635246515274,-0.0007989476434886456
1772651328749677800,4.562677734375,0.00013315794058144093,0.0010652635246515274,0.00026631588116288185
1772651328759681000,4.572680908203125,0.00013315794058144093,0.0010652635246515274,0.0013315794058144093
1772651328769684500,4.5826845703125,0.00013315794058144093,-0.0005326317623257637,0.00026631588116288185
1772651328779687700,4.592687744140625,-0.0009321055840700865,0.0005326317623257637,-0.00026631588116288185
1772651328789691100,4.602691162109375,-0.0003994738217443228,0.002130527049303055,0.0007989476434886456
1772651328809697500,4.622697509765625,0.0006657897029072046,-0.0005326317623257637,0.00026631588116288185
1772651328829704200,4.6427041015625,0.00013315794058144093,0.001597895286977291,0.00026631588116288185
1772651328839707600,4.652707763671875,0.0006657897029072046,-0.0010652635246515274,0.00026631588116288185
1772651328849710800,4.6627109375,-0.001997369108721614,-0.0005326317623257637,-0.0013315794058144093
1772651328859714300,4.67271435546875,0.0006657897029072046,-0.0005326317623257637,0.00026631588116288185
1772651328869717500,4.682717529296875,-0.0003994738217443228,0,-0.00026631588116288185
1772651328879721000,4.692720947265625,-0.0003994738217443228,-0.0010652635246515274,0.00026631588116288185
1772651328889724200,4.70272412109375,0.001731053227558732,0.002130527049303055,0.00026631588116288185
1772651328899727600,4.7127275390625,-0.0003994738217443228,0.0005326317623257637,-0.00026631588116288185
1772651328909730800,4.722730712890625,0.0006657897029072046,0,-0.0007989476434886456
1772651328919734300,4.732734375,-0.0014647373463958502,0,-0.0007989476434886456
1772651328929737500,4.742737548828125,0.00013315794058144093,-0.0010652635246515274,0.0007989476434886456
1772651328939741000,4.752740966796875,0.0006657897029072046,0,-0.0007989476434886456
1772651328949744000,4.762744140625,0.00013315794058144093,0.0005326317623257637,0.00026631588116288185
1772651328959747600,4.77274755859375,0.00013315794058144093,0.002130527049303055,-0.0007989476434886456
1772651328969750800,4.782750732421875,0.00013315794058144093,0.0005326317623257637,-0.0007989476434886456
1772651328979754000,4.79275390625,0.0006657897029072046,0.002130527049303055,0.00026631588116288185
1772651328989757400,4.80275732421875,0.00013315794058144093,0.0010652635246515274,-0.0013315794058144093
1772651328999760600,4.8127607421875,0.00013315794058144093,0.0010652635246515274,0.00026631588116288185
1772651329009764000,4.82276416015625,-0.0009321055840700865,0,0.0007989476434886456
1772651329019767300,4.832767333984375,0.00013315794058144093,0,0.00026631588116288185
1772651329029770800,4.842770751953125,-0.0003994738217443228,0.001597895286977291,0.0007989476434886456
1772651329039774000,4.85277392578125,-0.0003994738217443228,0.0005326317623257637,-0.0013315794058144093
1772651329049777400,4.86277734375,-0.0003994738217443228,-0.0010652635246515274,-0.0007989476434886456
1772651329059780600,4.872780517578125,-0.0003994738217443228,-0.001597895286977291,0.0013315794058144093
1772651329069784000,4.8827841796875,-0.0003994738217443228,-0.0010652635246515274,-0.00026631588116288185
1772651329079787300,4.892787353515625,0.00013315794058144093,0.0005326317623257637,-0.0013315794058144093
1772651329089790700,4.902790771484375,-0.0003994738217443228,-0.0005326317623257637,-0.00026631588116288185
1772651329099794000,4.9127939453125,-0.0009321055840700865,0.0010652635246515274,-0.0007989476434886456
1772651329109797400,4.92279736328125,-0.0003994738217443228,0,-0.00026631588116288185
1772651329119800600,4.932800537109375,0.00013315794058144093,0.0005326317623257637,0.00026631588116288185
1772651329129804000,4.942803955078125,0.00013315794058144093,0.0005326317623257637,-0.00026631588116288185
1772651329139807200,4.95280712890625,0.00013315794058144093,0,-0.0007989476434886456
1772651329149810400,4.962810546875,-0.0009321055840700865,0,-0.001864211168140173
1772651329159814000,4.97281396484375,0.00013315794058144093,0,-0.0013315794058144093
1772651329169817300,4.9828173828125,0.00013315794058144093,0,0.00026631588116288185
1772651329179820500,4.992820556640625,0.0006657897029072046,0.001597895286977291,-0.0007989476434886456
1772651329189823700,5.00282373046875,0.0011984214652329683,-0.0005326317623257637,0.00026631588116288185
1772651329199827200,5.0128271484375,-0.0003994738217443228,0.0010652635246515274,0.0007989476434886456
1772651329209830400,5.022830322265625,0.00013315794058144093,0.0005326317623257637,-0.0007989476434886456
1772651329219833900,5.032833740234375,0.0011984214652329683,0.0005326317623257637,0.00026631588116288185
1772651329229837000,5.042837158203125,-0.0003994738217443228,0.0010652635246515274,0.00026631588116288185
1772651329239840500,5.052840576171875,0.00013315794058144093,0,-0.00026631588116288185
1772651329249843700,5.06284375,0.00013315794058144093,-0.0005326317623257637,-0.0029294746927917004
1772651329259847400,5.072847412109375,0.001731053227558732,-0.0005326317623257637,0.0007989476434886456
1772651329269851100,5.08285107421875,-0.0009321055840700865,-0.0005326317623257637,0.0013315794058144093
1772651329279854800,5.092854736328125,-0.0014647373463958502,-0.0005326317623257637,0.0007989476434886456
1772651329289858600,5.102858642578125,-0.0009321055840700865,0,0.00026631588116288185
1772651329299862300,5.1128623046875,-0.0009321055840700865,0,0.0007989476434886456
1772651329309866200,5.1228662109375,-0.0003994738217443228,0.0010652635246515274,0.00026631588116288185
1772651329319870000,5.132869873046875,-0.0003994738217443228,0.0005326317623257637,0.0013315794058144093
1772651329329873700,5.142873779296875,-0.0003994738217443228,0.0005326317623257637,-0.0007989476434886456
1772651329339877400,5.15287744140625,-0.0003994738217443228,0.0005326317623257637,0.0007989476434886456
1772651329349881000,5.162881103515625,0.0006657897029072046,-0.001597895286977291,0.00026631588116288185
1772651329359884800,5.172884765625,0.0006657897029072046,0.0010652635246515274,0.0013315794058144093
1772651329369888500,5.182888427734375,0.0006657897029072046,-0.002130527049303055,0.0007989476434886456
1772651329379892200,5.192892333984375,0.0011984214652329683,0,0.0007989476434886456
1772651329389896000,5.20289599609375,0.00013315794058144093,-0.0005326317623257637,-0.0007989476434886456
1772651329399899600,5.212899658203125,-0.0009321055840700865,0.001597895286977291,-0.00026631588116288185
1772651329409903600,5.222903564453125,0.0011984214652329683,-0.0005326317623257637,-0.00026631588116288185
1772651329419907300,5.2329072265625,-0.0009321055840700865,-0.0010652635246515274,0.00026631588116288185
1772651329429911000,5.2429111328125,0.0006657897029072046,0.0005326317623257637,0.0007989476434886456
1772651329439914800,5.252914794921875,-0.0009321055840700865,0.0005326317623257637,-0.00026631588116288185
1772651329449918500,5.26291845703125,-0.0003994738217443228,-0.0010652635246515274,0.00026631588116288185
1772651329459922200,5.272922119140625,-0.0009321055840700865,0.0005326317623257637,-0.0013315794058144093
1772651329469926000,5.28292578125,-0.0003994738217443228,0.001597895286977291,0.00026631588116288185
1772651329479929600,5.2929296875,0.00013315794058144093,0.002130527049303055,-0.0007989476434886456
1772651329489933300,5.302933349609375,0.00013315794058144093,0.0010652635246515274,-0.00026631588116288185
1772651329499937300,5.312937255859375,-0.0003994738217443228,0.001597895286977291,-0.00026631588116288185
1772651329509941000,5.32294091796875,-0.0003994738217443228,0.0005326317623257637,0.0013315794058144093
1772651329519944700,5.33294482421875,0.0006657897029072046,-0.001597895286977291,-0.00026631588116288185
1772651329529948400,5.342948486328125,0.0006657897029072046,-0.0010652635246515274,-0.0013315794058144093
1772651329539952000,5.3529521484375,-0.0003994738217443228,0.0010652635246515274,-0.0007989476434886456
1772651329549955800,5.362955810546875,-0.0003994738217443228,0,-0.0013315794058144093
1772651329559959600,5.37295947265625,-0.0003994738217443228,-0.0005326317623257637,0.00026631588116288185
1772651329569963300,5.38296337890625,0.00013315794058144093,0.0026631588116288185,-0.00026631588116288185
1772651329579967000,5.392967041015625,0.0006657897029072046,0,0.0007989476434886456
1772651329589971000,5.402970947265625,-0.0009321055840700865,0.0005326317623257637,-0.0013315794058144093
1772651329599974700,5.412974609375,-0.0003994738217443228,0.001597895286977291,-0.0013315794058144093
1772651329609978400,5.422978271484375,-0.0003994738217443228,-0.0010652635246515274,-0.0007989476434886456
1772651329619982000,5.432982177734375,-0.0009321055840700865,0.0005326317623257637,0.00026631588116288185
1772651329629985800,5.44298583984375,0.00013315794058144093,0.0005326317623257637,-0.00026631588116288185
1772651329639989500,5.452989501953125,-0.0003994738217443228,0.0005326317623257637,-0.00026631588116288185
1772651329649993200,5.4629931640625,0.00013315794058144093,-0.0005326317623257637,0.00026631588116288185
1772651329659997000,5.472996826171875,0.0006657897029072046,-0.0010652635246515274,0.0007989476434886456
1772651329670000600,5.483000732421875,-0.0014647373463958502,0.0005326317623257637,-0.00026631588116288185
1772651329680004400,5.49300439453125,0.0006657897029072046,-0.0010652635246515274,-0.00026631588116288185
1772651329690008300,5.50300830078125,0.0006657897029072046,-0.0005326317623257637,0.0013315794058144093
1772651329700012000,5.513011962890625,0.00013315794058144093,-0.0005326317623257637,-0.001864211168140173
1772651329710015700,5.523015625,-0.0003994738217443228,-0.0010652635246515274,-0.00026631588116288185
1772651329720019500,5.53301953125,0.00013315794058144093,0,-0.0007989476434886456
1772651329730023200,5.543023193359375,-0.0009321055840700865,-0.002130527049303055,-0.0013315794058144093
1772651329740027000,5.55302685546875,0.0006657897029072046,0.001597895286977291,-0.00026631588116288185
1772651329750030600,5.563030517578125,-0.0003994738217443228,0.001597895286977291,0.0013315794058144093
1772651329760034000,5.573033935546875,0.00013315794058144093,0.0005326317623257637,0.0007989476434886456
1772651329770037800,5.583037841796875,0.0006657897029072046,-0.001597895286977291,0.00026631588116288185
1772651329780041000,5.593041015625,0.00013315794058144093,-0.002130527049303055,-0.00026631588116288185
1772651329790044700,5.603044677734375,0.0006657897029072046,0.0010652635246515274,0.0007989476434886456
1772651329800048000,5.613048095703125,-0.0003994738217443228,-0.0005326317623257637,-0.0007989476434886456
1772651329810051600,5.623051513671875,0.00013315794058144093,0.0010652635246515274,-0.00026631588116288185
1772651329820055000,5.633054931640625,-0.0014647373463958502,0.0005326317623257637,-0.00026631588116288185
1772651329830058500,5.64305859375,-0.001997369108721614,-0.0005326317623257637,-0.0013315794058144093
1772651329840062000,5.65306201171875,0.00013315794058144093,0.0010652635246515274,0.0007989476434886456
1772651329850065400,5.6630654296875,-0.0014647373463958502,0,0.0007989476434886456
1772651329860068900,5.67306884765625,-0.0003994738217443228,0.0005326317623257637,-0.0007989476434886456
1772651329870072300,5.683072265625,0.00013315794058144093,0,0.0013315794058144093
1772651329880075800,5.69307568359375,0.00013315794058144093,-0.001597895286977291,-0.0007989476434886456
1772651329890079200,5.703079345703125,-0.0003994738217443228,0,-0.00026631588116288185
1772651329900082700,5.713082763671875,0.00013315794058144093,0.0005326317623257637,0.0013315794058144093
1772651329910086100,5.723086181640625,0.0011984214652329683,0.001597895286977291,-0.00026631588116288185
1772651329930093000,5.743093017578125,0.00013315794058144093,-0.0005326317623257637,-0.00026631588116288185
1772651329940096500,5.753096435546875,0.0011984214652329683,0.001597895286977291,0.0007989476434886456
1772651329950100000,5.763099853515625,-0.0009321055840700865,0,0.0007989476434886456
1772651329960103700,5.773103759765625,0.00013315794058144093,-0.0005326317623257637,-0.00026631588116288185
1772651329970107100,5.783107177734375,-0.0009321055840700865,0.0010652635246515274,-0.00026631588116288185
1772651329980110600,5.793110595703125,0.001731053227558732,0.001597895286977291,-0.0007989476434886456
1772651329990114000,5.803114013671875,-0.0009321055840700865,-0.0005326317623257637,-0.00026631588116288185
1772651330000117500,5.813117431640625,0.00013315794058144093,0.001597895286977291,0.0007989476434886456
1772651330010121000,5.823120849609375,-0.0003994738217443228,0.002130527049303055,0.00026631588116288185
1772651330020124400,5.83312451171875,-0.0014647373463958502,0.001597895286977291,0.00026631588116288185
1772651330030127900,5.8431279296875,0.0006657897029072046,0.001597895286977291,0.00026631588116288185
1772651330040131300,5.85313134765625,-0.0003994738217443228,-0.001597895286977291,0.00026631588116288185
1772651330050134800,5.863134765625,0.0011984214652329683,0,0.0013315794058144093
1772651330060138200,5.87313818359375,0.001731053227558732,0.0010652635246515274,-0.0013315794058144093
1772651330070141700,5.8831416015625,0.0006657897029072046,-0.0010652635246515274,-0.0007989476434886456
1772651330080145200,5.893145263671875,-0.0003994738217443228,0.0005326317623257637,0.001864211168140173
1772651330090148600,5.903148681640625,0.00013315794058144093,0,-0.00026631588116288185
1772651330110155500,5.923155517578125,-0.0014647373463958502,-0.0005326317623257637,-0.00026631588116288185
1772651330120159000,5.933158935546875,0.0006657897029072046,0,0.0013315794058144093
1772651330130162700,5.94316259765625,0.0006657897029072046,0.0005326317623257637,0.00026631588116288185
1772651330140166100,5.953166259765625,0.0011984214652329683,0,0.00026631588116288185
1772651330150169600,5.963169677734375,0.00013315794058144093,0.0010652635246515274,0.00026631588116288185
1772651330160173000,5.973173095703125,-0.0003994738217443228,0.0005326317623257637,-0.0007989476434886456
1772651330170176500,5.983176513671875,0.00013315794058144093,0.0010652635246515274,0.00026631588116288185
1772651330180180000,5.993179931640625,0.00013315794058144093,0.0010652635246515274,-0.00026631588116288185
1772651330190183400,6.003183349609375,0.00013315794058144093,-0.0010652635246515274,0.001864211168140173
1772651330200187000,6.013186767578125,-0.0009321055840700865,-0.0005326317623257637,-0.00026631588116288185
1772651330210190300,6.0231904296875,0.00013315794058144093,0.003195790573954582,0.00026631588116288185
1772651330220193800,6.03319384765625,0.0011984214652329683,0,-0.00026631588116288185
1772651330230197200,6.043197265625,0.00013315794058144093,0.0005326317623257637,-0.0007989476434886456
1772651330240200700,6.05320068359375,0.0011984214652329683,0.002130527049303055,0.0007989476434886456
1772651330250204200,6.0632041015625,0.0006657897029072046,0.0005326317623257637,0.00026631588116288185
1772651330260207600,6.07320751953125,-0.0003994738217443228,-0.001597895286977291,0.00026631588116288185
1772651330270211000,6.083211181640625,0.00013315794058144093,0.002130527049303055,-0.0007989476434886456
1772651330280214500,6.093214599609375,0.0011984214652329683,0.002130527049303055,-0.00026631588116288185
1772651330290217700,6.1032177734375,0.0006657897029072046,0.0005326317623257637,0.00026631588116288185
1772651330300221200,6.11322119140625,0.00013315794058144093,-0.0005326317623257637,-0.00026631588116288185
1772651330310224600,6.123224609375,-0.0009321055840700865,-0.0005326317623257637,0.00026631588116288185
1772651330320228000,6.13322802734375,-0.0009321055840700865,-0.002130527049303055,-0.00026631588116288185
1772651330330231300,6.143231201171875,-0.0014647373463958502,-0.0010652635246515274,0.0007989476434886456
1772651330340234800,6.15323486328125,0.00013315794058144093,0.002130527049303055,-0.00026631588116288185
1772651330350238200,6.16323828125,-0.0014647373463958502,-0.0005326317623257637,0.0007989476434886456
1772651330360241700,6.17324169921875,0.00013315794058144093,0.0005326317623257637,0.0013315794058144093
1772651330370245000,6.1832451171875,-0.0003994738217443228,-0.0005326317623257637,-0.00026631588116288185
1772651330380248300,6.193248291015625,-0.001997369108721614,-0.0013315794058144093,0.0007989476434886456
1772651330390251800,6.203251708984375,0.00013315794058144093,-0.0007989476434886456,0.0007989476434886456
1772651330410258700,6.2232587890625,0.0006657897029072046,-0.0013315794058144093,0.0007989476434886456
1772651330420262000,6.233261962890625,0.0006657897029072046,-0.0007989476434886456,0.0007989476434886456
1772651330430265300,6.243265380859375,-0.0003994738217443228,-0.0007989476434886456,0.001864211168140173
1772651330440268800,6.253268798828125,0.0006657897029072046,0.00026631588116288185,0.00026631588116288185
1772651330450272300,6.263272216796875,0.00013315794058144093,-0.0007989476434886456,0.00026631588116288185
1772651330460275700,6.273275634765625,0.0006657897029072046,0.001864211168140173,0.00026631588116288185
1772651330470279200,6.283279052734375,0.0011984214652329683,-0.0007989476434886456,0.00026631588116288185
1772651330480282400,6.293282470703125,-0.0014647373463958502,-0.00026631588116288185,0.0013315794058144093
1772651330490285800,6.303285888671875,-0.0009321055840700865,-0.00026631588116288185,-0.00026631588116288185
1772651330500289300,6.313289306640625,-0.0009321055840700865,-0.0013315794058144093,-0.00026631588116288185
1772651330510292700,6.323292724609375,-0.0003994738217443228,-0.00026631588116288185,0.0007989476434886456
1772651330520296200,6.333296142578125,0.0006657897029072046,0.00026631588116288185,-0.0007989476434886456
1772651330530299400,6.34329931640625,-0.0003994738217443228,0.00026631588116288185,0.0013315794058144093
1772651330540302800,6.353302734375,0.00013315794058144093,0.00026631588116288185,-0.0007989476434886456
1772651330550306300,6.363306396484375,-0.0014647373463958502,-0.00026631588116288185,-0.00026631588116288185
1772651330560309800,6.373309814453125,0.0006657897029072046,-0.0007989476434886456,-0.0007989476434886456
1772651330570313000,6.38331298828125,-0.0003994738217443228,-0.00026631588116288185,0.00026631588116288185
1772651330580316400,6.39331640625,-0.0009321055840700865,0.0007989476434886456,-0.00026631588116288185
1772651330590319900,6.40331982421875,0.0022636849898844957,0.00026631588116288185,0.00026631588116288185
1772651330600323300,6.4133232421875,-0.0014647373463958502,0.00026631588116288185,0.00026631588116288185
1772651330610326800,6.423326904296875,-0.0009321055840700865,-0.00026631588116288185,0.00026631588116288185
1772651330620330000,6.433330078125,0.0006657897029072046,-0.0007989476434886456,-0.0013315794058144093
1772651330630333400,6.44333349609375,-0.0009321055840700865,0.00026631588116288185,0.0007989476434886456
1772651330640337000,6.4533369140625,-0.0003994738217443228,-0.0007989476434886456,-0.00026631588116288185
1772651330650340400,6.46334033203125,0.0011984214652329683,-0.00026631588116288185,0.001864211168140173
1772651330660343800,6.47334375,0.0006657897029072046,-0.00026631588116288185,0.00026631588116288185
1772651330670347000,6.483346923828125,-0.0009321055840700865,0.0013315794058144093,-0.00026631588116288185
1772651330680350500,6.4933505859375,-0.0003994738217443228,-0.00026631588116288185,-0.0007989476434886456
1772651330690354000,6.50335400390625,-0.0003994738217443228,-0.0023968429304659367,0.00026631588116288185
1772651330700357400,6.513357421875,0.00013315794058144093,0.00026631588116288185,0.00026631588116288185
1772651330710360800,6.52336083984375,-0.0009321055840700865,-0.001864211168140173,-0.0013315794058144093
1772651330720364000,6.533364013671875,0.00013315794058144093,-0.0007989476434886456,-0.00026631588116288185
1772651330730367500,6.543367431640625,-0.0009321055840700865,0.00026631588116288185,-0.001864211168140173
1772651330740371000,6.553370849609375,0.0011984214652329683,-0.0007989476434886456,-0.0013315794058144093
1772651330750374400,6.56337451171875,0.00013315794058144093,0.0007989476434886456,-0.00026631588116288185
1772651330760376800,6.573376953125,-0.0014647373463958502,0.00026631588116288185,-0.00026631588116288185
1772651330770379500,6.583379638671875,0.0011984214652329683,-0.0007989476434886456,-0.0023968429304659367
1772651330780382000,6.5933818359375,0.001731053227558732,0.00026631588116288185,0.001864211168140173
1772651330790384400,6.60338427734375,0.0006657897029072046,-0.0013315794058144093,-0.0007989476434886456
1772651330800386800,6.61338671875,-0.0009321055840700865,-0.0013315794058144093,-0.0013315794058144093
1772651330810389500,6.623389404296875,-0.001997369108721614,-0.00026631588116288185,0.0007989476434886456
1772651330820392000,6.633391845703125,-0.0009321055840700865,0.0007989476434886456,-0.0007989476434886456
1772651330830394400,6.643394287109375,0.001731053227558732,0.00026631588116288185,-0.00026631588116288185
1772651330840396800,6.653396728515625,0.00013315794058144093,0.00026631588116288185,0.0013315794058144093
1772651330850399200,6.663399169921875,-0.0009321055840700865,0.0007989476434886456,-0.00026631588116288185
1772651330860402000,6.67340185546875,-0.0009321055840700865,-0.00026631588116288185,0.0023968429304659367
1772651330870404400,6.683404296875,0.00013315794058144093,-0.00026631588116288185,0.0013315794058144093
1772651330880406800,6.69340673828125,0.00013315794058144093,0.00026631588116288185,-0.0023968429304659367
1772651330890409500,6.703409423828125,-0.0003994738217443228,0.001864211168140173,-0.00026631588116288185
1772651330900412000,6.713411865234375,0.001731053227558732,0.0013315794058144093,-0.00026631588116288185
1772651330910414300,6.723414306640625,0.00013315794058144093,-0.0013315794058144093,0.0013315794058144093
1772651330920416800,6.733416748046875,0.0011984214652329683,0.0013315794058144093,-0.00026631588116288185
1772651330930419500,6.74341943359375,0.00013315794058144093,0.0007989476434886456,0.00026631588116288185
1772651330940422000,6.753421875,-0.0003994738217443228,-0.0007989476434886456,-0.0007989476434886456
1772651330950424300,6.76342431640625,0.0011984214652329683,-0.0013315794058144093,-0.00026631588116288185
1772651330960426800,6.7734267578125,0.00013315794058144093,-0.0007989476434886456,-0.0007989476434886456
1772651330970429200,6.78342919921875,-0.0009321055840700865,-0.0013315794058144093,0.0007989476434886456
1772651330980432000,6.793431884765625,0.0006657897029072046,-0.00026631588116288185,-0.00026631588116288185
1772651330990434300,6.803434326171875,-0.0003994738217443228,0.0007989476434886456,0.0007989476434886456
1772651331000436700,6.813436767578125,-0.0014647373463958502,0.00026631588116288185,-0.0007989476434886456
1772651331010439400,6.823439453125,-0.0009321055840700865,-0.0013315794058144093,0.00026631588116288185
1772651331020441900,6.83344189453125,-0.0003994738217443228,-0.00026631588116288185,-0.00026631588116288185
1772651331030444300,6.8434443359375,0.00013315794058144093,-0.00026631588116288185,0.0007989476434886456
1772651331040446700,6.85344677734375,-0.0003994738217443228,-0.0007989476434886456,-0.001864211168140173
1772651331050449200,6.86344921875,0.00013315794058144093,-0.0007989476434886456,0.00026631588116288185
1772651331060451800,6.873451904296875,-0.0003994738217443228,0.00026631588116288185,-0.00026631588116288185
1772651331070454300,6.883454345703125,0.00013315794058144093,-0.001864211168140173,0.0013315794058144093
1772651331080456700,6.893456787109375,-0.0003994738217443228,0.0007989476434886456,0.0013315794058144093
1772651331090459100,6.903459228515625,-0.0014647373463958502,-0.0007989476434886456,-0.00026631588116288185
1772651331100461800,6.9134619140625,-0.0003994738217443228,0.001864211168140173,0.0023968429304659367
1772651331110464300,6.92346435546875,-0.0009321055840700865,0.00026631588116288185,-0.00026631588116288185
1772651331120466700,6.933466796875,0.0006657897029072046,0.0007989476434886456,0.0013315794058144093
1772651331130469400,6.943469482421875,0.0006657897029072046,-0.00026631588116288185,-0.00026631588116288185
1772651331140471800,6.953471923828125,0.0011984214652329683,0.0007989476434886456,0.0007989476434886456
1772651331150474200,6.96347412109375,-0.0003994738217443228,0.0023968429304659367,0.00026631588116288185
1772651331160476700,6.9734765625,-0.0003994738217443228,0.0007989476434886456,0.00026631588116288185
1772651331170479000,6.98347900390625,-0.0003994738217443228,0.00026631588116288185,-0.00026631588116288185
1772651331180481800,6.993481689453125,-0.0009321055840700865,-0.0013315794058144093,0.00026631588116288185
1772651331190484200,7.003484130859375,0.00013315794058144093,-0.0007989476434886456,-0.0013315794058144093
1772651331200486700,7.013486572265625,-0.0003994738217443228,-0.00026631588116288185,-0.00026631588116288185
1772651331210489000,7.023489013671875,0.0006657897029072046,0.0007989476434886456,-0.0007989476434886456
1772651331220491800,7.03349169921875,0.00013315794058144093,0.0007989476434886456,-0.0007989476434886456
1772651331230494200,7.043494140625,0.00013315794058144093,-0.00026631588116288185,0.0007989476434886456
1772651331250499300,7.063499267578125,0.0011984214652329683,0.0007989476434886456,0.00026631588116288185
1772651331260502500,7.07350244140625,-0.0009321055840700865,-0.0007989476434886456,0.0007989476434886456
1772651331270506000,7.083506103515625,0.001731053227558732,-0.0007989476434886456,-0.0007989476434886456
1772651331280509200,7.09350927734375,0.00013315794058144093,-0.0007989476434886456,0.00026631588116288185
1772651331290512600,7.1035126953125,0.00013315794058144093,0.00026631588116288185,0.00026631588116288185
1772651331300516000,7.11351611328125,0.0006657897029072046,-0.0013315794058144093,-0.00026631588116288185
1772651331310519600,7.12351953125,0.00013315794058144093,-0.0007989476434886456,0.0007989476434886456
1772651331320522800,7.133522705078125,0.0011984214652329683,-0.0007989476434886456,-0.001864211168140173
1772651331330526200,7.143526123046875,0.0006657897029072046,0.00026631588116288185,-0.0007989476434886456
1772651331340529700,7.15352978515625,0.00013315794058144093,-0.00026631588116288185,-0.00026631588116288185
1772651331350533000,7.163533203125,0.0006657897029072046,-0.0023968429304659367,0.00026631588116288185
1772651331360536600,7.17353662109375,0.0006657897029072046,0.00026631588116288185,-0.0007989476434886456
1772651331370539800,7.183539794921875,-0.0003994738217443228,-0.0013315794058144093,0.0013315794058144093
1772651331380543200,7.193543212890625,0.0006657897029072046,-0.001864211168140173,-0.00026631588116288185
1772651331390546700,7.203546630859375,-0.0009321055840700865,0.00026631588116288185,-0.00026631588116288185
1772651331400550100,7.213550048828125,-0.0003994738217443228,0.00026631588116288185,0.001864211168140173
1772651331410553600,7.2235537109375,0.00013315794058144093,0.0007989476434886456,-0.0013315794058144093
1772651331430560300,7.243560302734375,-0.0014647373463958502,-0.00026631588116288185,0.00026631588116288185
1772651331440563700,7.253563720703125,-0.0009321055840700865,-0.00026631588116288185,-0.0023968429304659367
1772651331450567200,7.263567138671875,0.00013315794058144093,-0.0013315794058144093,-0.00026631588116288185
1772651331460570600,7.273570556640625,-0.0003994738217443228,0.00026631588116288185,-0.0007989476434886456
1772651331470573800,7.28357373046875,0.0006657897029072046,0.0013315794058144093,-0.0013315794058144093
1772651331480577300,7.293577392578125,0.00013315794058144093,0.0007989476434886456,0.001864211168140173
1772651331490580700,7.303580810546875,-0.001997369108721614,-0.00026631588116288185,0.00026631588116288185
1772651331500584200,7.313584228515625,0.00013315794058144093,0.00026631588116288185,0.00026631588116288185
1772651331510587600,7.323587646484375,0.0006657897029072046,-0.001864211168140173,0.00026631588116288185
1772651331520590800,7.3335908203125,-0.0009321055840700865,-0.00026631588116288185,-0.0013315794058144093
1772651331530594300,7.34359423828125,0.00013315794058144093,-0.0013315794058144093,-0.0007989476434886456
1772651331540597800,7.35359765625,-0.0009321055840700865,-0.0023968429304659367,0.00026631588116288185
1772651331550601200,7.363601318359375,-0.0003994738217443228,-0.00026631588116288185,0.00026631588116288185
1772651331560604700,7.373604736328125,0.0006657897029072046,0.00026631588116288185,0.0007989476434886456
1772651331570607900,7.38360791015625,-0.0009321055840700865,-0.0007989476434886456,0.0013315794058144093
1772651331580611300,7.393611328125,-0.0003994738217443228,0.0013315794058144093,-0.0007989476434886456
1772651331590614800,7.40361474609375,0.00013315794058144093,-0.0007989476434886456,0.0013315794058144093
1772651331600618200,7.4136181640625,-0.0014647373463958502,-0.0013315794058144093,-0.00026631588116288185
1772651331610621400,7.423621337890625,0.00013315794058144093,-0.0007989476434886456,-0.00026631588116288185
1772651331620625000,7.433625,0.00013315794058144093,-0.0013315794058144093,-0.00026631588116288185
1772651331630628400,7.44362841796875,-0.0003994738217443228,-0.00026631588116288185,-0.00026631588116288185
1772651331640631800,7.4536318359375,0.001731053227558732,-0.0007989476434886456,-0.00026631588116288185
1772651331650635300,7.46363525390625,-0.0003994738217443228,-0.00026631588116288185,-0.00026631588116288185
1772651331660638500,7.473638427734375,-0.0025300008710473776,0.0023968429304659367,0.001864211168140173
1772651331670642000,7.483641845703125,-0.0009321055840700865,-0.00026631588116288185,0.0007989476434886456
1772651331680645400,7.493645263671875,0.00013315794058144093,-0.0013315794058144093,0.00026631588116288185
1772651331690648800,7.50364892578125,0.0011984214652329683,-0.00026631588116288185,-0.0007989476434886456
1772651331700652300,7.51365234375,0.0006657897029072046,0.0007989476434886456,-0.00026631588116288185
1772651331710655500,7.523655517578125,-0.0003994738217443228,0.0007989476434886456,0.0007989476434886456
1772651331720659000,7.533658935546875,0.00013315794058144093,-0.0023968429304659367,0.00026631588116288185
1772651331730662400,7.543662353515625,-0.0003994738217443228,-0.0007989476434886456,0.0007989476434886456
1772651331740665900,7.553665771484375,0.00013315794058144093,-0.00026631588116288185,-0.0013315794058144093
1772651331750669300,7.56366943359375,-0.0009321055840700865,0.0007989476434886456,-0.00026631588116288185
1772651331760672800,7.5736728515625,-0.0014647373463958502,-0.0013315794058144093,-0.0013315794058144093
1772651331770676500,7.583676513671875,0.0011984214652329683,-0.00026631588116288185,-0.00026631588116288185
1772651331780680200,7.59368017578125,0.0011984214652329683,-0.001864211168140173,-0.0013315794058144093
1772651331790684000,7.603683837890625,-0.0003994738217443228,0.0007989476434886456,-0.0007989476434886456
1772651331800687400,7.613687255859375,-0.0009321055840700865,-0.00026631588116288185,0.0013315794058144093
1772651331810691000,7.623691162109375,-0.0009321055840700865,-0.0007989476434886456,0.0007989476434886456
1772651331820694800,7.63369482421875,0.00013315794058144093,-0.0023968429304659367,-0.0007989476434886456
1772651331830698500,7.643698486328125,0.00013315794058144093,-0.0007989476434886456,-0.0007989476434886456
1772651331840702000,7.653701904296875,-0.0003994738217443228,-0.0013315794058144093,-0.0013315794058144093
1772651331850705700,7.66370556640625,-0.0003994738217443228,0.0007989476434886456,-0.0007989476434886456
1772651331860709400,7.67370947265625,0.0006657897029072046,-0.0013315794058144093,-0.0013315794058144093
1772651331870713000,7.683713134765625,0.0011984214652329683,-0.00026631588116288185,-0.00026631588116288185
1772651331880716500,7.693716552734375,0.00013315794058144093,-0.0007989476434886456,0.0013315794058144093
1772651331890720300,7.70372021484375,0.0011984214652329683,-0.00026631588116288185,-0.001864211168140173
1772651331900724000,7.713723876953125,0.00013315794058144093,-0.00026631588116288185,-0.0007989476434886456
1772651331910727700,7.723727783203125,0.0011984214652329683,0.00026631588116288185,0.0013315794058144093
1772651331920731100,7.733731201171875,0.00013315794058144093,0.00026631588116288185,0.0007989476434886456
1772651331930734800,7.74373486328125,0.0006657897029072046,0.001864211168140173,0.0007989476434886456
1772651331940738600,7.753738525390625,0.0006657897029072046,-0.00026631588116288185,-0.00026631588116288185
1772651331950742300,7.7637421875,0.00013315794058144093,0.0007989476434886456,0.00026631588116288185
1772651331960746000,7.77374609375,0.00013315794058144093,0.0013315794058144093,0.00026631588116288185
1772651331970749400,7.78374951171875,0.0006657897029072046,-0.001864211168140173,0.0007989476434886456
1772651331980753200,7.793753173828125,-0.0009321055840700865,0.0013315794058144093,-0.0013315794058144093
1772651331990756900,7.8037568359375,0.00013315794058144093,-0.0007989476434886456,-0.00026631588116288185
1772651332000760600,7.813760498046875,0.001731053227558732,-0.0007989476434886456,0.00026631588116288185
1772651332010764000,7.823763916015625,-0.0003994738217443228,0.001864211168140173,-0.0007989476434886456
1772651332020767700,7.833767822265625,0.0006657897029072046,0.0013315794058144093,-0.0007989476434886456
1772651332030771500,7.843771484375,-0.0003994738217443228,-0.0007989476434886456,0.00026631588116288185
1772651332040775200,7.853775146484375,-0.0003994738217443228,0.0013315794058144093,-0.0007989476434886456
1772651332050778600,7.863778564453125,-0.0009321055840700865,0.0013315794058144093,0.00026631588116288185
1772651332060782300,7.8737822265625,0.00013315794058144093,-0.00026631588116288185,-0.00026631588116288185
1772651332070786000,7.8837861328125,-0.0009321055840700865,-0.00026631588116288185,-0.0007989476434886456
1772651332080789800,7.893789794921875,-0.0009321055840700865,-0.0013315794058144093,0.00026631588116288185
1772651332090793200,7.903793212890625,0.001731053227558732,-0.00026631588116288185,-0.00026631588116288185
1772651332100797000,7.913796875,0.0011984214652329683,-0.001864211168140173,-0.001864211168140173
1772651332110800600,7.923800537109375,0.0011984214652329683,-0.00026631588116288185,-0.00026631588116288185
1772651332120804400,7.933804443359375,0.0006657897029072046,-0.00026631588116288185,0.00026631588116288185
1772651332130808000,7.94380810546875,-0.0003994738217443228,-0.0010652635246515274,-0.00026631588116288185
1772651332140811500,7.9538115234375,-0.0003994738217443228,0.001597895286977291,-0.0007989476434886456
1772651332150815200,7.963815185546875,0.0006657897029072046,-0.0005326317623257637,-0.0007989476434886456
1772651332160819000,7.97381884765625,-0.0009321055840700865,0.0005326317623257637,-0.0007989476434886456
1772651332170822700,7.98382275390625,-0.0025300008710473776,0.0010652635246515274,0.00026631588116288185
1772651332180826000,7.993826171875,-0.0003994738217443228,0,0.00026631588116288185
1772651332190829800,8.003829833984375,-0.0009321055840700865,0,-0.00026631588116288185
1772651332200833500,8.01383349609375,0.001731053227558732,0.002130527049303055,0.00026631588116288185
1772651332210837200,8.023837158203126,0.0006657897029072046,-0.001597895286977291,-0.00026631588116288185
1772651332220840700,8.0338408203125,0.00013315794058144093,0,-0.0007989476434886456
1772651332230844400,8.043844482421875,-0.0003994738217443228,0.0005326317623257637,0.00026631588116288185
1772651332240848100,8.05384814453125,0.0006657897029072046,-0.0010652635246515274,-0.0007989476434886456
1772651332250851800,8.063851806640624,-0.0009321055840700865,-0.0005326317623257637,0.00026631588116288185
1772651332260854800,8.073854736328125,-0.0009321055840700865,-0.0005326317623257637,-0.00026631588116288185
1772651332270857500,8.083857421875,-0.001997369108721614,0.001597895286977291,0.0013315794058144093
1772651332280860400,8.0938603515625,0.00013315794058144093,0,0.00026631588116288185
1772651332290863400,8.10386328125,-0.0003994738217443228,0.0005326317623257637,-0.0013315794058144093
1772651332300866000,8.113865966796874,0.00013315794058144093,0.001597895286977291,-0.001864211168140173
1772651332310869000,8.123868896484375,-0.001997369108721614,-0.0005326317623257637,0.00026631588116288185
1772651332320871700,8.13387158203125,-0.0009321055840700865,0,0.0007989476434886456
1772651332330874600,8.14387451171875,-0.0009321055840700865,-0.001597895286977291,-0.0007989476434886456
1772651332340877300,8.153877197265626,0.0011984214652329683,0.002130527049303055,-0.0007989476434886456
1772651332350880300,8.16388037109375,-0.0009321055840700865,-0.0005326317623257637,-0.00026631588116288185
1772651332360883200,8.17388330078125,-0.0014647373463958502,-0.0005326317623257637,0.0007989476434886456
1772651332370886000,8.183885986328125,0.0006657897029072046,0,0.00026631588116288185
1772651332380888800,8.193888916015625,-0.0009321055840700865,0.0005326317623257637,-0.00026631588116288185
1772651332390891800,8.203891845703126,-0.0014647373463958502,0,0.00026631588116288185
1772651332400894500,8.21389453125,0.0011984214652329683,0,0.001864211168140173
1772651332410897200,8.223897216796875,0.0006657897029072046,0.0026631588116288185,-0.00026631588116288185
1772651332420900000,8.233900146484375,-0.0009321055840700865,0.0005326317623257637,0.0013315794058144093
1772651332430903000,8.243903076171875,0.0006657897029072046,-0.0010652635246515274,-0.0013315794058144093
1772651332440905700,8.25390576171875,-0.0003994738217443228,0.001597895286977291,-0.0013315794058144093
1772651332450908700,8.26390869140625,-0.0003994738217443228,-0.0010652635246515274,0.0013315794058144093
1772651332460911600,8.27391162109375,-0.0025300008710473776,0,0.0007989476434886456
1772651332470914300,8.283914306640625,0.00013315794058144093,-0.0005326317623257637,0.00026631588116288185
1772651332480917200,8.293917236328125,-0.0009321055840700865,-0.001597895286977291,-0.00026631588116288185
1772651332490920000,8.303919921875,-0.0014647373463958502,0.001597895286977291,0.001864211168140173
1772651332500923000,8.3139228515625,0.0006657897029072046,-0.0005326317623257637,-0.00026631588116288185
1772651332510925600,8.323925537109375,-0.0009321055840700865,-0.0005326317623257637,-0.00026631588116288185
1772651332520928500,8.333928466796875,0.00013315794058144093,0.0010652635246515274,-0.00026631588116288185
1772651332530931500,8.343931396484376,-0.0009321055840700865,0.0005326317623257637,0.0007989476434886456
1772651332540934100,8.35393408203125,-0.0009321055840700865,0.0010652635246515274,-0.00026631588116288185
1772651332550937000,8.36393701171875,0.0006657897029072046,-0.002130527049303055,-0.001864211168140173
1772651332560939800,8.373939697265625,-0.0003994738217443228,0.0005326317623257637,-0.00026631588116288185
1772651332570942700,8.383942626953125,-0.0009321055840700865,-0.001597895286977291,0.00026631588116288185
1772651332580945400,8.3939453125,0.0006657897029072046,0.0005326317623257637,0.00026631588116288185
1772651332590948400,8.4039482421875,-0.0003994738217443228,0.0005326317623257637,0.00026631588116288185
1772651332600951300,8.413951416015625,0.001731053227558732,0.0005326317623257637,0.00026631588116288185
1772651332610954000,8.4239541015625,-0.0003994738217443228,0,0.00026631588116288185
1772651332620957000,8.43395703125,-0.0009321055840700865,-0.0005326317623257637,-0.0007989476434886456
1772651332630959600,8.443959716796876,0.00013315794058144093,0.0005326317623257637,0.0007989476434886456
1772651332640962600,8.453962646484374,-0.0014647373463958502,-0.001597895286977291,0.00026631588116288185
1772651332650965500,8.463965576171875,0.0006657897029072046,0.001597895286977291,0.001864211168140173
1772651332660968200,8.47396826171875,0.00013315794058144093,-0.0005326317623257637,0.00026631588116288185
1772651332670971100,8.48397119140625,0.00013315794058144093,0,-0.00026631588116288185
1772651332680973800,8.493973876953126,0.00013315794058144093,-0.0005326317623257637,-0.0013315794058144093
1772651332690976800,8.503976806640624,0.0006657897029072046,-0.001597895286977291,-0.00026631588116288185
1772651332700979500,8.5139794921875,-0.0014647373463958502,0.0005326317623257637,0.0007989476434886456
1772651332710982400,8.523982421875,0.00013315794058144093,0.0005326317623257637,-0.0013315794058144093
1772651332720985300,8.5339853515625,0.001731053227558732,0.0005326317623257637,-0.00026631588116288185
1772651332730988000,8.543988037109376,0.0011984214652329683,0.0005326317623257637,-0.00026631588116288185
1772651332740991000,8.553990966796874,-0.0014647373463958502,0.0005326317623257637,0.00026631588116288185
1772651332750993700,8.56399365234375,0.0006657897029072046,-0.0005326317623257637,-0.00026631588116288185
1772651332760996900,8.573996826171875,-0.0003994738217443228,0.0010652635246515274,-0.0007989476434886456
1772651332771000000,8.584,-0.0003994738217443228,-0.0005326317623257637,-0.0013315794058144093
1772651332781003500,8.59400341796875,0.001731053227558732,0.0026631588116288185,-0.00026631588116288185
1772651332791006700,8.6040068359375,0.00013315794058144093,0.0005326317623257637,-0.0013315794058144093
1772651332801010000,8.614010009765625,0.0006657897029072046,-0.0005326317623257637,0.0007989476434886456
1772651332811013000,8.62401318359375,-0.0009321055840700865,0,0.0013315794058144093
1772651332821016300,8.634016357421874,0.0011984214652329683,-0.0005326317623257637,0.001864211168140173
1772651332831019800,8.644019775390625,0.00013315794058144093,-0.001597895286977291,-0.0007989476434886456
1772651332851026200,8.664026123046876,0.0006657897029072046,-0.0010652635246515274,-0.0013315794058144093
1772651332861029400,8.674029296875,-0.0003994738217443228,0.0005326317623257637,0.0007989476434886456
1772651332871032600,8.684032470703125,0.00013315794058144093,-0.0005326317623257637,-0.00026631588116288185
1772651332881036000,8.6940361328125,-0.0009321055840700865,-0.0010652635246515274,-0.0007989476434886456
1772651332891039200,8.704039306640626,-0.0003994738217443228,0,0.0007989476434886456
1772651332901042400,8.71404248046875,0.00013315794058144093,0,-0.0007989476434886456
1772651332911045600,8.724045654296875,0.0006657897029072046,-0.0010652635246515274,0.0007989476434886456
1772651332921048800,8.734048828125,-0.0014647373463958502,0,0.00026631588116288185
1772651332931052300,8.74405224609375,-0.0003994738217443228,-0.0005326317623257637,0.00026631588116288185
1772651332941055500,8.754055419921874,-0.0014647373463958502,0.001597895286977291,-0.00026631588116288185
1772651332951058700,8.76405859375,-0.0009321055840700865,0.0005326317623257637,0.00026631588116288185
1772651332961062000,8.774061767578125,-0.0003994738217443228,0.001597895286977291,-0.0007989476434886456
1772651332971065300,8.7840654296875,0.0011984214652329683,-0.002130527049303055,-0.0013315794058144093
1772651332981068500,8.794068603515624,0.0011984214652329683,-0.0010652635246515274,0.0013315794058144093
1772651332991071700,8.80407177734375,0.0006657897029072046,0.001597895286977291,0.001864211168140173
1772651333001075000,8.814074951171875,0.00013315794058144093,0.0010652635246515274,0.00026631588116288185
1772651333011078100,8.824078125,0.00013315794058144093,0.0005326317623257637,0.001864211168140173
1772651333021081600,8.83408154296875,0.0006657897029072046,-0.0005326317623257637,0.00026631588116288185
1772651333031084800,8.844084716796875,0.00013315794058144093,-0.0005326317623257637,-0.0007989476434886456
1772651333041088000,8.854087890625,0.00013315794058144093,0.002130527049303055,-0.0013315794058144093
1772651333051091200,8.86409130859375,-0.0009321055840700865,-0.002130527049303055,-0.0023968429304659367
1772651333061094400,8.874094482421874,0.00013315794058144093,-0.0005326317623257637,-0.0007989476434886456
1772651333071097900,8.884097900390625,0.0006657897029072046,-0.0026631588116288185,-0.0013315794058144093
1772651333081101000,8.89410107421875,0.00013315794058144093,-0.0005326317623257637,-0.0029294746927917004
