time,seconds_elapsed,z,y,x
1772642824935350500,0.3423505859375,0.028824329376220703,-0.1136159896850586,0.010984718799591064
1772642824955360300,0.3623603515625,0.015274107456207275,-0.14081478118896484,-0.007733762264251709
1772642824975369700,0.38236962890625,0.025796890258789062,-0.1197967529296875,0.007023990154266357
1772642824995379200,0.402379150390625,0.007807910442352295,-0.1039285659790039,-0.0031398534774780273
1772642825015389000,0.422388916015625,-0.050495028495788574,-0.10333538055419922,-0.03628581762313843
1772642825035398400,0.4423984375,0.019476354122161865,-0.1104593276977539,-0.026496052742004395
1772642825055407900,0.462407958984375,-0.006044149398803711,-0.13426971435546875,-0.023381710052490234
1772642825075418000,0.482418212890625,0.006406307220458984,-0.11019325256347656,-0.02935570478439331
1772642825095428000,0.502427978515625,0.01586449146270752,-0.11970329284667969,-0.038039207458496094
1772642825115438000,0.52243798828125,-0.026883423328399658,-0.12205696105957031,-0.027886629104614258
1772642825135448300,0.5424482421875,-0.026642799377441406,-0.11003971099853516,-0.018066465854644775
1772642825155458300,0.562458251953125,-0.025974750518798828,-0.10758590698242188,-0.03013533353805542
1772642825175468500,0.582468505859375,-0.015829265117645264,-0.10990333557128906,-0.020626485347747803
1772642825195478500,0.602478515625,0.0009911656379699707,-0.1003122329711914,-0.01618725061416626
1772642825215488800,0.62248876953125,-0.021664023399353027,-0.1026468276977539,-0.02528369426727295
1772642825235498800,0.642498779296875,-0.0013468265533447266,-0.11690521240234375,-0.02763652801513672
1772642825255508700,0.6625087890625,-0.010569095611572266,-0.11448001861572266,-0.04926252365112305
1772642825275519000,0.68251904296875,-0.02025306224822998,-0.11928749084472656,-0.020596325397491455
1772642825295529000,0.702529052734375,0.023546695709228516,-0.10964012145996094,-0.011026978492736816
1772642825315539200,0.722539306640625,0.019078612327575684,-0.11919403076171875,-0.011072874069213867
1772642825335549200,0.742549072265625,0.009702503681182861,-0.1335430145263672,0.0081406831741333
1772642825355559200,0.76255908203125,-0.022998929023742676,-0.1526174545288086,-0.008443176746368408
1772642825375569400,0.7825693359375,-0.022234082221984863,-0.13575458526611328,-0.03921455144882202
1772642825395579400,0.802579345703125,-0.02743852138519287,-0.13337993621826172,-0.017407357692718506
1772642825415589600,0.822589599609375,-0.0024331212043762207,-0.12630844116210938,-0.05579936504364014
1772642825435599600,0.842599609375,0.020601272583007812,-0.10001277923583984,-0.060063183307647705
1772642825455609600,0.862609619140625,0.007913827896118164,-0.09046268463134766,-0.03523331880569458
1772642825475619800,0.882619873046875,0.019709110260009766,-0.11197185516357422,-0.014992713928222656
1772642825495629800,0.9026298828125,-0.02016770839691162,-0.1213827133178711,-0.008758366107940674
1772642825515640000,0.92264013671875,0.014382004737854004,-0.13318347930908203,-0.04339158535003662
1772642825535650000,0.942650146484375,-0.0072196125984191895,-0.1211690902709961,-0.03825104236602783
1772642825555660000,0.962659912109375,-0.017233669757843018,-0.11637115478515625,-0.03237098455429077
1772642825575669800,0.982669677734375,0.0015261173248291016,-0.123504638671875,-0.03568607568740845
1772642825595679200,1.00267919921875,-0.005059301853179932,-0.11616230010986328,-0.031708359718322754
1772642825615689000,1.02268896484375,0.0025947093963623047,-0.1448049545288086,-0.03135591745376587
1772642825635698700,1.04269873046875,-0.0009564757347106934,-0.1328887939453125,-0.0449373722076416
1772642825655708200,1.062708251953125,-0.024356544017791748,-0.10670185089111328,-0.042350709438323975
1772642825675718000,1.0827177734375,-0.025654375553131104,-0.09965229034423828,-0.04256439208984375
1772642825695727400,1.102727294921875,0.0019733309745788574,-0.10453510284423828,-0.026015877723693848
1772642825715737000,1.122737060546875,-0.0035259127616882324,-0.09267616271972656,-0.002864241600036621
1772642825735746800,1.142746826171875,0.01990807056427002,-0.08315277099609375,-0.03463488817214966
1772642825755756300,1.16275634765625,-0.02300584316253662,-0.08318710327148438,0.0009005069732666016
1772642825775766000,1.18276611328125,-0.00582355260848999,-0.09991741180419922,0.007615447044372559
1772642825795775500,1.202775390625,-0.0045111775398254395,-0.09506034851074219,-0.005315661430358887
1772642825815785200,1.22278515625,-0.01727128028869629,-0.12376117706298828,-0.00854116678237915
1772642825835795000,1.242794921875,-0.006319642066955566,-0.11650466918945312,0.014402925968170166
1772642825855804400,1.262804443359375,-0.012569069862365723,-0.12124347686767578,0.02338254451751709
1772642825875814100,1.282814208984375,-0.005417823791503906,-0.10927200317382812,0.013323783874511719
1772642825895823600,1.30282373046875,0.022168278694152832,-0.1355133056640625,-0.00884944200515747
1772642825915833300,1.322833251953125,0.002847015857696533,-0.13295936584472656,-0.00925058126449585
1772642825935842800,1.3428427734375,0.0019168257713317871,-0.11362552642822266,0.003213047981262207
1772642825955852500,1.3628525390625,-0.009223759174346924,-0.14467239379882812,0.010662615299224854
1772642825975862300,1.3828623046875,-0.05463278293609619,-0.15192127227783203,0.00993257761001587
1772642825995871700,1.402871826171875,-0.012208938598632812,-0.13762474060058594,0.006926357746124268
1772642826015881500,1.422881591796875,-0.012589573860168457,-0.12091255187988281,0.011393070220947266
1772642826035891000,1.442890869140625,0.054517269134521484,-0.11372756958007812,-0.01310199499130249
1772642826055900700,1.462900634765625,0.03515273332595825,-0.10420894622802734,-0.013796627521514893
1772642826075910100,1.48291015625,-0.005640089511871338,-0.1354217529296875,-0.010049998760223389
1772642826095919600,1.502919677734375,0.008740782737731934,-0.1043558120727539,-0.008857905864715576
1772642826115929300,1.522929443359375,0.013480186462402344,-0.09245872497558594,-0.01723390817642212
1772642826135938800,1.542938720703125,0.04253792762756348,-0.1332387924194336,-0.03807628154754639
1772642826155948300,1.5629482421875,0.004675686359405518,-0.1309061050415039,-0.03948652744293213
1772642826175958000,1.5829580078125,-0.03611397743225098,-0.12384414672851562,-0.009755373001098633
1772642826195967500,1.602967529296875,-0.03038322925567627,-0.12159252166748047,-0.01942145824432373
1772642826215977000,1.62297705078125,0.03833431005477905,-0.10731887817382812,-0.04757249355316162
1772642826235986400,1.642986328125,0.023926138877868652,-0.10733699798583984,-0.0454251766204834
1772642826255996000,1.662995849609375,0.01873195171356201,-0.11457347869873047,-0.03842383623123169
1772642826276005600,1.683005615234375,-0.023943305015563965,-0.110107421875,-0.018809616565704346
1772642826296015000,1.70301513671875,-0.0001856088638305664,-0.11760139465332031,-0.0162544846534729
1772642826316024600,1.723024658203125,0.020708799362182617,-0.13202381134033203,0.010330796241760254
1772642826336034300,1.743034423828125,-0.009046792984008789,-0.1177377700805664,0.017637670040130615
1772642826356043800,1.763043701171875,-0.03406071662902832,-0.1250019073486328,-0.020296454429626465
1772642826376053200,1.78305322265625,0.013347506523132324,-0.10830497741699219,-0.011105179786682129
1772642826396062700,1.803062744140625,0.003511190414428711,-0.10120964050292969,-0.021738946437835693
1772642826416072400,1.823072509765625,-0.0026938319206237793,-0.13182735443115234,-0.02380591630935669
1772642826436082000,1.84308203125,0.0016492605209350586,-0.12712478637695312,-0.03887695074081421
1772642826456091400,1.86309130859375,-0.004112124443054199,-0.1104593276977539,-0.03455793857574463
1772642826476100900,1.883100830078125,-0.007883906364440918,-0.10758018493652344,-0.02743816375732422
1772642826496110600,1.903110595703125,0.005728781223297119,-0.1100015640258789,-0.048238515853881836
1772642826516125400,1.92312548828125,-0.023150920867919922,-0.08840179443359375,-0.025834858417510986
1772642826536135200,1.94313525390625,-0.006250441074371338,-0.1027059555053711,-0.003393232822418213
1772642826556144600,1.96314453125,-0.029445946216583252,-0.10499000549316406,0.016371726989746094
1772642826576153600,1.983153564453125,-0.013786733150482178,-0.12400150299072266,0.026417911052703857
1772642826596162600,2.00316259765625,-0.002841770648956299,-0.15501117706298828,0.01926940679550171
1772642826616171500,2.023171630859375,-0.009386777877807617,-0.12201595306396484,-0.004143774509429932
1772642826636180500,2.043180419921875,-0.014299869537353516,-0.088470458984375,-0.006249189376831055
1772642826656189700,2.063189697265625,-0.0068781375885009766,-0.10761642456054688,-0.015896320343017578
1772642826676198700,2.08319873046875,0.0028704404830932617,-0.11963367462158203,-0.004780828952789307
1772642826696207600,2.10320751953125,0.010965228080749512,-0.10283851623535156,0.018212974071502686
1772642826716216600,2.123216552734375,-0.0017349720001220703,-0.10514068603515625,-0.004384458065032959
1772642826736225800,2.143225830078125,0.011628985404968262,-0.13590621948242188,-0.007632791996002197
1772642826756234800,2.16323486328125,-0.04297822713851929,-0.14759063720703125,0.010722696781158447
1772642826776243700,2.18324365234375,-0.045969247817993164,-0.1237478256225586,0.021823227405548096
1772642826796252700,2.203252685546875,-0.005034029483795166,-0.10973930358886719,0.0065329670906066895
1772642826816261600,2.22326171875,0.022167325019836426,-0.11483097076416016,-0.0019179582595825195
1772642826836270800,2.243270751953125,0.03028160333633423,-0.09805679321289062,-0.006067633628845215
1772642826856279800,2.26327978515625,0.0030845999717712402,-0.11725711822509766,-0.010393798351287842
1772642826876288800,2.283288818359375,-0.029624104499816895,-0.11251354217529297,0.006810367107391357
1772642826896297700,2.303297607421875,-0.01888030767440796,-0.11732959747314453,0.014907479286193848
1772642826916306700,2.323306640625,-0.01974564790725708,-0.14603519439697266,-0.008851945400238037
1772642826936316000,2.34331591796875,-0.014423787593841553,-0.11489295959472656,-0.01682192087173462
1772642826956324900,2.363324951171875,-0.008576750755310059,-0.10047054290771484,-0.03193098306655884
1772642826976333800,2.383333740234375,0.014458119869232178,-0.11474323272705078,-0.06847745180130005
1772642826996342800,2.4033427734375,-0.0031079649925231934,-0.14575672149658203,-0.05651366710662842
1772642827016352000,2.42335205078125,-0.01881241798400879,-0.1313457489013672,-0.014044106006622314
1772642827036361000,2.44336083984375,-0.030979275703430176,-0.15776920318603516,-0.02208012342453003
1772642827056370000,2.463369873046875,-0.017836391925811768,-0.14597606658935547,-0.03753471374511719
1772642827076378600,2.483378662109375,-0.002860546112060547,-0.11263751983642578,-0.026014268398284912
1772642827096387600,2.5033876953125,0.004923343658447266,-0.11761665344238281,-0.01668936014175415
1772642827116396300,2.523396240234375,0.01046067476272583,-0.11540889739990234,-0.019568681716918945
1772642827136405000,2.543405029296875,-0.03643912076950073,-0.1252126693725586,-0.001055300235748291
1772642827156414000,2.5634140625,-0.08222359418869019,-0.10138225555419922,0.0029460787773132324
1772642827176422700,2.583422607421875,0.0006631016731262207,-0.08706092834472656,0.0074571967124938965
1772642827196431400,2.603431396484375,0.028895139694213867,-0.10148239135742188,-0.014380455017089844
1772642827216440300,2.6234404296875,0.0018736720085144043,-0.1063375473022461,0.011655688285827637
1772642827236449000,2.643448974609375,-0.017966747283935547,-0.11358928680419922,0.028676748275756836
1772642827256458000,2.6634580078125,-0.0188978910446167,-0.1208639144897461,0.03619706630706787
1772642827276466700,2.683466796875,-0.024322926998138428,-0.1257314682006836,0.023657143115997314
1772642827296475400,2.703475341796875,-0.019759178161621094,-0.10182762145996094,0.018425583839416504
1772642827316484400,2.723484375,0.008755326271057129,-0.10186290740966797,0.020646870136260986
1772642827336493000,2.7434931640625,0.018330812454223633,-0.1114339828491211,0.01090550422668457
1772642827356502000,2.763501953125,-0.02978813648223877,-0.12821388244628906,0.011047899723052979
1772642827376510700,2.7835107421875,-0.015010237693786621,-0.12815284729003906,-0.026919245719909668
1772642827396519400,2.80351953125,-0.010255694389343262,-0.11607933044433594,-0.05251443386077881
1772642827416528400,2.8235283203125,0.008577227592468262,-0.09925270080566406,-0.04949599504470825
1772642827436537000,2.843537109375,-0.02972996234893799,-0.13273906707763672,-0.03677278757095337
1772642827456545800,2.8635458984375,-0.01538461446762085,-0.12758731842041016,-0.03849208354949951
1772642827476554800,2.8835546875,0.009061872959136963,-0.1295642852783203,-0.015530228614807129
1772642827496563500,2.9035634765625,0.0021783113479614258,-0.1150979995727539,-0.009765148162841797
1772642827516572400,2.923572509765625,-0.007117092609405518,-0.105438232421875,-0.0020858049392700195
1772642827536581000,2.9435810546875,0.021910548210144043,-0.13651466369628906,-0.01618748903274536
1772642827556589800,2.96358984375,0.007530689239501953,-0.1149444580078125,-0.004030585289001465
1772642827576598500,2.9835986328125,-0.02816992998123169,-0.12210750579833984,0.01756298542022705
1772642827596607200,3.003607177734375,-0.006544947624206543,-0.10772991180419922,0.02023947238922119
1772642827616615700,3.02361572265625,-0.023343682289123535,-0.11491775512695312,0.03011256456375122
1772642827636624400,3.043624267578125,-0.025636255741119385,-0.09331893920898438,0.023396313190460205
1772642827656633000,3.063633056640625,-0.009961128234863281,-0.0716104507446289,0.014201760292053223
1772642827676641500,3.0836416015625,0.006317555904388428,-0.11455059051513672,-0.015134692192077637
1772642827696650200,3.103650146484375,-0.01875007152557373,-0.11921310424804688,-0.012632191181182861
1772642827716659000,3.123658935546875,-0.004060208797454834,-0.13834762573242188,-0.007888555526733398
1772642827736667400,3.14366748046875,0.010657846927642822,-0.1383056640625,-0.005346953868865967
1772642827756676000,3.163676025390625,0.008882462978363037,-0.1119089126586914,0.004060149192810059
1772642827776684800,3.183684814453125,-0.002289414405822754,-0.12861251831054688,0.0014968514442443848
1772642827796693200,3.203693359375,0.005554556846618652,-0.11688041687011719,0.0017001032829284668
1772642827816702000,3.223701904296875,0.020238399505615234,-0.11478805541992188,-0.008104562759399414
1772642827836710700,3.243710693359375,0.0013436079025268555,-0.1340179443359375,-0.009092986583709717
1772642827856719400,3.26371923828125,-0.004435241222381592,-0.12698936462402344,-0.017688632011413574
1772642827876727800,3.283727783203125,0.004361093044281006,-0.11036396026611328,0.005193173885345459
1772642827896736500,3.303736572265625,0.006658375263214111,-0.10323238372802734,-0.017028868198394775
1772642827916745000,3.323744873046875,0.01873016357421875,-0.09842300415039062,-0.007284998893737793
1772642827936753700,3.343753662109375,0.00019174814224243164,-0.12710094451904297,-0.03068840503692627
1772642827956762400,3.363762451171875,-0.008389949798583984,-0.11260509490966797,-0.03700971603393555
1772642827976771000,3.38377099609375,-0.01034635305404663,-0.09095954895019531,-0.04592067003250122
1772642827996779500,3.403779541015625,0.010322928428649902,-0.11970996856689453,-0.043165624141693115
1772642828016788200,3.423788330078125,-0.0015813708305358887,-0.12211990356445312,-0.04544764757156372
1772642828036797000,3.443796875,-0.02552109956741333,-0.1532430648803711,-0.00884014368057251
1772642828056805400,3.463805419921875,-0.00742262601852417,-0.15804386138916016,-0.0026300549507141113
1772642828076813300,3.483813232421875,0.008636951446533203,-0.10769939422607422,-0.039784789085388184
1772642828096821500,3.503821533203125,0.031114935874938965,-0.10058784484863281,-0.032038748264312744
1772642828116829700,3.52382958984375,0.01899665594100952,-0.05987739562988281,-0.008059382438659668
1772642828136837600,3.543837646484375,0.003088533878326416,-0.11013317108154297,0.013720095157623291
1772642828156845800,3.563845703125,-0.011678159236907959,-0.1293802261352539,0.030520975589752197
1772642828176853800,3.583853759765625,0.01076209545135498,-0.146270751953125,0.028033137321472168
1772642828196862000,3.603862060546875,-0.006540954113006592,-0.1295318603515625,0.01845759153366089
1772642828216870100,3.6238701171875,0.024173080921173096,-0.09838485717773438,0.004052519798278809
1772642828236878000,3.643878173828125,0.017285466194152832,-0.10492420196533203,-0.00042241811752319336
1772642828256886300,3.66388623046875,-0.004284977912902832,-0.1288766860961914,-0.0027649998664855957
1772642828276894500,3.68389453125,-0.004836976528167725,-0.1026010513305664,-0.0031012296676635742
1772642828296902400,3.70390234375,-0.0173378586769104,-0.08112335205078125,-0.020988821983337402
1772642828316910600,3.72391064453125,0.020662248134613037,-0.13626670837402344,-0.028389573097229004
1772642828336918500,3.74391845703125,-0.005962848663330078,-0.13624954223632812,-0.025353193283081055
1772642828356926700,3.7639267578125,-0.01833164691925049,-0.09549903869628906,-0.05310261249542236
1772642828376935000,3.783934814453125,0.022011399269104004,-0.12182807922363281,-0.03544670343399048
1772642828396942800,3.80394287109375,0.005432486534118652,-0.10980796813964844,-0.013514280319213867
1772642828416951000,3.823950927734375,-0.012759804725646973,-0.11686038970947266,0.009282410144805908
1772642828436959000,3.843958984375,0.015237033367156982,-0.1454172134399414,0.014629721641540527
1772642828456967200,3.86396728515625,0.003632187843322754,-0.12378215789794922,0.014925539493560791
1772642828476975000,3.88397509765625,-0.0015980005264282227,-0.11897659301757812,-0.013230323791503906
1772642828496983300,3.9039833984375,-0.013327181339263916,-0.10695934295654297,-0.0057836174964904785
1772642828516991500,3.923991455078125,0.011031150817871094,-0.12131023406982422,-0.006033897399902344
1772642828536999400,3.94399951171875,-0.008362233638763428,-0.12376976013183594,0.0028737783432006836
1772642828557008000,3.9640078125,-0.03003060817718506,-0.12382984161376953,0.006914854049682617
1772642828577017300,3.984017333984375,0.0053902268409729,-0.12151527404785156,0.001608431339263916
1772642828597026800,4.00402685546875,-0.030416488647460938,-0.11465644836425781,-0.019851624965667725
1772642828617036300,4.024036376953125,-0.008967041969299316,-0.11016368865966797,-0.033749401569366455
1772642828637045800,4.044045654296875,-0.02521061897277832,-0.12691879272460938,-0.03385961055755615
1772642828657055200,4.06405517578125,-0.015130817890167236,-0.1124868392944336,-0.05044347047805786
1772642828677064700,4.084064697265625,-0.031334638595581055,-0.12198257446289062,-0.033165812492370605
1772642828697074200,4.10407421875,-0.00753098726272583,-0.11477470397949219,-0.032616496086120605
1772642828717084000,4.124083984375,-0.020128726959228516,-0.11957645416259766,-0.04625731706619263
1772642828737093400,4.14409326171875,-0.0015996098518371582,-0.10044670104980469,-0.02667391300201416
1772642828757102800,4.164102783203125,-0.02107858657836914,-0.11721420288085938,-0.025919020175933838
1772642828777112300,4.1841123046875,0.0009238719940185547,-0.12434101104736328,0.0010309815406799316
1772642828797121800,4.204121826171875,0.015142083168029785,-0.11949729919433594,0.0061040520668029785
1772642828817131300,4.22413134765625,-0.028182566165924072,-0.10036754608154297,0.013240635395050049
1772642828837140700,4.244140625,-0.026163458824157715,-0.1004180908203125,0.017794787883758545
1772642828857150200,4.264150146484375,0.0051122307777404785,-0.09323978424072266,0.021810710430145264
1772642828877159700,4.28415966796875,0.009956419467926025,-0.11244583129882812,0.027808427810668945
1772642828897169400,4.30416943359375,-0.013284385204315186,-0.14367008209228516,0.011984288692474365
1772642828917179000,4.324178955078125,-0.02764725685119629,-0.12702274322509766,-0.001869797706604004
1772642828937188400,4.344188232421875,-0.03753441572189331,-0.11997127532958984,0.018047630786895752
1772642828957197800,4.36419775390625,-0.026261985301971436,-0.11292743682861328,-0.021446824073791504
1772642828977207300,4.384207275390625,-0.027067124843597412,-0.12265968322753906,-0.029787182807922363
1772642828997216800,4.404216796875,-0.05442321300506592,-0.09377288818359375,-0.038665592670440674
1772642829017226200,4.424226318359375,-0.04253411293029785,-0.0623321533203125,-0.041639745235443115
1772642829037236000,4.444236083984375,-0.037403404712677,-0.11256980895996094,0.0019887685775756836
1772642829057245400,4.464245361328125,-0.017549574375152588,-0.08131599426269531,-0.014066517353057861
1772642829077255200,4.484255126953125,0.0065135955810546875,-0.07642650604248047,-0.04215192794799805
1772642829097264600,4.5042646484375,0.021030008792877197,-0.1123046875,-0.03271442651748657
1772642829117274400,4.5242744140625,-0.006339073181152344,-0.1361246109008789,-0.010767459869384766
1772642829137284000,4.5442841796875,-0.030733108520507812,-0.17434215545654297,0.0347478985786438
1772642829157293800,4.5642939453125,-0.029043138027191162,-0.1935710906982422,0.048721134662628174
1772642829177303600,4.584303466796875,0.01765197515487671,-0.16010665893554688,0.017215490341186523
1772642829197313300,4.604313232421875,0.031867384910583496,-0.08379840850830078,-0.003828883171081543
1772642829217323000,4.624322998046875,0.04452747106552124,-0.10088729858398438,0.005510568618774414
1772642829237332700,4.644332763671875,0.017949998378753662,-0.12491703033447266,0.0001577138900756836
1772642829257342500,4.664342529296875,-0.014145970344543457,-0.12268543243408203,0.009813964366912842
1772642829277352200,4.684352294921875,-0.021076619625091553,-0.0989217758178711,-0.019360244274139404
1772642829297362000,4.70436181640625,-0.008717894554138184,-0.13267803192138672,-0.016820788383483887
1772642829317371600,4.72437158203125,-0.015017807483673096,-0.12325382232666016,0.00694042444229126
1772642829337381000,4.744381103515625,-0.01336514949798584,-0.10414600372314453,-0.033566296100616455
1772642829357390800,4.764390869140625,0.010743796825408936,-0.06096458435058594,-0.04719573259353638
1772642829377400600,4.784400634765625,-0.005762696266174316,-0.07766151428222656,-0.024914324283599854
1772642829397410300,4.804410400390625,-0.00552058219909668,-0.1252002716064453,0.02299410104751587
1772642829417420000,4.824419921875,-0.022555053234100342,-0.1224966049194336,0.005713343620300293
1772642829437429800,4.8444296875,-0.013440608978271484,-0.14885997772216797,0.005874991416931152
1772642829457439500,4.864439453125,0.016690731048583984,-0.1465320587158203,-0.0056618452072143555
1772642829477449200,4.88444921875,-0.011275708675384521,-0.11074161529541016,-0.010261893272399902
1772642829497459000,4.904458984375,-0.006273508071899414,-0.0869894027709961,-0.000578761100769043
1772642829517468700,4.92446875,0.004391491413116455,-0.08708763122558594,0.01663893461227417
1772642829537478400,4.944478515625,0.02796405553817749,-0.09425926208496094,0.009796321392059326
1772642829557487900,4.96448779296875,0.03537553548812866,-0.1037445068359375,-0.0014750957489013672
1772642829577497600,4.98449755859375,0.01691138744354248,-0.11565113067626953,0.01293933391571045
1772642829597507600,5.004507568359375,-0.016569674015045166,-0.134857177734375,-0.015327692031860352
1772642829617517300,5.024517333984375,-0.03435337543487549,-0.1304149627685547,-0.0023238658905029297
1772642829637527000,5.044527099609375,-0.007784426212310791,-0.1066732406616211,-0.0156976580619812
1772642829657536800,5.064536865234375,0.06187939643859863,-0.13536930084228516,-0.02239358425140381
1772642829677546500,5.08454638671875,0.009379148483276367,-0.12579631805419922,-0.0012462139129638672
1772642829697556200,5.10455615234375,-0.009551525115966797,-0.11622047424316406,0.02461904287338257
1772642829717566000,5.12456591796875,0.0104714035987854,-0.0802450180053711,0.009658873081207275
1772642829737575700,5.14457568359375,0.016380727291107178,-0.11608028411865234,-0.004858136177062988
1772642829757585400,5.16458544921875,0.012224555015563965,-0.09203720092773438,0.005157649517059326
1772642829777595100,5.18459521484375,-0.03236109018325806,-0.12306690216064453,-0.015637755393981934
1772642829797604900,5.20460498046875,-0.007889389991760254,-0.10588550567626953,-0.02977299690246582
1772642829817614600,5.224614501953125,0.04595136642456055,-0.11021995544433594,-0.01494443416595459
1772642829837624300,5.244624267578125,0.01851564645767212,-0.12683963775634766,-0.012165606021881104
1772642829857634000,5.264634033203125,-0.01138007640838623,-0.1051340103149414,-0.006935536861419678
1772642829877643800,5.284643798828125,0.015617191791534424,-0.1122446060180664,-0.009119093418121338
1772642829897653500,5.304653564453125,0.004240870475769043,-0.13858413696289062,-0.03141075372695923
1772642829917663200,5.324663330078125,0.01459956169128418,-0.13619422912597656,-0.018216073513031006
1772642829937673000,5.3446728515625,0.012549042701721191,-0.09790420532226562,-0.031299710273742676
1772642829957682700,5.3646826171875,-0.011324405670166016,-0.11953926086425781,-0.015826284885406494
1772642829977692400,5.3846923828125,0.009881079196929932,-0.09808635711669922,-0.014552295207977295
1772642829997702100,5.4047021484375,-0.0022523999214172363,-0.10801219940185547,-0.012329280376434326
1772642830017711900,5.4247119140625,0.026804327964782715,-0.14632892608642578,-0.0027077794075012207
1772642830037721900,5.444721923828125,-0.01290982961654663,-0.1297931671142578,-0.02233707904815674
1772642830057731300,5.4647314453125,-0.0011744499206542969,-0.09630680084228516,0.015612602233886719
1772642830077740800,5.48474072265625,-0.039200007915496826,-0.11553573608398438,0.0030279159545898438
1772642830097750300,5.504750244140625,-0.022362232208251953,-0.11551189422607422,0.0024127960205078125
1772642830117759700,5.524759765625,-0.024174392223358154,-0.13704872131347656,-0.0024240612983703613
1772642830137769000,5.54476904296875,-0.02099287509918213,-0.12757015228271484,0.024241626262664795
1772642830157778400,5.5647783203125,-0.033933281898498535,-0.0941305160522461,0.015015602111816406
1772642830177788000,5.584787841796875,0.013313770294189453,-0.08940601348876953,-0.016621828079223633
1772642830197797400,5.60479736328125,0.006788969039916992,-0.09420108795166016,-0.005660951137542725
1772642830217806800,5.624806884765625,-0.018258750438690186,-0.11091327667236328,0.010505437850952148
1772642830237816300,5.64481640625,-0.010672986507415771,-0.1252899169921875,0.0027088522911071777
1772642830257825500,5.664825439453125,-0.022469937801361084,-0.1109628677368164,0.033601582050323486
1772642830277835000,5.6848349609375,-0.0035973787307739258,-0.14457225799560547,0.01572054624557495
1772642830297844500,5.704844482421875,-0.0010671019554138184,-0.1327056884765625,0.02174544334411621
1772642830317854000,5.72485400390625,-0.008188605308532715,-0.10882854461669922,0.012969970703125
1772642830337863200,5.74486328125,-0.0251920223236084,-0.09935855865478516,-0.007828772068023682
1772642830357872600,5.76487255859375,-0.0014205574989318848,-0.08270740509033203,-0.018922150135040283
1772642830377882000,5.784882080078125,-0.01803046464920044,-0.08519935607910156,-0.0008303523063659668
1772642830397891600,5.8048916015625,-0.04161512851715088,-0.09448719024658203,0.007397294044494629
1772642830417901000,5.824901123046875,-0.01666545867919922,-0.13238239288330078,-0.002313554286956787
1772642830437910500,5.84491064453125,0.005619406700134277,-0.16580486297607422,-0.004039883613586426
1772642830457919700,5.864919677734375,-0.041347622871398926,-0.10096073150634766,-0.012732148170471191
1772642830477929200,5.88492919921875,-0.018530845642089844,-0.0648193359375,-0.02334427833557129
1772642830497938700,5.904938720703125,0.03125983476638794,-0.09092426300048828,-0.02502816915512085
1772642830517948200,5.9249482421875,0.009869992733001709,-0.13617229461669922,-0.00039327144622802734
1772642830537957600,5.94495751953125,-0.018916606903076172,-0.15988636016845703,0.009480655193328857
1772642830557966800,5.964966796875,-0.0014574527740478516,-0.14306640625,-0.010197162628173828
1772642830577975600,5.9849755859375,-0.006644487380981445,-0.10960674285888672,0.010771870613098145
1772642830597984300,6.004984375,0.004736959934234619,-0.11211109161376953,-0.006784379482269287
1772642830617993000,6.024992919921875,-0.012493252754211426,-0.10027027130126953,-0.02498030662536621
1772642830638001700,6.045001708984375,0.0017881393432617188,-0.13396453857421875,-0.005649983882904053
1772642830658010400,6.06501025390625,0.0013952255249023438,-0.11976242065429688,0.013916313648223877
1772642830678019000,6.08501904296875,-0.029949843883514404,-0.09353351593017578,-0.01159125566482544
1772642830698027800,6.10502783203125,-0.019902467727661133,-0.0959625244140625,0.006433546543121338
1772642830718036500,6.125036376953125,0.0027239322662353516,-0.10309314727783203,-0.03597891330718994
1772642830738045200,6.145045166015625,-0.008562445640563965,-0.0958566665649414,-0.019535064697265625
1772642830758054000,6.165053955078125,-0.005747377872467041,-0.1365976333618164,-0.022794485092163086
1772642830778062600,6.1850625,-0.012575387954711914,-0.09827709197998047,0.010446667671203613
1772642830798071300,6.2050712890625,0.00020569562911987305,-0.11985492706298828,-0.005196809768676758
1772642830818080000,6.225080078125,0.012675881385803223,-0.12229728698730469,0.00883704423904419
1772642830838088700,6.245088623046875,0.022062182426452637,-0.11520195007324219,0.008053004741668701
1772642830858097400,6.265097412109375,0.012112200260162354,-0.12488460540771484,0.004665195941925049
1772642830878106000,6.285106201171875,0.009538888931274414,-0.12734508514404297,-0.0032088160514831543
1772642830898114800,6.30511474609375,-0.0027279257774353027,-0.10822582244873047,-0.010676801204681396
1772642830918123500,6.32512353515625,0.025160908699035645,-0.1059865951538086,-0.006983399391174316
1772642830938132200,6.34513232421875,-0.0017214417457580566,-0.12287044525146484,-0.029821813106536865
1772642830958140700,6.365140625,0.002595067024230957,-0.1062326431274414,-0.004436016082763672
1772642830978149400,6.3851494140625,-0.014480352401733398,-0.11113739013671875,0.003894329071044922
1772642830998158300,6.405158447265625,0.003782033920288086,-0.11844730377197266,0.005020618438720703
1772642831018167000,6.4251669921875,0.017695307731628418,-0.11375045776367188,-0.010806500911712646
1772642831038175700,6.44517578125,-0.020314395427703857,-0.13299560546875,0.00512540340423584
1772642831058184200,6.46518408203125,0.01837468147277832,-0.13798141479492188,0.013857424259185791
1772642831078192000,6.485192138671875,-0.010476231575012207,-0.09735488891601562,0.008232653141021729
1772642831098200000,6.505199951171875,-0.012489378452301025,-0.08298969268798828,0.02435368299484253
1772642831118208000,6.5252080078125,0.004656314849853516,-0.11886882781982422,0.03378593921661377
1772642831138215700,6.545215576171875,0.012756407260894775,-0.09485435485839844,0.03342485427856445
1772642831158223600,6.5652236328125,0.008371591567993164,-0.13077449798583984,0.030653059482574463
1772642831178231600,6.5852314453125,-0.01285552978515625,-0.09481143951416016,-0.0005217790603637695
1772642831198239500,6.605239501953125,0.002865731716156006,-0.10905170440673828,0.011961758136749268
1772642831218247400,6.625247314453125,-0.012444674968719482,-0.1184835433959961,0.00297391414642334
1772642831238255400,6.64525537109375,-0.018655478954315186,-0.14711570739746094,-0.003869950771331787
1772642831258263300,6.66526318359375,-0.020348429679870605,-0.13024616241455078,-0.000965416431427002
1772642831278271200,6.685271240234375,-0.018060803413391113,-0.14942359924316406,-0.029764115810394287
1772642831298279200,6.705279052734375,-0.004742681980133057,-0.10882854461669922,-0.0301973819732666
1772642831318287000,6.725287109375,-0.005992233753204346,-0.0946187973022461,-0.04282933473587036
1772642831338295000,6.745294921875,0.02474343776702881,-0.10431575775146484,-0.03196936845779419
1772642831358303000,6.765302978515625,-0.001286149024963379,-0.11875629425048828,-0.019026458263397217
1772642831378311000,6.785310791015625,-0.01794511079788208,-0.11642742156982422,0.023593544960021973
1772642831398318600,6.805318603515625,-0.020451128482818604,-0.11650753021240234,0.03215456008911133
1772642831418326500,6.825326416015625,-0.010388851165771484,-0.09492111206054688,0.0199432373046875
1772642831438334500,6.84533447265625,-0.0047400593757629395,-0.10438823699951172,-0.0014278888702392578
1772642831458342400,6.86534228515625,0.01087033748626709,-0.13535308837890625,-0.0008413791656494141
1772642831478350300,6.885350341796875,0.007270216941833496,-0.12562942504882812,0.01933234930038452
1772642831498358300,6.905358154296875,-0.00843435525894165,-0.13750553131103516,-0.0000718832015991211
1772642831518366200,6.9253662109375,-0.03597456216812134,-0.1110372543334961,0.005065858364105225
1772642831538374100,6.9453740234375,-0.015266895294189453,-0.13477706909179688,0.0010524988174438477
1772642831558382000,6.965382080078125,0.002680361270904541,-0.12020206451416016,-0.02665102481842041
1772642831578390800,6.985390869140625,0.02729320526123047,-0.13442230224609375,-0.013361155986785889
1772642831598399500,7.0053994140625,0.013260126113891602,-0.09842586517333984,-0.007770836353302002
1772642831618408200,7.025408203125,-0.02068483829498291,-0.12001991271972656,0.018902242183685303
1772642831638417200,7.045417236328125,-0.037858009338378906,-0.12489795684814453,0.016215801239013672
1772642831658425900,7.06542578125,-0.019665777683258057,-0.1249551773071289,0.033039748668670654
1772642831678434600,7.0854345703125,0.02961629629135132,-0.10105419158935547,0.004868507385253906
1772642831698443300,7.105443359375,0.004937946796417236,-0.10109806060791016,-0.018727242946624756
1772642831718452000,7.125451904296875,0.007652103900909424,-0.11065006256103516,-0.03072953224182129
1772642831738460700,7.145460693359375,-0.0183829665184021,-0.11779975891113281,-0.0018399357795715332
1772642831758469400,7.165469482421875,-0.029562175273895264,-0.08958625793457031,0.015230417251586914
1772642831778478000,7.18547802734375,-0.025117993354797363,-0.0989675521850586,0.027751624584197998
1772642831798486800,7.20548681640625,-0.016798853874206543,-0.12930679321289062,0.018493592739105225
1772642831818495500,7.22549560546875,0.017147302627563477,-0.1219778060913086,0.02171260118484497
1772642831838504400,7.24550439453125,-0.01375722885131836,-0.13393497467041016,0.007726490497589111
1772642831858513200,7.26551318359375,0.00018894672393798828,-0.10999298095703125,0.012484133243560791
1772642831878521900,7.28552197265625,-0.00615459680557251,-0.11713027954101562,0.007310807704925537
1772642831898530600,7.305530517578125,-0.00996488332748413,-0.11466407775878906,0.0213661789894104
1772642831918539300,7.325539306640625,0.006758928298950195,-0.13137149810791016,0.005166411399841309
1772642831938548000,7.3455478515625,0.004242062568664551,-0.12414360046386719,-0.004248976707458496
1772642831958556700,7.365556640625,0.015568733215332031,-0.1145639419555664,0.006162106990814209
1772642831978565400,7.3855654296875,-0.013511240482330322,-0.11214733123779297,-0.012233436107635498
1772642831998574000,7.405573974609375,-0.005991458892822266,-0.11478614807128906,-0.020437300205230713
1772642832018582800,7.425582763671875,0.00858992338180542,-0.12703990936279297,-0.03852510452270508
1772642832038591700,7.445591796875,0.015580594539642334,-0.1270437240600586,-0.03352928161621094
1772642832058600700,7.4656005859375,-0.008340299129486084,-0.12465572357177734,-0.02849036455154419
1772642832078611000,7.48561083984375,-0.017174899578094482,-0.10781192779541016,-0.004059314727783203
1772642832098621400,7.505621337890625,0.016911983489990234,-0.10771369934082031,-0.01769310235977173
1772642832118631700,7.525631591796875,0.011867344379425049,-0.1268310546875,-0.0017197728157043457
1772642832138642000,7.545641845703125,0.006524324417114258,-0.1291790008544922,-0.01941150426864624
1772642832158652400,7.56565234375,0.01362597942352295,-0.12196159362792969,-0.02363002300262451
1772642832178662700,7.58566259765625,0.018159449100494385,-0.09322166442871094,-0.0089949369430542
1772642832198673200,7.605673095703125,0.0003548860549926758,-0.12407779693603516,-0.008504986763000488
1772642832218683400,7.625683349609375,-0.0007558465003967285,-0.1429576873779297,-0.012723565101623535
1772642832238694000,7.64569384765625,-0.024677574634552002,-0.0877847671508789,-0.043358802795410156
1772642832258704100,7.6657041015625,0.030011475086212158,-0.09493160247802734,-0.017951548099517822
1772642832278714400,7.68571435546875,-0.01562422513961792,-0.10683917999267578,-0.029010355472564697
1772642832298724900,7.705724853515625,0.0010753870010375977,-0.10439014434814453,-0.02813124656677246
1772642832318735000,7.725735107421875,-0.008283495903015137,-0.12109375,0.00430142879486084
1772642832338745600,7.74574560546875,0.0009683966636657715,-0.1258687973022461,-0.004879415035247803
1772642832358755800,7.765755859375,0.019469141960144043,-0.10912609100341797,0.03185772895812988
1772642832378766000,7.78576611328125,-0.02854865789413452,-0.09954166412353516,0.02726614475250244
1772642832398776600,7.805776611328125,0.004713773727416992,-0.0947561264038086,0.02996450662612915
1772642832418786800,7.825786865234375,0.009096980094909668,-0.1019582748413086,0.015925168991088867
1772642832438797300,7.84579736328125,0.01587730646133423,-0.12357234954833984,0.037208497524261475
1772642832458807600,7.8658076171875,-0.005143523216247559,-0.08280754089355469,0.027508258819580078
1772642832478817800,7.88581787109375,-0.007350027561187744,-0.11633872985839844,0.02492237091064453
1772642832498828300,7.905828369140625,0.021536052227020264,-0.11153697967529297,0.0033461451530456543
1772642832518838500,7.925838623046875,-0.04333430528640747,-0.1259603500366211,0.00525277853012085
1772642832538849000,7.94584912109375,-0.01483917236328125,-0.11882305145263672,-0.019393503665924072
1772642832558858800,7.965858642578125,0.016079306602478027,-0.09964656829833984,-0.009320676326751709
1772642832578868000,7.985867919921875,0.02624332904815674,-0.10434436798095703,0.0011419057846069336
1772642832598877000,8.005876953125,-0.013179361820220947,-0.1117105484008789,-0.005631446838378906
1772642832618886000,8.025885986328126,-0.022325575351715088,-0.1167745590209961,-0.005421876907348633
1772642832638894800,8.045894775390625,-0.020219802856445312,-0.14316177368164062,-0.0052779316902160645
1772642832658904000,8.065904052734375,0.005163908004760742,-0.10734367370605469,-0.017908215522766113
1772642832678913000,8.0859130859375,0.004455208778381348,-0.1074228286743164,-0.003136157989501953
1772642832698922000,8.105921875,0.016032099723815918,-0.12667083740234375,-0.0038299560546875
1772642832718931000,8.125930908203125,-0.03860318660736084,-0.09312248229980469,-0.0043111443519592285
1772642832738940200,8.145940185546875,-0.00009107589721679688,-0.09548473358154297,0.007911205291748047
1772642832758949000,8.16594921875,0.014474809169769287,-0.1385793685913086,0.003199756145477295
1772642832778958000,8.1859580078125,0.012002408504486084,-0.0978250503540039,0.001382589340209961
1772642832798967000,8.205967041015626,0.00701904296875,-0.10708999633789062,0.01556539535522461
1772642832818976300,8.225976318359375,0.007124483585357666,-0.08755111694335938,0.020334899425506592
1772642832838985200,8.245985107421875,0.000492095947265625,-0.10657596588134766,0.014135658740997314
1772642832858994200,8.265994140625,0.01311028003692627,-0.12079715728759766,0.010751307010650635
1772642832879003100,8.286003173828124,0.02560722827911377,-0.10866641998291016,0.0027492642402648926
1772642832899012000,8.30601220703125,0.021083474159240723,-0.14686012268066406,0.004001200199127197
1772642832919021300,8.326021240234375,0.002329587936401367,-0.14916419982910156,-0.0019479990005493164
1772642832939030300,8.3460302734375,-0.01262134313583374,-0.11083412170410156,-0.013401567935943604
1772642832959039200,8.366039306640625,-0.006590843200683594,-0.11090087890625,-0.010814249515533447
1772642832979048200,8.386048095703124,-0.011840343475341797,-0.13969898223876953,-0.003779590129852295
1772642832999057400,8.406057373046876,0.007133781909942627,-0.11846351623535156,0.003617703914642334
1772642833019066400,8.42606640625,0.002323329448699951,-0.11642646789550781,0.0018014907836914062
1772642833039075300,8.446075439453125,-0.019780516624450684,-0.11889839172363281,-0.002942383289337158
1772642833059084500,8.46608447265625,-0.01749342679977417,-0.10211753845214844,-0.016993343830108643
1772642833079094300,8.48609423828125,-0.01485598087310791,-0.08286762237548828,-0.011239409446716309
1772642833099104300,8.506104248046874,-0.02452826499938965,-0.11153602600097656,0.0023443102836608887
1772642833119114000,8.526114013671876,-0.017062366008758545,-0.11384201049804688,0.01796942949295044
1772642833139124000,8.5461240234375,-0.02806025743484497,-0.11850166320800781,0.040171921253204346
1772642833159133700,8.5661337890625,-0.04000115394592285,-0.14241981506347656,0.05742853879928589
1772642833179143700,8.586143798828125,-0.01272362470626831,-0.14730548858642578,0.0365147590637207
1772642833199153400,8.6061533203125,-0.009964704513549805,-0.11838245391845703,0.01734405755996704
1772642833219163100,8.6261630859375,-0.014099717140197754,-0.10864067077636719,-0.0024957656860351562
1772642833239173000,8.646173095703125,0.0036739706993103027,-0.08243465423583984,0.009254097938537598
1772642833259182800,8.666182861328124,-0.024952828884124756,-0.1039876937866211,0.009156763553619385
1772642833279192800,8.68619287109375,0.025139927864074707,-0.11351299285888672,-0.007561385631561279
1772642833299202600,8.70620263671875,0.015018582344055176,-0.13268089294433594,-0.03112006187438965
1772642833319212500,8.726212646484376,-0.030329108238220215,-0.12309646606445312,-0.04003715515136719
1772642833339222300,8.74622216796875,-0.0022368431091308594,-0.09907913208007812,-0.03900712728500366
1772642833359232300,8.766232177734375,0.010265886783599854,-0.08940792083740234,-0.024009764194488525
1772642833379242000,8.786241943359375,-0.013122260570526123,-0.14921855926513672,-0.033235013484954834
1772642833399251700,8.806251708984375,0.0056934356689453125,-0.15642261505126953,-0.01758676767349243
1772642833419261700,8.82626171875,-0.00396120548248291,-0.10672473907470703,0.014535188674926758
1772642833439271400,8.846271484375,0.010397851467132568,-0.0947275161743164,0.0005002617835998535
1772642833459281400,8.866281494140624,0.010715067386627197,-0.09949398040771484,-0.011553466320037842
1772642833479291100,8.886291015625,-0.005013525485992432,-0.09941959381103516,-0.013872623443603516
1772642833499301000,8.906301025390626,-0.02059483528137207,-0.11605644226074219,0.0012586712837219238
1772642833519310800,8.926310791015625,-0.00837719440460205,-0.1398944854736328,0.012276053428649902
1772642833539320600,8.946320556640625,-0.0035086870193481445,-0.166168212890625,0.0038173794746398926
1772642833559330300,8.966330322265625,0.008225083351135254,-0.15176868438720703,0.009355366230010986
1772642833579339000,8.986339111328125,-0.030120909214019775,-0.1229696273803711,-0.006535708904266357
1772642833599347700,9.00634765625,-0.005678296089172363,-0.108154296875,-0.022557079792022705
1772642833619356400,9.0263564453125,0.009960412979125977,-0.11003589630126953,-0.03374248743057251
1772642833639365000,9.046365234375,0.00826960802078247,-0.10510635375976562,-0.023015379905700684
1772642833659373800,9.066373779296875,-0.011182546615600586,-0.11226081848144531,0.004268348217010498
1772642833679382500,9.086382568359374,0.0002213120460510254,-0.12906932830810547,-0.009908020496368408
1772642833699391200,9.10639111328125,0.009262621402740479,-0.15067195892333984,0.014140844345092773
1772642833719400000,9.12639990234375,-0.019905269145965576,-0.09080982208251953,0.004829108715057373
1772642833739408600,9.14640869140625,0.009117066860198975,-0.10750198364257812,0.012765467166900635
1772642833759417300,9.166417236328124,-0.01628345251083374,-0.09059619903564453,0.025516092777252197
1772642833779426000,9.186426025390626,-0.017976880073547363,-0.09532928466796875,0.003839254379272461
1772642833799434800,9.206434814453125,0.012013494968414307,-0.13356304168701172,0.020593345165252686
1772642833819443500,9.226443359375,0.0058370232582092285,-0.1310739517211914,0.020879089832305908
1772642833839452400,9.246452392578124,0.0050206780433654785,-0.10453128814697266,0.0021642446517944336
1772642833859461000,9.266461181640626,-0.008865177631378174,-0.12356185913085938,-0.0012655258178710938
1772642833879469800,9.2864697265625,-0.03305089473724365,-0.1329946517944336,-0.005735874176025391
1772642833899478500,9.306478515625,0.004559040069580078,-0.11371517181396484,0.009420990943908691
1772642833919487200,9.3264873046875,0.025759875774383545,-0.1016378402709961,-0.010609090328216553
1772642833939496000,9.346495849609376,0.03333306312561035,-0.08982372283935547,-0.0015178322792053223
1772642833959506000,9.366505859375,0.015441060066223145,-0.1271820068359375,0.0008317232131958008
1772642833979516400,9.386516357421876,0.016696572303771973,-0.13252544403076172,-0.0010406970977783203
1772642833999526700,9.406526611328125,-0.0038343071937561035,-0.09958934783935547,0.003951072692871094
1772642834019537200,9.426537109375,0.010326087474822998,-0.1143198013305664,0.024430513381958008
1772642834039547400,9.44654736328125,-0.0012016892433166504,-0.06445789337158203,-0.028215110301971436
1772642834059558000,9.466557861328125,0.008446931838989258,-0.10089588165283203,-0.0074890851974487305
1772642834079568100,9.486568115234375,0.001069784164428711,-0.1251354217529297,0.008331775665283203
1772642834099578600,9.50657861328125,-0.029723167419433594,-0.08493804931640625,-0.021277308464050293
1772642834119588900,9.5265888671875,-0.029955506324768066,-0.092620849609375,0.002338886260986328
