time,seconds_elapsed,z,y,x
1772642824792781300,0.19978125,0.005060001742094755,0.01438105758279562,-0.001997369108721614
1772642824812790800,0.219790771484375,0.0045273699797689915,0.012783162295818329,-0.00519315991550684
1772642824822795500,0.22979541015625,0.0029294746927917004,0.01704421639442444,-0.003595264395698905
1772642824832800300,0.23980029296875,0.006657897029072046,0.01651158556342125,-0.0030626326333731413
1772642824842805200,0.24980517578125,0.008788423612713814,0.019174743443727493,0.0006657897029072046
1772642824852810000,0.25981005859375,0.009853687137365341,0.02024000696837902,0.0022636849898844957
1772642824862814700,0.269814697265625,0.008255792781710625,0.018109479919075966,0.0022636849898844957
1772642824872819500,0.2798193359375,0.009321056306362152,0.017576847225427628,0.0027963167522102594
1772642824882824200,0.28982421875,0.009321056306362152,0.01597895286977291,0.00013315794058144093
1772642824892829000,0.299828857421875,0.00719052879139781,0.015446321107447147,-0.0030626326333731413
1772642824902834000,0.309833984375,0.006125265266746283,0.013315794058144093,-0.006258423440158367
1772642824912838700,0.319838623046875,0.005060001742094755,0.013848425820469856,-0.008921582251787186
1772642824922843400,0.329843505859375,0.0045273699797689915,0.012250530533492565,-0.008921582251787186
1772642824932848000,0.33984814453125,0.006657897029072046,0.011717898771166801,-0.006125265266746283
1772642824942852900,0.349852783203125,0.006125265266746283,0.012783162295818329,-0.0013315794058144093
1772642824952857900,0.35985791015625,0.005592633504420519,0.013315794058144093,0.0007989476434886456
1772642824962862600,0.369862548828125,0.0057257916778326035,0.01438105758279562,0.0013315794058144093
1772642824972867300,0.379867431640625,0.006791055202484131,0.012783162295818329,0.0007989476434886456
1772642824982872000,0.3898720703125,0.0009321055840700865,0.00852210819721222,-0.0007989476434886456
1772642824992876800,0.399876708984375,-0.0006657897029072046,0.004793685860931873,-0.00026631588116288185
1772642825002881500,0.409881591796875,-0.0007989476434886456,0.004793685860931873,0.0007989476434886456
1772642825012886500,0.419886474609375,-0.0007989476434886456,0.003195790573954582,-0.0003994738217443228
1772642825022891300,0.429891357421875,-0.001864211168140173,0.00426105409860611,-0.001997369108721614
1772642825032896000,0.43989599609375,0.0013315794058144093,0.0026631588116288185,-0.0030626326333731413
1772642825042900700,0.449900634765625,0.001864211168140173,0.0010652635246515274,-0.00519315991550684
1772642825052905500,0.459905517578125,0.005592633504420519,0.001597895286977291,-0.004127896390855312
1772642825062910500,0.469910400390625,0.006125265266746283,0.003728422336280346,-0.0030626326333731413
1772642825072915500,0.47991552734375,0.005592633504420519,0.0010652635246515274,-0.001997369108721614
1772642825082920400,0.48992041015625,0.00719052879139781,-0.0005326317623257637,-0.001997369108721614
1772642825092925700,0.49992578125,0.005060001742094755,-0.004793685860931873,-0.0003994738217443228
1772642825102930700,0.5099306640625,0.003462106455117464,-0.006924212910234928,-0.0009321055840700865
1772642825112935700,0.519935791015625,0.0045273699797689915,-0.009054739959537983,0.00013315794058144093
1772642825122940700,0.529940673828125,0.0023968429304659367,-0.007456844672560692,0.0006657897029072046
1772642825132946000,0.53994580078125,0.0023968429304659367,-0.009587371721863747,-0.0009321055840700865
1772642825142951000,0.549950927734375,0.001864211168140173,-0.009587371721863747,-0.0014647373463958502
1772642825152956000,0.559955810546875,0.00026631588116288185,-0.009054739959537983,-0.0025300008710473776
1772642825162961000,0.5699609375,-0.00026631588116288185,-0.011185267008841038,-0.003595264395698905
1772642825172966000,0.5799658203125,-0.00026631588116288185,-0.007989476434886456,-0.004127896390855312
1772642825182971100,0.58997119140625,0.0013315794058144093,-0.010652635246515274,-0.003595264395698905
1772642825192976100,0.59997607421875,-0.00026631588116288185,-0.009587371721863747,-0.0003994738217443228
1772642825202981000,0.609981201171875,-0.001864211168140173,-0.009587371721863747,-0.0009321055840700865
1772642825212986000,0.619986083984375,0.00026631588116288185,-0.007989476434886456,-0.0025300008710473776
1772642825222991000,0.6299912109375,0.001864211168140173,-0.009054739959537983,-0.0057257916778326035
1772642825232996400,0.639996337890625,0.001864211168140173,-0.011717898771166801,-0.004660528153181076
1772642825243001300,0.65000146484375,0.0007989476434886456,-0.013315794058144093,-0.004660528153181076
1772642825253006300,0.66000634765625,0.0007989476434886456,-0.01597895286977291,-0.0009321055840700865
1772642825263011300,0.67001123046875,0.0007989476434886456,-0.013315794058144093,0.001731053227558732
1772642825273016300,0.680016357421875,0.0007989476434886456,-0.015446321107447147,0.0022636849898844957
1772642825283021300,0.690021240234375,0.0013315794058144093,-0.01438105758279562,-0.0009321055840700865
1772642825293026600,0.700026611328125,0.001864211168140173,-0.01012000348418951,-0.0030626326333731413
1772642825303031600,0.710031494140625,0.0007989476434886456,-0.010652635246515274,-0.003595264395698905
1772642825313036500,0.72003662109375,-0.00026631588116288185,-0.007456844672560692,-0.0009321055840700865
1772642825323041500,0.73004150390625,0.00026631588116288185,-0.005858949385583401,-0.0003994738217443228
1772642825333046500,0.740046630859375,0.00026631588116288185,-0.002130527049303055,-0.0003994738217443228
1772642825343051800,0.7500517578125,0.0013315794058144093,0,-0.001997369108721614
1772642825353056800,0.760056884765625,0.0007989476434886456,0.001597895286977291,-0.004660528153181076
1772642825363061800,0.770061767578125,0.0007989476434886456,0.0026631588116288185,-0.004127896390855312
1772642825373066800,0.780066650390625,0.001864211168140173,0.00426105409860611,-0.004660528153181076
1772642825383071700,0.79007177734375,0.0013315794058144093,0.0026631588116288185,-0.0025300008710473776
1772642825393077000,0.800076904296875,0.0007989476434886456,0.003195790573954582,0.0027963167522102594
1772642825403082000,0.81008203125,0.0013315794058144093,0.0005326317623257637,0.004394211806356907
1772642825413087000,0.8200869140625,0.001864211168140173,0.001597895286977291,0.006524738855659962
1772642825423092000,0.830092041015625,0.0013315794058144093,0.0010652635246515274,0.007057370617985725
1772642825433097200,0.84009716796875,0.003462106455117464,-0.0005326317623257637,0.004926843568682671
1772642825443102200,0.850102294921875,0.0013315794058144093,0.0010652635246515274,0.003861580276861787
1772642825453107200,0.860107177734375,0.0023968429304659367,0.001597895286977291,0.003861580276861787
1772642825463112200,0.8701123046875,0.005060001742094755,-0.003728422336280346,0.001731053227558732
1772642825473117200,0.8801171875,0.005592633504420519,0.0010652635246515274,0.0011984214652329683
1772642825483122400,0.890122314453125,0.005592633504420519,0.0005326317623257637,-0.0025300008710473776
1772642825493127400,0.90012744140625,0.007723160553723574,0.006924212910234928,-0.003595264395698905
1772642825503132400,0.91013232421875,0.00719052879139781,0.006924212910234928,-0.006791055202484131
1772642825513137400,0.920137451171875,0.006125265266746283,0.00852210819721222,-0.006258423440158367
1772642825523142400,0.930142333984375,0.003462106455117464,0.007456844672560692,-0.0030626326333731413
1772642825533147600,0.940147705078125,0.003994738217443228,0.001597895286977291,0.0006657897029072046
1772642825543152600,0.950152587890625,0.0023968429304659367,-0.00426105409860611,0.001731053227558732
1772642825553157600,0.96015771484375,0.003994738217443228,-0.006391581147909164,0.003328948514536023
1772642825563162400,0.970162353515625,0.006125265266746283,-0.003195790573954582,0.0022636849898844957
1772642825573167400,0.98016748046875,0.008255792781710625,0.001597895286977291,0.001731053227558732
1772642825583172000,0.990172119140625,0.008788423612713814,0.003728422336280346,0.0006657897029072046
1772642825593176800,1.0001767578125,0.008255792781710625,0.003728422336280346,-0.004660528153181076
1772642825603181800,1.010181884765625,0.005060001742094755,0.006924212910234928,-0.004127896390855312
1772642825613186600,1.0201865234375,0.0045273699797689915,0.006391581147909164,-0.0030626326333731413
1772642825623191300,1.03019140625,0.003462106455117464,0.004793685860931873,0.0011984214652329683
1772642825633196300,1.0401962890625,0.0045273699797689915,0.00426105409860611,0.005992107093334198
1772642825643201000,1.050200927734375,0.0007989476434886456,-0.002130527049303055,0.008655265904963017
1772642825653205800,1.060205810546875,0.0029294746927917004,-0.003195790573954582,0.011318424716591835
1772642825663210500,1.07021044921875,-0.00026631588116288185,-0.007456844672560692,0.006524738855659962
1772642825673215500,1.080215576171875,-0.0007989476434886456,-0.005858949385583401,0.008122634142637253
1772642825683220200,1.09022021484375,-0.00026631588116288185,-0.003728422336280346,0.005459475331008434
1772642825693225000,1.100224853515625,-0.0013315794058144093,-0.003195790573954582,0.004394211806356907
1772642825703229700,1.110229736328125,-0.0023968429304659367,-0.00426105409860611,0.004394211806356907
1772642825713234700,1.120234619140625,-0.003994738217443228,-0.003728422336280346,0.003328948514536023
1772642825723239400,1.130239501953125,-0.0023968429304659367,-0.003195790573954582,0.0022636849898844957
1772642825733244400,1.140244384765625,-0.0029294746927917004,-0.007456844672560692,0.0022636849898844957
1772642825743249200,1.150249267578125,-0.001864211168140173,-0.005858949385583401,0.0006657897029072046
1772642825753254000,1.16025390625,-0.001864211168140173,-0.007456844672560692,0.001731053227558732
1772642825763258600,1.170258544921875,0.00026631588116288185,-0.005858949385583401,-0.0014647373463958502
1772642825773263600,1.180263671875,-0.0029294746927917004,-0.005858949385583401,-0.0025300008710473776
1772642825783268400,1.190268310546875,-0.0029294746927917004,-0.00426105409860611,-0.0057257916778326035
1772642825793273000,1.200273193359375,-0.005592633504420519,-0.003195790573954582,-0.0073236869648098946
1772642825803277800,1.21027783203125,-0.0045273699797689915,-0.003195790573954582,-0.0057257916778326035
1772642825813282800,1.22028271484375,-0.003994738217443228,0.001597895286977291,-0.00519315991550684
1772642825823287600,1.23028759765625,-0.003994738217443228,-0.0005326317623257637,-0.0057257916778326035
1772642825833292300,1.240292236328125,-0.005592633504420519,-0.003195790573954582,-0.006258423440158367
1772642825843297300,1.25029736328125,-0.0029294746927917004,-0.007456844672560692,-0.0073236869648098946
1772642825853302000,1.260302001953125,-0.003994738217443228,-0.005326317623257637,-0.004127896390855312
1772642825863306800,1.270306640625,0.001864211168140173,-0.00426105409860611,-0.001997369108721614
1772642825873311700,1.280311767578125,-0.003994738217443228,-0.004793685860931873,-0.0003994738217443228
1772642825883316500,1.29031640625,-0.003994738217443228,0.0005326317623257637,-0.004127896390855312
1772642825893321200,1.3003212890625,-0.0029294746927917004,0.00426105409860611,-0.007856318727135658
1772642825903326000,1.310325927734375,-0.003462106455117464,0.006924212910234928,-0.010519477538764477
1772642825913331000,1.3203310546875,-0.0029294746927917004,0.00852210819721222,-0.010519477538764477
1772642825923335700,1.330335693359375,-0.0013315794058144093,0.010652635246515274,-0.009986845776438713
1772642825933340400,1.34034033203125,0.0023968429304659367,0.011717898771166801,-0.007856318727135658
1772642825943345400,1.350345458984375,0.0013315794058144093,0.006391581147909164,-0.0073236869648098946
1772642825953350100,1.36035009765625,0.001864211168140173,0.006391581147909164,-0.004660528153181076
1772642825963355000,1.37035498046875,-0.001864211168140173,0.005326317623257637,-0.0014647373463958502
1772642825973359900,1.38035986328125,-0.0045273699797689915,0.003195790573954582,0.0006657897029072046
1772642825983364600,1.390364501953125,-0.005060001742094755,0.00426105409860611,0.0027963167522102594
1772642825993369300,1.400369384765625,-0.003994738217443228,0.009054739959537983,0.0006657897029072046
1772642826003374000,1.4103740234375,-0.0023968429304659367,0.01438105758279562,0.0022636849898844957
1772642826013379000,1.420379150390625,-0.003462106455117464,0.01704421639442444,0.00013315794058144093
1772642826023383800,1.4303837890625,-0.0029294746927917004,0.018109479919075966,0.00013315794058144093
1772642826033388500,1.440388427734375,-0.005060001742094755,0.014913689345121384,-0.0030626326333731413
1772642826043393500,1.4503935546875,-0.0045273699797689915,0.012783162295818329,-0.0030626326333731413
1772642826053398300,1.460398193359375,-0.005592633504420519,0.013315794058144093,-0.0003994738217443228
1772642826063403000,1.470403076171875,-0.005060001742094755,0.012250530533492565,0.001731053227558732
1772642826073407700,1.48040771484375,-0.005060001742094755,0.007989476434886456,0.00013315794058144093
1772642826083412500,1.49041259765625,-0.00719052879139781,0.007989476434886456,-0.0014647373463958502
1772642826093417200,1.500417236328125,-0.00719052879139781,0.004793685860931873,-0.0009321055840700865
1772642826103422200,1.510422119140625,-0.006125265266746283,0.00426105409860611,0.001731053227558732
1772642826113427000,1.520427001953125,-0.005592633504420519,0.005858949385583401,-0.0009321055840700865
1772642826123431700,1.530431640625,-0.007723160553723574,0.006924212910234928,-0.0009321055840700865
1772642826133436400,1.5404365234375,-0.008788423612713814,0.009587371721863747,-0.0030626326333731413
1772642826143441200,1.550441162109375,-0.008788423612713814,0.007456844672560692,-0.0025300008710473776
1772642826153446000,1.56044580078125,-0.008788423612713814,0.0026631588116288185,-0.001997369108721614
1772642826163450600,1.57045068359375,-0.008788423612713814,-0.0026631588116288185,-0.0014647373463958502
1772642826173455600,1.58045556640625,-0.00719052879139781,-0.009587371721863747,0.0027963167522102594
1772642826183460400,1.59046044921875,-0.0013315794058144093,-0.01012000348418951,0.005992107093334198
1772642826193465000,1.600465087890625,0.00026631588116288185,-0.005326317623257637,0.008655265904963017
1772642826203469800,1.6104697265625,0.00026631588116288185,0.0010652635246515274,0.007057370617985725
1772642826213474600,1.620474609375,-0.0007989476434886456,0.001597895286977291,0.005459475331008434
1772642826223479300,1.630479248046875,-0.0007989476434886456,0,0.0022636849898844957
1772642826233484000,1.640484130859375,-0.001864211168140173,0.0010652635246515274,-0.0003994738217443228
1772642826243488800,1.65048876953125,-0.0007989476434886456,-0.003195790573954582,0.00013315794058144093
1772642826253493500,1.660493408203125,-0.00026631588116288185,-0.006924212910234928,0.003328948514536023
1772642826263498500,1.67049853515625,0.00026631588116288185,-0.013848425820469856,0.0022636849898844957
1772642826273503200,1.680503173828125,-0.00026631588116288185,-0.01438105758279562,0.001731053227558732
1772642826283508000,1.690508056640625,0.0023968429304659367,-0.01438105758279562,0.0011984214652329683
1772642826293512700,1.7005126953125,0.001864211168140173,-0.01012000348418951,0.0022636849898844957
1772642826303517400,1.710517333984375,0.001864211168140173,-0.01012000348418951,0.0011984214652329683
1772642826313522200,1.720522216796875,0.0029294746927917004,-0.011717898771166801,0.004394211806356907
1772642826323527000,1.73052685546875,0.0013315794058144093,-0.012250530533492565,0.005992107093334198
1772642826333532000,1.740531982421875,0.0029294746927917004,-0.011717898771166801,0.005992107093334198
1772642826343536600,1.75053662109375,0.001864211168140173,-0.012250530533492565,0.007057370617985725
1772642826353541400,1.760541259765625,0.0029294746927917004,-0.006924212910234928,0.005992107093334198
1772642826363546000,1.770546142578125,0.0007989476434886456,-0.003728422336280346,0.003328948514536023
1772642826373550800,1.78055078125,-0.0007989476434886456,-0.003728422336280346,0.0027963167522102594
1772642826383555600,1.7905556640625,-0.003994738217443228,-0.005858949385583401,0.003328948514536023
1772642826393560300,1.800560302734375,-0.0045273699797689915,-0.006391581147909164,0.001731053227558732
1772642826403565300,1.8105654296875,-0.005592633504420519,-0.007456844672560692,0.0011984214652329683
1772642826413570000,1.820570068359375,-0.003462106455117464,-0.005326317623257637,0.0011984214652329683
1772642826423574800,1.83057470703125,-0.0045273699797689915,-0.004793685860931873,0.0022636849898844957
1772642826433579500,1.84057958984375,-0.0029294746927917004,-0.007456844672560692,0.0027963167522102594
1772642826443584300,1.850584228515625,-0.0007989476434886456,-0.012250530533492565,0.003861580276861787
1772642826453589000,1.860589111328125,0.0007989476434886456,-0.01597895286977291,0.006524738855659962
1772642826463593700,1.87059375,0.0013315794058144093,-0.01704421639442444,0.006524738855659962
1772642826473598500,1.880598388671875,0.0029294746927917004,-0.01597895286977291,0.008122634142637253
1772642826483603200,1.890603271484375,0.003462106455117464,-0.01597895286977291,0.008122634142637253
1772642826493608200,1.900608154296875,0.006125265266746283,-0.014913689345121384,0.005459475331008434
1772642826503618300,1.910618408203125,0.005592633504420519,-0.019174743443727493,0.0011984214652329683
1772642826513623000,1.920623046875,0.006657897029072046,-0.018109479919075966,0.0027963167522102594
1772642826523627800,1.930627685546875,0.006125265266746283,-0.02024000696837902,0.0006657897029072046
1772642826533632800,1.9406328125,0.006657897029072046,-0.015446321107447147,0.0011984214652329683
1772642826543637500,1.950637451171875,0.003994738217443228,-0.014913689345121384,-0.0009321055840700865
1772642826553642200,1.960642333984375,0.0045273699797689915,-0.011717898771166801,-0.0030626326333731413
1772642826563646700,1.970646728515625,0.003462106455117464,-0.006924212910234928,-0.00519315991550684
1772642826573651200,1.980651123046875,0.0029294746927917004,-0.005326317623257637,-0.006791055202484131
1772642826583655700,1.99065576171875,0.001864211168140173,-0.001597895286977291,-0.006791055202484131
1772642826593660400,2.000660400390625,0.001864211168140173,-0.0026631588116288185,-0.007856318727135658
1772642826603665000,2.010664794921875,-0.0007989476434886456,-0.00426105409860611,-0.004660528153181076
1772642826613669400,2.02066943359375,-0.0007989476434886456,-0.003195790573954582,-0.0030626326333731413
1772642826623673900,2.030673828125,0.0007989476434886456,0.001597895286977291,0.00013315794058144093
1772642826633678300,2.04067822265625,0.0007989476434886456,0.004793685860931873,-0.0003994738217443228
1772642826643682800,2.050682861328125,0.001864211168140173,0.003728422336280346,0.0006657897029072046
1772642826653687300,2.060687255859375,-0.0013315794058144093,0.004793685860931873,-0.0025300008710473776
1772642826663691800,2.07069189453125,-0.003462106455117464,0.007989476434886456,-0.0014647373463958502
1772642826673696300,2.0806962890625,-0.005592633504420519,0.009587371721863747,-0.0003994738217443228
1772642826683701000,2.090700927734375,-0.005592633504420519,0.009054739959537983,-0.0025300008710473776
1772642826693705500,2.10070556640625,-0.005592633504420519,0.007989476434886456,-0.0057257916778326035
1772642826703710000,2.1107099609375,-0.005060001742094755,0.006391581147909164,-0.008388950489461422
1772642826713714400,2.12071435546875,-0.006125265266746283,0.005326317623257637,-0.0073236869648098946
1772642826723719000,2.130718994140625,-0.006657897029072046,0.007989476434886456,-0.010519477538764477
1772642826733723400,2.140723388671875,-0.005592633504420519,0.007456844672560692,-0.006791055202484131
1772642826743727900,2.150727783203125,-0.003994738217443228,0.006391581147909164,-0.006258423440158367
1772642826753732400,2.160732421875,-0.0045273699797689915,0.006924212910234928,-0.001997369108721614
1772642826763736800,2.17073681640625,-0.003994738217443228,0.007989476434886456,0.0006657897029072046
1772642826773741300,2.1807412109375,-0.005592633504420519,0.007456844672560692,0.0027963167522102594
1772642826783746000,2.19074609375,-0.005060001742094755,0.007456844672560692,0.001731053227558732
1772642826793750500,2.20075048828125,-0.005592633504420519,0.00852210819721222,0.00013315794058144093
1772642826803755000,2.210755126953125,-0.006125265266746283,0.01438105758279562,-0.0025300008710473776
1772642826813759500,2.220759521484375,-0.008255792781710625,0.01597895286977291,-0.006258423440158367
1772642826823764000,2.230763916015625,-0.009853687137365341,0.01597895286977291,-0.0057257916778326035
1772642826833768400,2.2407685546875,-0.010918950662016869,0.014913689345121384,-0.007856318727135658
1772642826843773000,2.25077294921875,-0.01038631983101368,0.013848425820469856,-0.007856318727135658
1772642826853777400,2.26077734375,-0.010918950662016869,0.013315794058144093,-0.004660528153181076
1772642826863782000,2.270781982421875,-0.011451583355665207,0.012250530533492565,-0.00519315991550684
1772642826873786600,2.28078662109375,-0.011451583355665207,0.01438105758279562,-0.004660528153181076
1772642826883791000,2.290791015625,-0.01038631983101368,0.007989476434886456,-0.0057257916778326035
1772642826893795600,2.300795654296875,-0.011451583355665207,0.006391581147909164,-0.006258423440158367
1772642826903800000,2.310800048828125,-0.010918950662016869,0.00426105409860611,-0.007856318727135658
1772642826913804500,2.320804443359375,-0.009321056306362152,0.006391581147909164,-0.007856318727135658
1772642826923809000,2.33080908203125,-0.006125265266746283,0.007989476434886456,-0.006258423440158367
1772642826933813500,2.3408134765625,-0.005060001742094755,0.010652635246515274,-0.0030626326333731413
1772642826943818000,2.35081787109375,-0.003994738217443228,0.011185267008841038,-0.004127896390855312
1772642826953822500,2.360822509765625,-0.003994738217443228,0.007989476434886456,-0.006258423440158367
1772642826963827200,2.3708271484375,-0.006125265266746283,0.011717898771166801,-0.006258423440158367
1772642826973831700,2.380831787109375,-0.003462106455117464,0.011185267008841038,-0.007856318727135658
1772642826983836200,2.390836181640625,-0.005060001742094755,0.013848425820469856,-0.009986845776438713
1772642826993840600,2.400840576171875,-0.0023968429304659367,0.011717898771166801,-0.00945421401411295
1772642827003845000,2.41084521484375,-0.0045273699797689915,0.006924212910234928,-0.007856318727135658
1772642827013849600,2.420849609375,-0.005060001742094755,0.002130527049303055,-0.0057257916778326035
1772642827023854000,2.43085400390625,-0.003994738217443228,-0.003728422336280346,-0.0025300008710473776
1772642827033858600,2.440858642578125,-0.003994738217443228,-0.003728422336280346,0.001731053227558732
1772642827043863000,2.450863037109375,-0.005592633504420519,-0.006391581147909164,0.004926843568682671
1772642827053867800,2.46086767578125,-0.005592633504420519,-0.010652635246515274,0.007590002380311489
1772642827063872000,2.4708720703125,-0.0013315794058144093,-0.011185267008841038,0.009720529429614544
1772642827073876500,2.48087646484375,-0.001864211168140173,-0.011717898771166801,0.009720529429614544
1772642827083881000,2.490880859375,-0.00026631588116288185,-0.011717898771166801,0.00918789766728878
1772642827093885200,2.50088525390625,0.00026631588116288185,-0.01012000348418951,0.010785792954266071
1772642827103889700,2.5108896484375,-0.0013315794058144093,-0.01597895286977291,0.009720529429614544
1772642827113894100,2.52089404296875,-0.0007989476434886456,-0.01597895286977291,0.00918789766728878
1772642827123898600,2.530898681640625,-0.0023968429304659367,-0.01438105758279562,0.010785792954266071
1772642827133902800,2.54090283203125,-0.003462106455117464,-0.018642112612724304,0.009720529429614544
1772642827143907300,2.5509072265625,-0.0029294746927917004,-0.017576847225427628,0.007057370617985725
1772642827153911800,2.560911865234375,-0.0045273699797689915,-0.017576847225427628,0.004394211806356907
1772642827163916000,2.570916015625,-0.0029294746927917004,-0.014913689345121384,0.0027963167522102594
1772642827173920500,2.58092041015625,0.0007989476434886456,-0.013848425820469856,0.003328948514536023
1772642827183925000,2.590925048828125,0.00026631588116288185,-0.014913689345121384,0.0022636849898844957
1772642827193929200,2.60092919921875,0.001864211168140173,-0.017576847225427628,0.004394211806356907
1772642827203933700,2.61093359375,0.001864211168140173,-0.015446321107447147,0.003861580276861787
1772642827213938200,2.620938232421875,0.0013315794058144093,-0.012783162295818329,0.003861580276861787
1772642827223942400,2.6309423828125,0.001864211168140173,-0.014913689345121384,0.004394211806356907
1772642827233947000,2.64094677734375,0.0013315794058144093,-0.011185267008841038,0.004394211806356907
1772642827243951400,2.650951416015625,0.0007989476434886456,-0.00852210819721222,0.004394211806356907
1772642827253955600,2.66095556640625,0.00026631588116288185,-0.005326317623257637,0.004926843568682671
1772642827263960000,2.6709599609375,-0.00026631588116288185,-0.0005326317623257637,0.006524738855659962
1772642827273964500,2.680964599609375,-0.0007989476434886456,0,0.0022636849898844957
1772642827283969000,2.690968994140625,-0.0023968429304659367,0.002130527049303055,0.0022636849898844957
1772642827293973200,2.70097314453125,-0.0023968429304659367,0.004793685860931873,0.0006657897029072046
1772642827303977700,2.710977783203125,-0.0029294746927917004,0.01012000348418951,0.0006657897029072046
1772642827313982200,2.720982177734375,-0.001864211168140173,0.012250530533492565,0.0011984214652329683
1772642827323986400,2.730986328125,-0.0013315794058144093,0.011185267008841038,-0.0009321055840700865
1772642827333991000,2.740990966796875,-0.0007989476434886456,0.01438105758279562,-0.0014647373463958502
1772642827343995400,2.750995361328125,0.0007989476434886456,0.01597895286977291,0.00013315794058144093
1772642827353999600,2.76099951171875,-0.0013315794058144093,0.01704421639442444,-0.0003994738217443228
1772642827364004000,2.771004150390625,-0.001864211168140173,0.013848425820469856,0.00013315794058144093
1772642827374008600,2.781008544921875,0.001864211168140173,0.012783162295818329,-0.0030626326333731413
1772642827384013000,2.791012939453125,0.0013315794058144093,0.01438105758279562,-0.004127896390855312
1772642827394017300,2.801017333984375,0.0045273699797689915,0.015446321107447147,-0.0014647373463958502
1772642827404021800,2.811021728515625,0.003462106455117464,0.012783162295818329,-0.0009321055840700865
1772642827414026000,2.82102587890625,0.0045273699797689915,0.007989476434886456,-0.0009321055840700865
1772642827424030500,2.831030517578125,0.0029294746927917004,0.003195790573954582,-0.0009321055840700865
1772642827434035000,2.841034912109375,0.0045273699797689915,-0.001597895286977291,0.0006657897029072046
1772642827444039400,2.851039306640625,0.003462106455117464,-0.0026631588116288185,0.0006657897029072046
1772642827454043600,2.861043701171875,0.005060001742094755,-0.002130527049303055,0.00013315794058144093
1772642827464048000,2.871048095703125,0.005592633504420519,-0.0010652635246515274,0.00013315794058144093
1772642827474052600,2.881052490234375,0.005592633504420519,0,-0.0030626326333731413
1772642827484056800,2.891056884765625,0.006125265266746283,0.0010652635246515274,-0.001997369108721614
1772642827494061300,2.901061279296875,0.0045273699797689915,-0.0010652635246515274,-0.001997369108721614
1772642827504065800,2.911065673828125,0.0045273699797689915,-0.002130527049303055,-0.0014647373463958502
1772642827514070000,2.921070068359375,0.003462106455117464,0.0010652635246515274,-0.0014647373463958502
1772642827524074500,2.931074462890625,0.0045273699797689915,0.0010652635246515274,-0.001997369108721614
1772642827534079000,2.941078857421875,0.001864211168140173,-0.0005326317623257637,-0.001997369108721614
1772642827544083500,2.95108349609375,0.0029294746927917004,-0.003195790573954582,0.00013315794058144093
1772642827554087700,2.961087646484375,0.001864211168140173,-0.0005326317623257637,0.00013315794058144093
1772642827564092200,2.971092041015625,-0.0007989476434886456,-0.0005326317623257637,-0.0003994738217443228
1772642827574096400,2.981096435546875,0.0007989476434886456,0.003728422336280346,-0.0009321055840700865
1772642827584100600,2.9911005859375,-0.0007989476434886456,0.005326317623257637,-0.0009321055840700865
1772642827594105000,3.00110498046875,-0.0007989476434886456,0.005858949385583401,-0.0009321055840700865
1772642827604109300,3.011109375,-0.001864211168140173,0.005326317623257637,-0.0009321055840700865
1772642827614113500,3.021113525390625,-0.00026631588116288185,0.007456844672560692,0.00013315794058144093
1772642827624117800,3.03111767578125,0.0013315794058144093,0.007989476434886456,0.00013315794058144093
1772642827634122200,3.041122314453125,0.0023968429304659367,0.013315794058144093,-0.0003994738217443228
1772642827644126500,3.05112646484375,0.00026631588116288185,0.01651158556342125,-0.004660528153181076
1772642827654131000,3.061130859375,-0.00026631588116288185,0.019174743443727493,-0.008388950489461422
1772642827664135200,3.07113525390625,-0.00026631588116288185,0.019707374274730682,-0.01105210930109024
1772642827674139400,3.081139404296875,-0.0023968429304659367,0.019707374274730682,-0.01105210930109024
1772642827684143900,3.091143798828125,-0.0007989476434886456,0.019707374274730682,-0.008388950489461422
1772642827694148000,3.101148193359375,-0.0007989476434886456,0.013315794058144093,-0.007856318727135658
1772642827704152300,3.11115234375,-0.0007989476434886456,0.006391581147909164,-0.004660528153181076
1772642827714156800,3.12115673828125,-0.0007989476434886456,0.0026631588116288185,-0.0014647373463958502
1772642827724161000,3.1311611328125,0.0007989476434886456,0,-0.0009321055840700865
1772642827734165200,3.141165283203125,0.0007989476434886456,-0.0010652635246515274,-0.0014647373463958502
1772642827744169700,3.151169677734375,-0.0007989476434886456,0,-0.0025300008710473776
1772642827754174000,3.161174072265625,-0.0007989476434886456,0.0026631588116288185,-0.0030626326333731413
1772642827764178200,3.17117822265625,-0.0013315794058144093,0.00426105409860611,-0.004127896390855312
1772642827774182700,3.1811826171875,-0.0013315794058144093,0.005326317623257637,-0.004660528153181076
1772642827784187000,3.191186767578125,-0.0007989476434886456,0.00426105409860611,-0.004660528153181076
1772642827794191000,3.201191162109375,0.00026631588116288185,0.003728422336280346,-0.003595264395698905
1772642827804195600,3.211195556640625,-0.0029294746927917004,0.002130527049303055,-0.0025300008710473776
1772642827814199800,3.22119970703125,-0.0029294746927917004,0.005326317623257637,-0.0025300008710473776
1772642827824204000,3.2312041015625,-0.0045273699797689915,0.005858949385583401,-0.0003994738217443228
1772642827834208500,3.24120849609375,-0.006125265266746283,0.004793685860931873,-0.0009321055840700865
1772642827844212700,3.251212646484375,-0.00719052879139781,0.004793685860931873,0.0022636849898844957
1772642827854217000,3.261217041015625,-0.007723160553723574,0.00426105409860611,0.003861580276861787
1772642827864221400,3.271221435546875,-0.006657897029072046,0.005858949385583401,0.0027963167522102594
1772642827874225700,3.2812255859375,-0.006657897029072046,0.007456844672560692,0.004394211806356907
1772642827884230000,3.29122998046875,-0.005060001742094755,0.006391581147909164,0.0011984214652329683
1772642827894234400,3.301234375,-0.003994738217443228,0.00426105409860611,0.0006657897029072046
1772642827904238600,3.311238525390625,-0.0007989476434886456,0.006391581147909164,-0.0003994738217443228
1772642827914242800,3.321242919921875,-0.00026631588116288185,0.005326317623257637,-0.0014647373463958502
1772642827924247300,3.331247314453125,0.0013315794058144093,0.005858949385583401,-0.0003994738217443228
1772642827934251500,3.34125146484375,0.0023968429304659367,0.005326317623257637,-0.001997369108721614
1772642827944255700,3.351255859375,0.001864211168140173,0.004793685860931873,-0.003595264395698905
1772642827954260200,3.36126025390625,0.005060001742094755,0.00426105409860611,-0.004127896390855312
1772642827964264400,3.371264404296875,0.0023968429304659367,0.006391581147909164,-0.003595264395698905
1772642827974269000,3.38126904296875,0.0029294746927917004,0.006924212910234928,-0.0025300008710473776
1772642827984273200,3.391273193359375,0.0029294746927917004,0.003195790573954582,-0.0009321055840700865
1772642827994277400,3.40127734375,0.0013315794058144093,-0.0005326317623257637,0.001731053227558732
1772642828004281900,3.41128173828125,0.0007989476434886456,-0.003195790573954582,0.0027963167522102594
1772642828014286000,3.4212861328125,0.0007989476434886456,-0.00852210819721222,0.0006657897029072046
1772642828024290300,3.431290283203125,0.001864211168140173,-0.01012000348418951,0.0022636849898844957
1772642828034294500,3.44129443359375,0.005060001742094755,-0.00852210819721222,0.001731053227558732
1772642828044299000,3.451299072265625,0.005592633504420519,-0.009054739959537983,0.006524738855659962
1772642828054303200,3.46130322265625,0.008788423612713814,-0.01012000348418951,0.005459475331008434
1772642828064307500,3.471307373046875,0.008255792781710625,-0.013848425820469856,0.003861580276861787
1772642828074311400,3.4813115234375,0.006657897029072046,-0.015446321107447147,0.0022636849898844957
1772642828084315400,3.4913154296875,0.00719052879139781,-0.01438105758279562,0.005992107093334198
1772642828094319600,3.501319580078125,0.0029294746927917004,-0.01438105758279562,0.006524738855659962
1772642828104323600,3.511323486328125,0.003462106455117464,-0.012250530533492565,0.005992107093334198
1772642828114327600,3.52132763671875,0.0013315794058144093,-0.013315794058144093,0.0011984214652329683
1772642828124331500,3.53133154296875,-0.00026631588116288185,-0.011185267008841038,-0.0014647373463958502
1772642828134335700,3.541335693359375,0.0013315794058144093,-0.009054739959537983,-0.003595264395698905
1772642828144339700,3.551339599609375,-0.0007989476434886456,-0.009587371721863747,0.0006657897029072046
1772642828154343700,3.56134375,-0.0007989476434886456,-0.004793685860931873,0.003861580276861787
1772642828164348000,3.571347900390625,-0.0007989476434886456,-0.005326317623257637,0.007057370617985725
1772642828174352000,3.581351806640625,-0.00026631588116288185,0.0005326317623257637,0.005992107093334198
1772642828184355800,3.59135595703125,0.001864211168140173,0,0.004926843568682671
1772642828194359800,3.60135986328125,0.001864211168140173,0,0.0022636849898844957
1772642828204364000,3.611364013671875,0.0013315794058144093,0.004793685860931873,0.0022636849898844957
1772642828214368000,3.621367919921875,0.0007989476434886456,0.006391581147909164,0.0006657897029072046
1772642828224372200,3.631372314453125,0.00026631588116288185,0.006924212910234928,-0.001997369108721614
1772642828234376200,3.641376220703125,0.0013315794058144093,0.005326317623257637,-0.001997369108721614
1772642828244380200,3.651380126953125,0.0007989476434886456,0.005858949385583401,-0.0030626326333731413
1772642828254384000,3.661384033203125,-0.0007989476434886456,0.009054739959537983,0.0006657897029072046
1772642828264388400,3.671388427734375,-0.0007989476434886456,0.00852210819721222,0.001731053227558732
1772642828274392300,3.681392333984375,-0.003462106455117464,0.009587371721863747,0.0011984214652329683
1772642828284396300,3.691396240234375,-0.003994738217443228,0.012250530533492565,0.0027963167522102594
1772642828294400300,3.701400146484375,-0.0045273699797689915,0.013315794058144093,0.0022636849898844957
1772642828304404500,3.711404541015625,-0.0029294746927917004,0.01012000348418951,0.0006657897029072046
1772642828314408400,3.721408447265625,-0.0023968429304659367,0.006391581147909164,0.001731053227558732
1772642828324412400,3.731412353515625,0.00026631588116288185,0.003728422336280346,0.0011984214652329683
1772642828334416600,3.741416748046875,0.0029294746927917004,0.005858949385583401,0.001731053227558732
1772642828344420600,3.751420654296875,0.0045273699797689915,0.003728422336280346,0.0006657897029072046
1772642828354424600,3.761424560546875,0.0045273699797689915,0.002130527049303055,0.001731053227558732
1772642828364428800,3.7714287109375,0.005592633504420519,0.0010652635246515274,0.003861580276861787
1772642828374432800,3.781432861328125,0.003462106455117464,-0.0010652635246515274,0.0011984214652329683
1772642828384436700,3.791436767578125,0.003994738217443228,-0.006924212910234928,0.0011984214652329683
1772642828394441000,3.80144091796875,0.0023968429304659367,-0.00852210819721222,-0.0009321055840700865
1772642828404445000,3.81144482421875,0.003462106455117464,-0.010652635246515274,-0.0003994738217443228
1772642828414449000,3.821448974609375,0.0045273699797689915,-0.006391581147909164,-0.004660528153181076
1772642828424452900,3.831452880859375,0.0029294746927917004,-0.003195790573954582,-0.008921582251787186
1772642828434457000,3.84145703125,0.003462106455117464,-0.005858949385583401,-0.007856318727135658
1772642828444461000,3.8514609375,0.003994738217443228,-0.006924212910234928,-0.00519315991550684
1772642828454465000,3.861465087890625,0.003994738217443228,-0.006391581147909164,-0.001997369108721614
1772642828464469200,3.87146923828125,0.003462106455117464,-0.005326317623257637,0.001731053227558732
1772642828474473200,3.88147314453125,0.005060001742094755,-0.0026631588116288185,0.0027963167522102594
1772642828484477200,3.891477294921875,0.003994738217443228,-0.004793685860931873,0.0027963167522102594
1772642828494481400,3.9014814453125,0.001864211168140173,-0.001597895286977291,-0.0014647373463958502
1772642828504485400,3.9114853515625,-0.00026631588116288185,-0.00426105409860611,-0.004127896390855312
1772642828514489300,3.9214892578125,-0.00026631588116288185,-0.005858949385583401,-0.0014647373463958502
1772642828524493600,3.93149365234375,-0.0023968429304659367,-0.005326317623257637,0.001731053227558732
1772642828534497500,3.94149755859375,-0.003462106455117464,-0.003195790573954582,0.001731053227558732
1772642828544501500,3.95150146484375,-0.003994738217443228,0.0005326317623257637,-0.0003994738217443228
1772642828554505500,3.96150537109375,-0.003462106455117464,0.001597895286977291,0.0011984214652329683
1772642828564510200,3.97151025390625,-0.003994738217443228,0.00426105409860611,0.0011984214652329683
1772642828574515000,3.981514892578125,-0.003462106455117464,0.006391581147909164,0.003328948514536023
1772642828584519700,3.991519775390625,-0.001864211168140173,0.007989476434886456,0.0006657897029072046
1772642828594524400,4.0015244140625,-0.001864211168140173,0.007989476434886456,0.0011984214652329683
1772642828604529200,4.011529052734375,-0.0007989476434886456,0.00426105409860611,0.00013315794058144093
1772642828614534000,4.021533935546875,-0.00026631588116288185,0.005326317623257637,0.00013315794058144093
1772642828624538600,4.03153857421875,0.0007989476434886456,0.0010652635246515274,0.0006657897029072046
1772642828634543400,4.04154345703125,-0.0007989476434886456,0.0010652635246515274,-0.0009321055840700865
1772642828644548000,4.051548095703125,-0.0007989476434886456,-0.002130527049303055,-0.001997369108721614
1772642828654552800,4.061552734375,0.00026631588116288185,-0.002130527049303055,-0.0030626326333731413
1772642828664557600,4.0715576171875,0.0013315794058144093,0,-0.001997369108721614
1772642828674562300,4.081562255859375,0.0023968429304659367,0.00426105409860611,-0.0030626326333731413
1772642828684567300,4.0915673828125,0.0029294746927917004,0,-0.001997369108721614
1772642828694572000,4.101572021484375,0.0029294746927917004,-0.0005326317623257637,0.0011984214652329683
1772642828704576800,4.11157666015625,0.0029294746927917004,-0.002130527049303055,0.003861580276861787
1772642828714581500,4.12158154296875,0.003994738217443228,-0.002130527049303055,0.003861580276861787
1772642828724586200,4.131586181640625,0.0023968429304659367,-0.006391581147909164,0.001731053227558732
1772642828734591000,4.141591064453125,0.003462106455117464,-0.004793685860931873,0.004394211806356907
1772642828744595700,4.151595703125,0.001864211168140173,-0.002130527049303055,0.003328948514536023
1772642828754600400,4.161600341796875,0.0013315794058144093,-0.0026631588116288185,0.0027963167522102594
1772642828764605200,4.171605224609375,0.0023968429304659367,-0.0026631588116288185,0.00013315794058144093
1772642828774610000,4.18160986328125,0.001864211168140173,-0.003195790573954582,-0.0030626326333731413
1772642828784614700,4.19161474609375,0.001864211168140173,-0.004793685860931873,-0.001997369108721614
1772642828794619400,4.201619384765625,0.003994738217443228,-0.0005326317623257637,-0.0009321055840700865
1772642828804624100,4.2116240234375,0.0023968429304659367,-0.001597895286977291,0.0011984214652329683
1772642828814628900,4.22162890625,0.0013315794058144093,-0.0005326317623257637,0.0027963167522102594
1772642828824633600,4.231633544921875,0.0007989476434886456,0.003195790573954582,0.0027963167522102594
1772642828834638300,4.241638427734375,-0.0013315794058144093,0.003195790573954582,0.0027963167522102594
1772642828844643000,4.25164306640625,-0.0029294746927917004,0.001597895286977291,0.00013315794058144093
1772642828854647800,4.261647705078125,-0.0045273699797689915,0.005326317623257637,-0.0025300008710473776
1772642828864652500,4.271652587890625,-0.006125265266746283,0.00852210819721222,-0.004127896390855312
1772642828874657500,4.281657470703125,-0.006125265266746283,0.011185267008841038,-0.0025300008710473776
1772642828884662300,4.291662353515625,-0.007723160553723574,0.011185267008841038,-0.0014647373463958502
1772642828894667000,4.3016669921875,-0.008788423612713814,0.013315794058144093,-0.001997369108721614
1772642828904671700,4.311671630859375,-0.009853687137365341,0.013315794058144093,-0.0003994738217443228
1772642828914676500,4.321676513671875,-0.010918950662016869,0.013315794058144093,-0.0009321055840700865
1772642828924681200,4.33168115234375,-0.01038631983101368,0.012250530533492565,0.00013315794058144093
1772642828934686000,4.34168603515625,-0.009853687137365341,0.010652635246515274,0.0011984214652329683
1772642828944690700,4.351690673828125,-0.007723160553723574,0.010652635246515274,0.003861580276861787
1772642828954695400,4.3616953125,-0.006657897029072046,0.007456844672560692,0.0027963167522102594
1772642828964700200,4.3717001953125,-0.006657897029072046,0.007456844672560692,0.0027963167522102594
1772642828974705000,4.381704833984375,-0.00719052879139781,0.009054739959537983,0.003861580276861787
1772642828984709600,4.391709716796875,-0.00719052879139781,0.007456844672560692,0.005459475331008434
1772642828994714400,4.40171435546875,-0.009321056306362152,0.0026631588116288185,0.004394211806356907
1772642829004719000,4.411718994140625,-0.0045273699797689915,-0.0005326317623257637,0.00013315794058144093
1772642829014723800,4.421723876953125,-0.001864211168140173,-0.002130527049303055,-0.0014647373463958502
1772642829024728800,4.431728759765625,0.001864211168140173,-0.0010652635246515274,0.0006657897029072046
1772642829034733600,4.441733642578125,0.0029294746927917004,-0.003728422336280346,-0.0009321055840700865
1772642829044738300,4.45173828125,0.0045273699797689915,-0.003728422336280346,-0.0030626326333731413
1772642829054743000,4.461742919921875,0.003994738217443228,-0.005326317623257637,-0.003595264395698905
1772642829064747800,4.471747802734375,0.0029294746927917004,-0.001597895286977291,-0.001997369108721614
1772642829074752500,4.48175244140625,0.005060001742094755,-0.002130527049303055,-0.001997369108721614
1772642829084757500,4.491757568359375,0.005060001742094755,-0.003195790573954582,-0.001997369108721614
1772642829094762200,4.50176220703125,0.00026631588116288185,-0.005326317623257637,-0.001997369108721614
1772642829104767200,4.511767333984375,0.00026631588116288185,-0.00852210819721222,-0.003595264395698905
1772642829114772000,4.52177197265625,0.001864211168140173,-0.010652635246515274,-0.006791055202484131
1772642829124777000,4.53177685546875,0.00026631588116288185,-0.011717898771166801,-0.006258423440158367
1772642829134781700,4.54178173828125,0.00026631588116288185,-0.013848425820469856,-0.006791055202484131
1772642829144786700,4.55178662109375,-0.0007989476434886456,-0.013848425820469856,-0.0014647373463958502
1772642829154791400,4.56179150390625,0.00026631588116288185,-0.009587371721863747,0.003861580276861787
1772642829164796400,4.57179638671875,-0.0007989476434886456,-0.006391581147909164,0.004926843568682671
1772642829174801200,4.58180126953125,0.001864211168140173,-0.0005326317623257637,0.004394211806356907
1772642829184806000,4.591805908203125,0.0007989476434886456,0.004793685860931873,0.003861580276861787
1772642829194811000,4.601810791015625,-0.0013315794058144093,0.006391581147909164,0.0011984214652329683
1772642829204815600,4.611815673828125,-0.0029294746927917004,0.00852210819721222,-0.0003994738217443228
1772642829214820600,4.621820556640625,-0.005060001742094755,0.00852210819721222,-0.003595264395698905
1772642829224825300,4.631825439453125,-0.006657897029072046,0.004793685860931873,-0.0025300008710473776
1772642829234830300,4.641830322265625,-0.005592633504420519,0.007456844672560692,0.0006657897029072046
1772642829244835000,4.6518349609375,-0.0023968429304659367,0.00852210819721222,0.004926843568682671
1772642829254840000,4.661840087890625,-0.0029294746927917004,0.007989476434886456,0.007057370617985725
1772642829264844800,4.6718447265625,0.00026631588116288185,0.009587371721863747,0.009720529429614544
1772642829274849800,4.681849853515625,0.00026631588116288185,0.011185267008841038,0.011318424716591835
1772642829284854500,4.6918544921875,-0.0023968429304659367,0.009054739959537983,0.009720529429614544
1772642829294859300,4.701859375,-0.0045273699797689915,0.006391581147909164,0.010253161191940308
1772642829304864300,4.7118642578125,-0.0007989476434886456,0.005858949385583401,0.009720529429614544
1772642829314869000,4.721868896484375,-0.0007989476434886456,0.0005326317623257637,0.007590002380311489
1772642829324874000,4.7318740234375,-0.0007989476434886456,-0.0010652635246515274,0.006524738855659962
1772642829334878700,4.741878662109375,0.0013315794058144093,-0.0026631588116288185,0.004394211806356907
1772642829344883700,4.7518837890625,0.0023968429304659367,-0.002130527049303055,0.0022636849898844957
1772642829354888400,4.761888427734375,0.003462106455117464,-0.003195790573954582,-0.0014647373463958502
1772642829364893400,4.7718935546875,0.0045273699797689915,-0.00426105409860611,-0.001997369108721614
1772642829374898200,4.781898193359375,0.0045273699797689915,-0.005326317623257637,-0.0003994738217443228
1772642829384903200,4.791903076171875,0.0029294746927917004,-0.006391581147909164,-0.0014647373463958502
1772642829394908000,4.801907958984375,0.0023968429304659367,-0.010652635246515274,-0.0025300008710473776
1772642829404913000,4.811912841796875,0.0023968429304659367,-0.011717898771166801,-0.0014647373463958502
1772642829414917600,4.821917724609375,0.0007989476434886456,-0.007456844672560692,0.0011984214652329683
1772642829424922400,4.83192236328125,0.0029294746927917004,-0.006924212910234928,0.001731053227558732
1772642829434927400,4.84192724609375,0.001864211168140173,-0.0010652635246515274,0.0027963167522102594
1772642829444932000,4.85193212890625,0.0023968429304659367,-0.00426105409860611,0.004394211806356907
1772642829454937000,4.86193701171875,0.003462106455117464,-0.004793685860931873,0.005459475331008434
1772642829464941800,4.87194189453125,0.0023968429304659367,-0.006391581147909164,0.007057370617985725
1772642829474946800,4.88194677734375,0.0007989476434886456,-0.007989476434886456,0.008655265904963017
1772642829484951600,4.89195166015625,0.0023968429304659367,-0.009587371721863747,0.011318424716591835
1772642829494956500,4.90195654296875,0.0007989476434886456,-0.007989476434886456,0.011851056478917599
1772642829504961300,4.911961181640625,0.001864211168140173,-0.007456844672560692,0.011318424716591835
1772642829514966300,4.92196630859375,0.0029294746927917004,-0.005326317623257637,0.006524738855659962
1772642829524971000,4.931970947265625,0.001864211168140173,0.0005326317623257637,0.0027963167522102594
1772642829534975700,4.941975830078125,0.0023968429304659367,0.007456844672560692,-0.0009321055840700865
1772642829544980700,4.951980712890625,0.001864211168140173,0.011717898771166801,-0.003595264395698905
1772642829554985500,4.9619853515625,0.0007989476434886456,0.01438105758279562,-0.0030626326333731413
1772642829564990500,4.971990478515625,0.001864211168140173,0.009587371721863747,-0.004127896390855312
1772642829574995200,4.9819951171875,-0.0007989476434886456,0.002130527049303055,-0.003595264395698905
1772642829585000200,4.992000244140625,0.0007989476434886456,0.0010652635246515274,-0.0009321055840700865
1772642829595005000,5.0020048828125,0.0007989476434886456,0.0026631588116288185,0.005459475331008434
1772642829605010000,5.012010009765625,0.0023968429304659367,0.0026631588116288185,0.007057370617985725
1772642829615014700,5.0220146484375,0.001864211168140173,0.0026631588116288185,0.003328948514536023
1772642829625019600,5.03201953125,0.005060001742094755,0.004793685860931873,0.0006657897029072046
1772642829635024400,5.0420244140625,0.0045273699797689915,0.006391581147909164,-0.001997369108721614
1772642829645029400,5.052029296875,0.003462106455117464,0.00852210819721222,-0.0025300008710473776
1772642829655034000,5.0620341796875,0.001864211168140173,0.004793685860931873,-0.0014647373463958502
1772642829665039000,5.0720390625,-0.0007989476434886456,0.001597895286977291,-0.0009321055840700865
1772642829675044000,5.082044189453125,-0.0023968429304659367,0.0026631588116288185,-0.0014647373463958502
1772642829685048800,5.092048828125,-0.0023968429304659367,0.003195790573954582,-0.0009321055840700865
1772642829695053800,5.1020537109375,-0.003462106455117464,0.006924212910234928,-0.0014647373463958502
1772642829705058600,5.11205859375,-0.0029294746927917004,0.009587371721863747,-0.0030626326333731413
1772642829715063600,5.1220634765625,-0.0045273699797689915,0.011717898771166801,-0.004660528153181076
1772642829725068300,5.132068359375,-0.003994738217443228,0.009587371721863747,-0.007856318727135658
1772642829735073300,5.1420732421875,-0.001864211168140173,0.011185267008841038,-0.006791055202484131
1772642829745078000,5.152078125,-0.00026631588116288185,0.013848425820469856,-0.004127896390855312
1772642829755083000,5.1620830078125,0.0007989476434886456,0.012783162295818329,-0.003595264395698905
1772642829765087700,5.172087646484375,0.003462106455117464,0.011717898771166801,-0.00519315991550684
1772642829775092700,5.1820927734375,0.001864211168140173,0.010652635246515274,-0.0025300008710473776
1772642829785097500,5.192097412109375,0.001864211168140173,0.011185267008841038,-0.004127896390855312
1772642829795102500,5.2021025390625,0.001864211168140173,0.007989476434886456,-0.004127896390855312
1772642829805107200,5.212107177734375,0.001864211168140173,0.01012000348418951,-0.006258423440158367
1772642829815112200,5.2221123046875,0.0023968429304659367,0.00426105409860611,-0.006258423440158367
1772642829825117000,5.232116943359375,0.0045273699797689915,0.005326317623257637,-0.008388950489461422
1772642829835122000,5.242121826171875,0.001864211168140173,-0.002130527049303055,-0.006258423440158367
1772642829845127000,5.252126953125,0.0013315794058144093,-0.002130527049303055,-0.0057257916778326035
1772642829855131600,5.262131591796875,0.001864211168140173,0.001597895286977291,-0.007856318727135658
1772642829865136600,5.27213671875,0.001864211168140173,0.0005326317623257637,-0.0030626326333731413
1772642829875141400,5.282141357421875,0.0023968429304659367,-0.0005326317623257637,-0.003595264395698905
1772642829885146400,5.292146484375,-0.001864211168140173,-0.002130527049303055,-0.0025300008710473776
1772642829895151000,5.302151123046875,-0.003994738217443228,-0.002130527049303055,-0.0030626326333731413
1772642829905156000,5.312156005859375,-0.005592633504420519,-0.006924212910234928,-0.0030626326333731413
1772642829915160800,5.322160888671875,-0.005060001742094755,-0.006391581147909164,-0.0057257916778326035
1772642829925165800,5.332165771484375,-0.005592633504420519,-0.007456844672560692,-0.0009321055840700865
1772642829935170600,5.342170654296875,-0.005060001742094755,-0.009587371721863747,-0.0009321055840700865
1772642829945175600,5.352175537109375,-0.005060001742094755,-0.01012000348418951,-0.0009321055840700865
1772642829955180300,5.36218017578125,-0.006125265266746283,-0.009587371721863747,-0.0003994738217443228
1772642829965185300,5.372185302734375,-0.0045273699797689915,-0.011185267008841038,0.0022636849898844957
1772642829975190000,5.38218994140625,-0.005060001742094755,-0.011185267008841038,0.0022636849898844957
1772642829985195000,5.392195068359375,-0.003994738217443228,-0.011717898771166801,0.0027963167522102594
1772642829995199700,5.40219970703125,-0.0013315794058144093,-0.013848425820469856,0.0022636849898844957
1772642830005204700,5.412204833984375,-0.00026631588116288185,-0.011717898771166801,-0.0003994738217443228
1772642830015209500,5.42220947265625,-0.0007989476434886456,-0.013848425820469856,-0.0014647373463958502
1772642830025214500,5.43221435546875,0.00026631588116288185,-0.013848425820469856,-0.004660528153181076
1772642830035219200,5.44221923828125,-0.0023968429304659367,-0.011717898771166801,-0.0030626326333731413
1772642830045224200,5.45222412109375,0.00026631588116288185,-0.01012000348418951,0.00013315794058144093
1772642830055229000,5.46222900390625,-0.001864211168140173,-0.011185267008841038,0.001731053227558732
1772642830065233700,5.472233642578125,-0.00026631588116288185,-0.011717898771166801,0.003328948514536023
1772642830075238400,5.48223828125,-0.0023968429304659367,-0.012783162295818329,0.003861580276861787
1772642830085243100,5.4922431640625,-0.0013315794058144093,-0.013848425820469856,-0.0009321055840700865
1772642830095248000,5.502247802734375,-0.0029294746927917004,-0.013315794058144093,-0.0014647373463958502
1772642830105252600,5.512252685546875,-0.001864211168140173,-0.012783162295818329,-0.0025300008710473776
1772642830115257300,5.52225732421875,0.001864211168140173,-0.011717898771166801,-0.0009321055840700865
1772642830125262000,5.532261962890625,0.0023968429304659367,-0.009587371721863747,0.003328948514536023
1772642830135266800,5.542266845703125,0.0029294746927917004,-0.009054739959537983,0.007057370617985725
1772642830145271600,5.552271484375,0.001864211168140173,-0.009054739959537983,0.010253161191940308
1772642830155276300,5.5622763671875,0.003462106455117464,-0.007456844672560692,0.006524738855659962
1772642830165280800,5.57228076171875,0.00026631588116288185,-0.005326317623257637,0.005992107093334198
1772642830175285500,5.582285400390625,-0.0023968429304659367,-0.003195790573954582,0.001731053227558732
1772642830185290200,5.592290283203125,-0.003994738217443228,-0.0026631588116288185,-0.0009321055840700865
1772642830195295000,5.602294921875,-0.0045273699797689915,-0.005326317623257637,-0.001997369108721614
1772642830205299700,5.6122998046875,-0.0045273699797689915,-0.005858949385583401,-0.006258423440158367
1772642830215304400,5.622304443359375,-0.0023968429304659367,-0.003195790573954582,-0.003595264395698905
1772642830225309200,5.63230908203125,-0.0029294746927917004,-0.002130527049303055,-0.004127896390855312
1772642830235314000,5.64231396484375,-0.0023968429304659367,-0.0026631588116288185,-0.0025300008710473776
1772642830245318700,5.652318603515625,-0.0023968429304659367,-0.0026631588116288185,0.001731053227558732
1772642830255323100,5.6623232421875,-0.003994738217443228,-0.0026631588116288185,0.0006657897029072046
1772642830265327900,5.672327880859375,-0.003994738217443228,-0.0010652635246515274,0.0011984214652329683
1772642830275332600,5.68233251953125,-0.005060001742094755,0.001597895286977291,-0.0003994738217443228
1772642830285337300,5.69233740234375,-0.005060001742094755,0.003195790573954582,-0.0009321055840700865
1772642830295342000,5.702342041015625,-0.008255792781710625,0.003195790573954582,0.0006657897029072046
1772642830305346800,5.712346923828125,-0.008255792781710625,0.006391581147909164,0.0006657897029072046
1772642830315351600,5.7223515625,-0.006657897029072046,0.006924212910234928,-0.0003994738217443228
1772642830325356300,5.732356201171875,-0.007723160553723574,0.007989476434886456,0.00013315794058144093
1772642830335361000,5.742361083984375,-0.008255792781710625,0.00852210819721222,0.0006657897029072046
1772642830345365800,5.75236572265625,-0.00719052879139781,0.010652635246515274,0.00013315794058144093
1772642830355370500,5.76237060546875,-0.008255792781710625,0.009054739959537983,0.0011984214652329683
1772642830365375000,5.772375,-0.01038631983101368,0.005858949385583401,0.00013315794058144093
1772642830375379700,5.782379638671875,-0.008788423612713814,0.004793685860931873,-0.0009321055840700865
1772642830385384400,5.792384521484375,-0.008788423612713814,0.006391581147909164,-0.001997369108721614
1772642830395389200,5.80238916015625,-0.005060001742094755,0.004793685860931873,-0.0030626326333731413
1772642830405394000,5.812393798828125,-0.0029294746927917004,0.004793685860931873,-0.00519315991550684
1772642830415398700,5.822398681640625,0.00026631588116288185,0.005326317623257637,-0.0073236869648098946
1772642830425403400,5.8324033203125,0.001864211168140173,0.00852210819721222,-0.007856318727135658
1772642830435408100,5.842408203125,0.0023968429304659367,0.007989476434886456,-0.0030626326333731413
1772642830445412900,5.852412841796875,0.0045273699797689915,0.002130527049303055,-0.0025300008710473776
1772642830455417300,5.862417236328125,0.005592633504420519,0.005858949385583401,-0.00519315991550684
1772642830465422000,5.872422119140625,0.006125265266746283,0.003195790573954582,-0.006258423440158367
1772642830475426800,5.8824267578125,0.006125265266746283,0.003728422336280346,-0.00519315991550684
1772642830485431600,5.892431640625,0.006125265266746283,0.005326317623257637,-0.00945421401411295
1772642830495436300,5.902436279296875,0.005060001742094755,0.0005326317623257637,-0.00945421401411295
1772642830505441000,5.91244091796875,0.003462106455117464,0,-0.012117372825741768
1772642830515445800,5.92244580078125,0.0013315794058144093,0.0005326317623257637,-0.012650004588067532
1772642830525450500,5.932450439453125,0.001864211168140173,0.002130527049303055,-0.014780531637370586
1772642830535455200,5.942455322265625,0.0007989476434886456,0.004793685860931873,-0.011584741063416004
1772642830545460000,5.9524599609375,0.00026631588116288185,0.00852210819721222,-0.008388950489461422
1772642830555464700,5.962464599609375,-0.001864211168140173,0.006391581147909164,-0.0030626326333731413
1772642830565469000,5.972468994140625,-0.003462106455117464,0.00426105409860611,-0.0009321055840700865
1772642830575473400,5.982473388671875,-0.0023968429304659367,0.002130527049303055,0.0022636849898844957
1772642830585477600,5.9924775390625,-0.003994738217443228,0.003195790573954582,0.003328948514536023
1772642830595482000,6.002482177734375,-0.0045273699797689915,0.004793685860931873,0.0022636849898844957
1772642830605486300,6.012486328125,-0.006125265266746283,0.00426105409860611,0.0027963167522102594
1772642830615490800,6.02249072265625,-0.008255792781710625,0.004793685860931873,0.0022636849898844957
1772642830625495000,6.0324951171875,-0.009853687137365341,0.00426105409860611,0.0011984214652329683
1772642830635499300,6.042499267578125,-0.012516846880316734,0.002130527049303055,0.00013315794058144093
1772642830645503700,6.052503662109375,-0.011451583355665207,-0.0010652635246515274,0.0011984214652329683
1772642830655508000,6.062508056640625,-0.01038631983101368,-0.002130527049303055,0.0022636849898844957
1772642830665512400,6.072512451171875,-0.00719052879139781,-0.003728422336280346,0.0027963167522102594
1772642830675516700,6.0825166015625,-0.007723160553723574,-0.0010652635246515274,0.0022636849898844957
1772642830685521200,6.092521240234375,-0.00719052879139781,-0.0005326317623257637,0.00013315794058144093
1772642830695525400,6.102525390625,-0.005592633504420519,-0.0010652635246515274,-0.0025300008710473776
1772642830705529900,6.11252978515625,-0.005592633504420519,-0.004793685860931873,-0.00519315991550684
1772642830715534000,6.1225341796875,-0.006125265266746283,-0.007456844672560692,-0.006791055202484131
1772642830725538600,6.13253857421875,-0.003462106455117464,-0.006391581147909164,-0.0057257916778326035
1772642830735543000,6.14254296875,-0.0023968429304659367,-0.007989476434886456,-0.003595264395698905
1772642830745547300,6.15254736328125,-0.0029294746927917004,-0.012783162295818329,-0.004127896390855312
1772642830755551700,6.1625517578125,-0.0029294746927917004,-0.015446321107447147,-0.0009321055840700865
1772642830765556000,6.172555908203125,-0.0023968429304659367,-0.014913689345121384,-0.0003994738217443228
1772642830775560400,6.182560546875,-0.0013315794058144093,-0.014913689345121384,0.00013315794058144093
1772642830785564700,6.192564697265625,-0.003462106455117464,-0.015446321107447147,-0.0014647373463958502
1772642830795569200,6.202569091796875,-0.0029294746927917004,-0.01012000348418951,-0.0014647373463958502
1772642830805573400,6.212573486328125,-0.005060001742094755,-0.01012000348418951,-0.001997369108721614
1772642830815577600,6.22257763671875,-0.005060001742094755,-0.003728422336280346,0.0006657897029072046
1772642830825582000,6.23258203125,-0.0029294746927917004,-0.004793685860931873,-0.0025300008710473776
1772642830835586300,6.24258642578125,-0.005592633504420519,-0.004793685860931873,0.0022636849898844957
1772642830845590800,6.2525908203125,-0.005060001742094755,-0.003728422336280346,0.003328948514536023
1772642830855595000,6.262594970703125,-0.005060001742094755,-0.007456844672560692,0.0011984214652329683
1772642830865599500,6.272599609375,-0.003462106455117464,-0.005858949385583401,0.0022636849898844957
1772642830875603700,6.282603759765625,-0.0029294746927917004,-0.003728422336280346,0.001731053227558732
1772642830885608200,6.292608154296875,-0.0029294746927917004,-0.003728422336280346,0.00013315794058144093
1772642830895612400,6.3026123046875,-0.0013315794058144093,-0.004793685860931873,0.003328948514536023
1772642830905617000,6.312616943359375,-0.0045273699797689915,-0.005858949385583401,0.003861580276861787
1772642830915621000,6.32262109375,-0.0023968429304659367,-0.00852210819721222,0.004394211806356907
1772642830925625600,6.33262548828125,-0.005592633504420519,-0.005326317623257637,0.0027963167522102594
1772642830935629800,6.3426298828125,-0.005060001742094755,-0.0026631588116288185,0.0027963167522102594
1772642830945634300,6.35263427734375,-0.005060001742094755,-0.003728422336280346,0.0027963167522102594
1772642830955638800,6.362638671875,-0.005592633504420519,-0.004793685860931873,0.0027963167522102594
1772642830965643000,6.37264306640625,-0.00719052879139781,-0.005858949385583401,0.0022636849898844957
1772642830975647200,6.382647216796875,-0.006125265266746283,-0.0026631588116288185,0.001731053227558732
1772642830985651700,6.392651611328125,-0.005060001742094755,-0.0005326317623257637,0.003861580276861787
1772642830995656000,6.402656005859375,-0.005060001742094755,0.0005326317623257637,0.0027963167522102594
1772642831005660400,6.412660400390625,-0.006125265266746283,0.0026631588116288185,0.0022636849898844957
1772642831015664600,6.42266455078125,-0.006125265266746283,0.0010652635246515274,0.0006657897029072046
1772642831025669000,6.432669189453125,-0.006125265266746283,0,0.00013315794058144093
1772642831035673300,6.44267333984375,-0.005060001742094755,-0.002130527049303055,0.003328948514536023
1772642831045677800,6.452677734375,-0.0045273699797689915,0,0.005992107093334198
1772642831055682000,6.46268212890625,-0.0023968429304659367,0.0005326317623257637,0.006524738855659962
1772642831065686000,6.47268603515625,-0.003994738217443228,0.002130527049303055,0.003861580276861787
1772642831075690000,6.48268994140625,-0.005060001742094755,0.0026631588116288185,0.0027963167522102594
1772642831085694000,6.49269384765625,-0.003462106455117464,0.006391581147909164,-0.0025300008710473776
1772642831095698000,6.502697998046875,-0.0045273699797689915,0.006391581147909164,-0.0014647373463958502
1772642831105702000,6.512701904296875,-0.001864211168140173,0.006391581147909164,-0.0025300008710473776
1772642831115705900,6.522705810546875,-0.0007989476434886456,0.006924212910234928,-0.003595264395698905
1772642831125709800,6.532709716796875,-0.0013315794058144093,0.006924212910234928,-0.0057257916778326035
1772642831135713800,6.5427138671875,-0.0023968429304659367,0.006924212910234928,-0.0057257916778326035
1772642831145717800,6.5527177734375,-0.001864211168140173,0.007989476434886456,-0.0030626326333731413
1772642831155721700,6.5627216796875,-0.0029294746927917004,0.010652635246515274,-0.004127896390855312
1772642831165725700,6.5727255859375,-0.003462106455117464,0.011717898771166801,-0.0003994738217443228
1772642831175729700,6.582729736328125,-0.001864211168140173,0.014913689345121384,-0.001997369108721614
1772642831185733600,6.592733642578125,0.001864211168140173,0.017576847225427628,-0.0057257916778326035
1772642831195737600,6.602737548828125,0.00026631588116288185,0.017576847225427628,-0.006258423440158367
1772642831205741600,6.612741455078125,0.00026631588116288185,0.01597895286977291,-0.006258423440158367
1772642831215745500,6.62274560546875,0.001864211168140173,0.01597895286977291,-0.0073236869648098946
1772642831225749500,6.63274951171875,0.001864211168140173,0.01438105758279562,-0.007856318727135658
1772642831235753500,6.64275341796875,-0.00026631588116288185,0.01438105758279562,-0.004660528153181076
1772642831245757400,6.65275732421875,0.0007989476434886456,0.01597895286977291,-0.004660528153181076
1772642831255761400,6.662761474609375,0.001864211168140173,0.01597895286977291,-0.004660528153181076
1772642831265765400,6.672765380859375,-0.0007989476434886456,0.013848425820469856,-0.004127896390855312
1772642831275769300,6.682769287109375,-0.0007989476434886456,0.010652635246515274,0.00013315794058144093
1772642831285773300,6.692773193359375,-0.0029294746927917004,0.006391581147909164,0.003328948514536023
1772642831295777000,6.702777099609375,-0.0023968429304659367,0.0010652635246515274,0.005992107093334198
1772642831305781000,6.712781005859375,-0.003462106455117464,-0.002130527049303055,0.007590002380311489
1772642831315785000,6.722784912109375,-0.0029294746927917004,-0.00426105409860611,0.007057370617985725
1772642831325789000,6.732788818359375,-0.005060001742094755,-0.003195790573954582,0.005459475331008434
1772642831335793000,6.74279296875,-0.0045273699797689915,-0.006391581147909164,0.001731053227558732
1772642831345796900,6.752796875,-0.00719052879139781,-0.009054739959537983,-0.0014647373463958502
1772642831355800800,6.76280078125,-0.006657897029072046,-0.012783162295818329,0.00013315794058144093
1772642831365804800,6.7728046875,-0.006125265266746283,-0.011717898771166801,-0.0009321055840700865
1772642831375808800,6.782808837890625,-0.006125265266746283,-0.009587371721863747,0.0011984214652329683
1772642831385812700,6.792812744140625,-0.003462106455117464,-0.011717898771166801,0.0011984214652329683
1772642831395816700,6.802816650390625,-0.0023968429304659367,-0.012250530533492565,0.001731053227558732
1772642831405820700,6.812820556640625,-0.0029294746927917004,-0.010652635246515274,0.001731053227558732
1772642831415824600,6.82282470703125,-0.00026631588116288185,-0.007989476434886456,-0.001997369108721614
1772642831425828600,6.83282861328125,0.0023968429304659367,-0.005858949385583401,-0.004127896390855312
1772642831435832600,6.84283251953125,0.0029294746927917004,-0.001597895286977291,-0.003595264395698905
1772642831445836500,6.85283642578125,0.003462106455117464,0.0010652635246515274,-0.006258423440158367
1772642831455840500,6.862840576171875,0.003994738217443228,0.003195790573954582,-0.006791055202484131
1772642831465844500,6.872844482421875,0.003994738217443228,0.0005326317623257637,-0.006258423440158367
1772642831475848400,6.882848388671875,0.0023968429304659367,-0.001597895286977291,-0.00519315991550684
1772642831485852400,6.892852294921875,0.0013315794058144093,-0.003728422336280346,-0.0057257916778326035
1772642831495856400,6.9028564453125,0.0013315794058144093,-0.009587371721863747,-0.004660528153181076
1772642831505860400,6.9128603515625,0.0007989476434886456,-0.011717898771166801,-0.004660528153181076
1772642831515864300,6.9228642578125,0.001864211168140173,-0.012250530533492565,-0.004127896390855312
1772642831525868300,6.932868408203125,0.0023968429304659367,-0.006391581147909164,-0.0073236869648098946
1772642831535872300,6.942872314453125,0.005592633504420519,-0.0010652635246515274,-0.0073236869648098946
1772642831545876200,6.952876220703125,0.006125265266746283,0.003728422336280346,-0.007856318727135658
1772642831555880200,6.962880126953125,0.005592633504420519,0.009054739959537983,-0.006258423440158367
1772642831565884400,6.972884521484375,0.007723160553723574,0.007456844672560692,-0.004660528153181076
1772642831575888600,6.982888671875,0.006657897029072046,0.004793685860931873,-0.003595264395698905
1772642831585893000,6.99289306640625,0.003462106455117464,0.0005326317623257637,-0.004127896390855312
1772642831595897300,7.0028974609375,0.0029294746927917004,-0.004793685860931873,-0.0009321055840700865
1772642831605901800,7.01290185546875,0.0013315794058144093,-0.00852210819721222,0.0006657897029072046
1772642831615906000,7.022906005859375,0.001864211168140173,-0.004793685860931873,0.003328948514536023
1772642831625910500,7.03291064453125,-0.0007989476434886456,-0.003195790573954582,0.004394211806356907
1772642831635914800,7.042914794921875,-0.0013315794058144093,-0.0010652635246515274,0.003861580276861787
1772642831645919200,7.052919189453125,-0.0013315794058144093,0.0005326317623257637,0.003861580276861787
1772642831655923700,7.062923828125,-0.00026631588116288185,0.006391581147909164,0.0022636849898844957
1772642831665928000,7.072927978515625,0.001864211168140173,0.010652635246515274,0.003861580276861787
1772642831675932400,7.082932373046875,0.0029294746927917004,0.009587371721863747,0.004926843568682671
1772642831685936600,7.0929365234375,0.00026631588116288185,0.007989476434886456,0.004926843568682671
1772642831695941000,7.102941162109375,0.001864211168140173,0.005858949385583401,0.003328948514536023
1772642831705945300,7.1129453125,-0.0007989476434886456,0.002130527049303055,-0.0009321055840700865
1772642831715949800,7.12294970703125,-0.00026631588116288185,-0.002130527049303055,-0.0009321055840700865
1772642831725954000,7.1329541015625,0.0007989476434886456,-0.006924212910234928,0.00013315794058144093
1772642831735958500,7.14295849609375,0.001864211168140173,-0.009587371721863747,-0.0014647373463958502
1772642831745963000,7.152962890625,0.0023968429304659367,-0.011717898771166801,-0.0009321055840700865
1772642831755967200,7.16296728515625,0.0029294746927917004,-0.011717898771166801,-0.0009321055840700865
1772642831765971500,7.172971435546875,0.0023968429304659367,-0.005326317623257637,-0.00519315991550684
1772642831775976000,7.182975830078125,0.003994738217443228,-0.006924212910234928,-0.008388950489461422
1772642831785980400,7.19298046875,0.0045273699797689915,-0.010652635246515274,-0.008388950489461422
1772642831795984600,7.202984619140625,0.0029294746927917004,-0.005858949385583401,-0.008388950489461422
1772642831805989000,7.212989013671875,0.006657897029072046,-0.003728422336280346,-0.006791055202484131
1772642831815993300,7.222993408203125,0.006125265266746283,-0.001597895286977291,-0.0030626326333731413
1772642831825997800,7.232997802734375,0.003994738217443228,-0.002130527049303055,-0.001997369108721614
1772642831836002000,7.243001953125,0.001864211168140173,-0.0010652635246515274,0.0011984214652329683
1772642831846006500,7.253006591796875,0.00026631588116288185,-0.0005326317623257637,0.0022636849898844957
1772642831856010800,7.2630107421875,0.00026631588116288185,0.005326317623257637,-0.0003994738217443228
1772642831866015200,7.27301513671875,-0.0023968429304659367,0.009587371721863747,-0.001997369108721614
1772642831876019700,7.283019775390625,-0.0029294746927917004,0.012250530533492565,-0.00519315991550684
1772642831886024000,7.29302392578125,-0.0045273699797689915,0.011717898771166801,-0.006258423440158367
1772642831896028400,7.3030283203125,-0.001864211168140173,0.012250530533492565,-0.006258423440158367
1772642831906032600,7.31303271484375,-0.001864211168140173,0.012783162295818329,-0.0030626326333731413
1772642831916037000,7.323037109375,0.0029294746927917004,0.01597895286977291,-0.0030626326333731413
1772642831926041300,7.333041259765625,0.003462106455117464,0.01597895286977291,-0.0003994738217443228
1772642831936045800,7.3430458984375,0.001864211168140173,0.015446321107447147,-0.0014647373463958502
1772642831946050000,7.353050048828125,0.001864211168140173,0.014913689345121384,0.001731053227558732
1772642831956054500,7.363054443359375,0.0023968429304659367,0.01438105758279562,0.003328948514536023
1772642831966058800,7.373058837890625,0.003994738217443228,0.01438105758279562,0.0011984214652329683
1772642831986067700,7.393067626953125,0.003994738217443228,0.017576847225427628,-0.0003994738217443228
1772642831996072000,7.403072021484375,0.0007989476434886456,0.01704421639442444,-0.001997369108721614
1772642832006076400,7.413076416015625,0.0029294746927917004,0.01597895286977291,0.0011984214652329683
1772642832016080600,7.42308056640625,-0.00026631588116288185,0.013315794058144093,-0.0009321055840700865
1772642832026085000,7.433085205078125,0.0007989476434886456,0.006391581147909164,-0.0003994738217443228
1772642832036089300,7.44308935546875,0.00026631588116288185,0.004793685860931873,0.0006657897029072046
1772642832046093800,7.45309375,0.00026631588116288185,0.0010652635246515274,0.0011984214652329683
1772642832056098000,7.46309814453125,0.00026631588116288185,0.0026631588116288185,0.001731053227558732
1772642832066103300,7.473103271484375,0.001864211168140173,0,0.00013315794058144093
1772642832076108500,7.483108642578125,0.0023968429304659367,-0.0005326317623257637,-0.0025300008710473776
1772642832086113500,7.493113525390625,0.0029294746927917004,0,-0.003595264395698905
1772642832096118800,7.503118896484375,0.003994738217443228,-0.002130527049303055,-0.0030626326333731413
1772642832106124000,7.5131240234375,0.0045273699797689915,-0.003195790573954582,0.00013315794058144093
1772642832116129000,7.52312890625,0.0045273699797689915,-0.0026631588116288185,0.001731053227558732
1772642832126134300,7.53313427734375,0.007723160553723574,-0.001597895286977291,0.0022636849898844957
1772642832136139500,7.543139404296875,0.008255792781710625,0.0010652635246515274,0.003328948514536023
1772642832146144800,7.553144775390625,0.003462106455117464,0.0026631588116288185,0.0006657897029072046
1772642832156149800,7.563149658203125,0.0029294746927917004,0,0.0006657897029072046
1772642832166155000,7.573155029296875,0.001864211168140173,-0.003195790573954582,0.0006657897029072046
1772642832176160300,7.58316015625,0.0023968429304659367,-0.003728422336280346,0.0011984214652329683
1772642832186165200,7.593165283203125,0.0013315794058144093,-0.005326317623257637,0.0027963167522102594
1772642832196170500,7.60317041015625,0.005060001742094755,-0.0026631588116288185,0.004394211806356907
1772642832206175700,7.61317578125,0.003462106455117464,-0.00426105409860611,0.005459475331008434
1772642832216180700,7.6231806640625,0.005592633504420519,-0.005326317623257637,0.004394211806356907
1772642832226186000,7.63318603515625,0.005592633504420519,-0.007989476434886456,0.003328948514536023
1772642832236191200,7.643191162109375,0.005592633504420519,-0.006391581147909164,-0.0003994738217443228
1772642832246196500,7.653196533203125,0.006125265266746283,-0.009054739959537983,0.0006657897029072046
1772642832256201500,7.663201416015625,0.006125265266746283,-0.009054739959537983,0.0027963167522102594
1772642832266206700,7.673206787109375,0.007723160553723574,-0.01438105758279562,0.003861580276861787
1772642832276212000,7.6832119140625,0.008255792781710625,-0.01651158556342125,0.0011984214652329683
1772642832286217000,7.693217041015625,0.005060001742094755,-0.01704421639442444,0.0022636849898844957
1772642832296222200,7.70322216796875,0.005592633504420519,-0.015446321107447147,0.001731053227558732
1772642832306227500,7.7132275390625,0.006657897029072046,-0.014913689345121384,0.00013315794058144093
1772642832316232400,7.723232421875,0.0045273699797689915,-0.017576847225427628,0.00013315794058144093
1772642832326237700,7.73323779296875,0.003994738217443228,-0.014913689345121384,0.00013315794058144093
1772642832336243000,7.743242919921875,0.005592633504420519,-0.011185267008841038,0.0027963167522102594
1772642832346248200,7.753248291015625,0.005060001742094755,-0.00852210819721222,0.004394211806356907
1772642832356253200,7.763253173828125,0.0029294746927917004,-0.006924212910234928,0.003861580276861787
1772642832366258400,7.773258544921875,0.0029294746927917004,-0.013315794058144093,0.0027963167522102594
1772642832376263700,7.783263671875,0.0023968429304659367,-0.011185267008841038,0.0022636849898844957
1772642832386268700,7.7932685546875,0.001864211168140173,-0.011185267008841038,0.0006657897029072046
1772642832396274000,7.80327392578125,0.0023968429304659367,-0.007989476434886456,0.0022636849898844957
1772642832406279200,7.813279052734375,0.003994738217443228,-0.005858949385583401,0.001731053227558732
1772642832416284200,7.8232841796875,0.001864211168140173,-0.0026631588116288185,0.0022636849898844957
1772642832426289400,7.833289306640625,0.0007989476434886456,-0.0010652635246515274,0.003328948514536023
1772642832436294700,7.843294677734375,-0.001864211168140173,0.0005326317623257637,0.001731053227558732
1772642832446300000,7.8532998046875,-0.0007989476434886456,0.0026631588116288185,-0.0009321055840700865
1772642832456305000,7.863304931640625,-0.00026631588116288185,0.0005326317623257637,-0.0025300008710473776
1772642832466310100,7.87331005859375,-0.0013315794058144093,0.005326317623257637,-0.003595264395698905
1772642832476315400,7.8833154296875,-0.0013315794058144093,0.004793685860931873,-0.0009321055840700865
1772642832486320400,7.8933203125,-0.00026631588116288185,0.007989476434886456,0.00013315794058144093
1772642832496325600,7.90332568359375,-0.0013315794058144093,0.004793685860931873,-0.0030626326333731413
1772642832506331000,7.913330810546875,-0.0007989476434886456,0.00426105409860611,0.0022636849898844957
1772642832516336000,7.923336181640625,-0.0029294746927917004,0.002130527049303055,0.0011984214652329683
1772642832526341000,7.933341064453125,-0.0029294746927917004,-0.0010652635246515274,0.0011984214652329683
1772642832536346400,7.943346435546875,-0.0029294746927917004,0.0005326317623257637,0.001731053227558732
1772642832546351600,7.9533515625,0.00026631588116288185,0.003728422336280346,0.0011984214652329683
1772642832556356600,7.963356689453125,0.001864211168140173,0.005858949385583401,0.0011984214652329683
1772642832566361000,7.973361083984375,0.001864211168140173,0.006924212910234928,-0.0009321055840700865
1772642832576365600,7.983365478515625,0.0029294746927917004,0.006391581147909164,-0.004660528153181076
1772642832586370000,7.9933701171875,0.0023968429304659367,0.004793685860931873,-0.00519315991550684
1772642832596374500,8.00337451171875,0.001864211168140173,0.005326317623257637,-0.0057257916778326035
1772642832606379300,8.013379150390625,-0.00026631588116288185,0.003195790573954582,-0.004127896390855312
1772642832616383700,8.0233837890625,0.0007989476434886456,0.005858949385583401,0.00013315794058144093
1772642832626388200,8.03338818359375,0.0007989476434886456,0.004793685860931873,0.001731053227558732
1772642832636392700,8.043392822265625,-0.0007989476434886456,0,0.0011984214652329683
1772642832646397200,8.053397216796874,-0.0029294746927917004,0.0010652635246515274,0.003861580276861787
1772642832656401700,8.063401611328125,-0.001864211168140173,0.0005326317623257637,0.004394211806356907
1772642832666406100,8.07340625,-0.001864211168140173,0.002130527049303055,0.005992107093334198
1772642832676410600,8.08341064453125,-0.001864211168140173,0.006391581147909164,0.001731053227558732
1772642832686415400,8.093415283203125,-0.0029294746927917004,0.005326317623257637,0.0027963167522102594
1772642832696419800,8.103419921875,-0.0045273699797689915,0.003195790573954582,0.0022636849898844957
1772642832706424300,8.11342431640625,-0.0023968429304659367,0.001597895286977291,-0.0003994738217443228
1772642832716428800,8.1234287109375,-0.0029294746927917004,-0.0026631588116288185,-0.0014647373463958502
1772642832726433300,8.133433349609374,0.00026631588116288185,-0.0005326317623257637,-0.0025300008710473776
1772642832736437800,8.143437744140625,0.0013315794058144093,-0.003728422336280346,0.00013315794058144093
1772642832746442200,8.153442138671876,0.001864211168140173,-0.003195790573954582,-0.0003994738217443228
1772642832756446700,8.16344677734375,0.00026631588116288185,-0.002130527049303055,-0.001997369108721614
1772642832766451200,8.173451171875,0.0007989476434886456,0.0010652635246515274,0.00013315794058144093
1772642832776456000,8.1834560546875,0.0029294746927917004,0.003728422336280346,0.0006657897029072046
1772642832786460400,8.19346044921875,0.0013315794058144093,0.003195790573954582,0.00013315794058144093
1772642832796465000,8.20346484375,0.0007989476434886456,0.002130527049303055,-0.0009321055840700865
1772642832806469400,8.213469482421875,0.0007989476434886456,0.0005326317623257637,-0.001997369108721614
1772642832816473900,8.223473876953125,0.003462106455117464,0.003728422336280346,-0.0025300008710473776
1772642832826478300,8.233478271484374,0.005060001742094755,0.0010652635246515274,-0.0009321055840700865
1772642832836482800,8.24348291015625,0.006125265266746283,0.0010652635246515274,-0.003595264395698905
1772642832846487300,8.2534873046875,0.007723160553723574,0.001597895286977291,-0.004127896390855312
1772642832856492000,8.263491943359375,0.006657897029072046,0.0026631588116288185,-0.003595264395698905
1772642832866496500,8.27349658203125,0.00719052879139781,0.00852210819721222,-0.0025300008710473776
1772642832876501000,8.2835009765625,0.007723160553723574,0.006924212910234928,-0.0030626326333731413
1772642832886505500,8.29350537109375,0.006125265266746283,0.006391581147909164,-0.004660528153181076
1772642832896510000,8.303510009765626,0.005592633504420519,0.009587371721863747,-0.0030626326333731413
1772642832906514400,8.313514404296875,0.005592633504420519,0.007989476434886456,-0.0030626326333731413
1772642832916519000,8.323518798828125,0.006125265266746283,0.006391581147909164,-0.0009321055840700865
1772642832926523400,8.3335234375,0.005592633504420519,0.007989476434886456,0.0006657897029072046
1772642832936528000,8.34352783203125,0.0029294746927917004,0.005858949385583401,0.003328948514536023
1772642832946532600,8.35353271484375,0.001864211168140173,0.00426105409860611,0.0027963167522102594
1772642832956537000,8.363537109375,0.0013315794058144093,0.004793685860931873,0.003328948514536023
1772642832966541600,8.37354150390625,-0.0013315794058144093,0.001597895286977291,0.004394211806356907
1772642832986550500,8.393550537109375,-0.0013315794058144093,0.00426105409860611,0.001731053227558732
1772642832996555000,8.403554931640626,-0.0007989476434886456,0,0.0006657897029072046
1772642833006559500,8.4135595703125,-0.00026631588116288185,-0.0010652635246515274,0.0011984214652329683
1772642833016564000,8.42356396484375,0.00026631588116288185,-0.0010652635246515274,0.003328948514536023
1772642833026568400,8.433568359375,-0.00026631588116288185,-0.003728422336280346,0.004926843568682671
1772642833036573200,8.4435732421875,0.00026631588116288185,-0.003195790573954582,0.005992107093334198
1772642833046577700,8.45357763671875,0.0007989476434886456,-0.00426105409860611,0.001731053227558732
1772642833056582100,8.46358203125,0.003462106455117464,-0.003195790573954582,0.001731053227558732
1772642833066587000,8.4735869140625,0.003462106455117464,-0.00426105409860611,-0.0003994738217443228
1772642833076591900,8.483591796875,0.0045273699797689915,-0.007989476434886456,-0.0003994738217443228
1772642833086596900,8.493596923828125,0.006657897029072046,-0.006391581147909164,0.00013315794058144093
1772642833096601900,8.503601806640624,0.007723160553723574,-0.005858949385583401,0.0011984214652329683
1772642833106606600,8.513606689453125,0.006657897029072046,-0.003728422336280346,0.0011984214652329683
1772642833116611600,8.523611572265626,0.0045273699797689915,-0.0026631588116288185,-0.001997369108721614
1772642833126616600,8.533616455078125,0.0045273699797689915,-0.003728422336280346,-0.001997369108721614
1772642833136621300,8.543621337890626,0.003994738217443228,-0.002130527049303055,-0.004660528153181076
1772642833146626300,8.553626220703125,0.003462106455117464,-0.003195790573954582,-0.003595264395698905
1772642833156631300,8.56363134765625,0.003994738217443228,-0.00426105409860611,0.0011984214652329683
1772642833166636300,8.57363623046875,0.003462106455117464,-0.002130527049303055,0.003861580276861787
1772642833176641000,8.58364111328125,0.003462106455117464,-0.0010652635246515274,0.007590002380311489
1772642833186646000,8.59364599609375,0.003994738217443228,0.003195790573954582,0.010785792954266071
1772642833196651000,8.603651123046875,0.0023968429304659367,0.003728422336280346,0.00918789766728878
1772642833206655700,8.61365576171875,0.001864211168140173,-0.0005326317623257637,0.006524738855659962
1772642833216660700,8.62366064453125,0.00026631588116288185,0.002130527049303055,0.008655265904963017
1772642833226665700,8.633665771484376,-0.0029294746927917004,0.002130527049303055,0.007590002380311489
1772642833236670700,8.643670654296875,-0.001864211168140173,0.005858949385583401,0.007590002380311489
1772642833246675500,8.653675537109375,-0.0007989476434886456,0.006924212910234928,0.004394211806356907
1772642833256680400,8.663680419921874,-0.0013315794058144093,0.007456844672560692,-0.0009321055840700865
1772642833266685400,8.673685546875,0.00026631588116288185,0.006924212910234928,-0.00519315991550684
1772642833276690400,8.6836904296875,0.0013315794058144093,0.00852210819721222,-0.0030626326333731413
1772642833286695200,8.693695068359375,0.0007989476434886456,0.012250530533492565,0.0006657897029072046
1772642833296700200,8.7037001953125,0.0029294746927917004,0.011185267008841038,0.0022636849898844957
1772642833306705200,8.713705078125,0.0007989476434886456,0.006391581147909164,0.0022636849898844957
1772642833316710000,8.7237099609375,0.0023968429304659367,0.0010652635246515274,0.003328948514536023
1772642833326715000,8.73371484375,0.0045273699797689915,0.001597895286977291,0.0011984214652329683
1772642833336720000,8.743719970703125,0.0045273699797689915,0.0010652635246515274,0.0011984214652329683
1772642833346724900,8.753724853515624,0.005592633504420519,-0.002130527049303055,-0.001997369108721614
1772642833356729600,8.7637294921875,0.003462106455117464,-0.003195790573954582,-0.001997369108721614
1772642833366734600,8.773734619140624,0.001864211168140173,-0.005858949385583401,-0.004127896390855312
1772642833376739600,8.783739501953125,0.001864211168140173,-0.006391581147909164,-0.003595264395698905
1772642833386744300,8.793744384765626,0.001864211168140173,-0.001597895286977291,0.001731053227558732
1772642833396749300,8.803749267578125,0.003994738217443228,-0.0026631588116288185,0.003861580276861787
1772642833406754300,8.81375439453125,0.001864211168140173,-0.00426105409860611,0.004394211806356907
1772642833416759300,8.82375927734375,0.0023968429304659367,-0.0026631588116288185,0.001731053227558732
1772642833426764000,8.833763916015625,0.003462106455117464,-0.002130527049303055,0.0022636849898844957
1772642833436769000,8.84376904296875,0.0023968429304659367,-0.001597895286977291,-0.0003994738217443228
1772642833446774000,8.85377392578125,-0.0007989476434886456,-0.002130527049303055,-0.0003994738217443228
1772642833456778800,8.86377880859375,0.00026631588116288185,-0.003195790573954582,-0.0014647373463958502
1772642833466783700,8.87378369140625,0.00026631588116288185,-0.00426105409860611,-0.003595264395698905
1772642833476788700,8.883788818359376,-0.00026631588116288185,-0.0005326317623257637,-0.0030626326333731413
1772642833486793700,8.893793701171875,0.0013315794058144093,0.003728422336280346,-0.003595264395698905
1772642833496798500,8.903798583984376,0.003994738217443228,0.005326317623257637,-0.00519315991550684
1772642833506803500,8.913803466796875,0.003462106455117464,0.012250530533492565,-0.004660528153181076
1772642833516808400,8.923808349609375,0.00719052879139781,0.011717898771166801,-0.0009321055840700865
1772642833526813200,8.933813232421874,0.005592633504420519,0.010652635246515274,-0.001997369108721614
1772642833536818200,8.943818115234375,0.006125265266746283,0.005858949385583401,0.0006657897029072046
1772642833546823200,8.9538232421875,0.003462106455117464,0.003728422336280346,-0.0009321055840700865
1772642833556828200,8.963828125,0.003462106455117464,0.0026631588116288185,0.001731053227558732
1772642833566832400,8.973832275390626,0.0045273699797689915,-0.002130527049303055,0.001731053227558732
1772642833576836600,8.983836669921875,0.005060001742094755,-0.0005326317623257637,0.0011984214652329683
1772642833586841000,8.993841064453125,0.003994738217443228,0,-0.0014647373463958502
1772642833596845600,9.003845458984374,0.005592633504420519,-0.0005326317623257637,-0.004127896390855312
1772642833606849800,9.013849853515625,0.005060001742094755,0.0005326317623257637,-0.006791055202484131
1772642833616854300,9.023854248046876,0.005592633504420519,0.001597895286977291,-0.008388950489461422
1772642833626858500,9.0338583984375,0.0045273699797689915,-0.0005326317623257637,-0.0073236869648098946
1772642833636863000,9.043863037109375,0.005592633504420519,0.0010652635246515274,-0.0030626326333731413
1772642833646867200,9.0538671875,0.005060001742094755,-0.003728422336280346,-0.0003994738217443228
1772642833656871700,9.06387158203125,0.006657897029072046,-0.007989476434886456,0.001731053227558732
1772642833666876000,9.0738759765625,0.0045273699797689915,-0.01438105758279562,0.005459475331008434
1772642833676880400,9.08388037109375,0.0023968429304659367,-0.018109479919075966,0.003328948514536023
1772642833686884600,9.093884521484375,0.0013315794058144093,-0.015446321107447147,0.003861580276861787
1772642833696889000,9.10388916015625,0.001864211168140173,-0.01704421639442444,0.004394211806356907
1772642833706893600,9.1138935546875,0.0023968429304659367,-0.014913689345121384,0.0027963167522102594
1772642833716897800,9.123897705078125,0.0029294746927917004,-0.01438105758279562,0.003861580276861787
1772642833726902300,9.13390234375,0.003462106455117464,-0.011185267008841038,0.0011984214652329683
1772642833736906500,9.143906494140625,0.0045273699797689915,-0.010652635246515274,0.0006657897029072046
1772642833746910700,9.15391064453125,0.006125265266746283,-0.012783162295818329,-0.004127896390855312
1772642833756915200,9.163915283203124,0.006125265266746283,-0.011185267008841038,-0.003595264395698905
1772642833766919700,9.173919677734375,0.0029294746927917004,-0.011185267008841038,-0.0030626326333731413
1772642833776924000,9.183923828125,0.00026631588116288185,-0.012783162295818329,-0.0014647373463958502
1772642833786928400,9.193928466796875,-0.00026631588116288185,-0.01012000348418951,-0.004660528153181076
1772642833796932600,9.2039326171875,-0.0013315794058144093,-0.006391581147909164,-0.006791055202484131
1772642833806937000,9.21393701171875,-0.0007989476434886456,-0.003728422336280346,-0.00519315991550684
1772642833816941300,9.22394140625,0.00026631588116288185,0.0026631588116288185,-0.004660528153181076
1772642833826945800,9.23394580078125,0.0007989476434886456,0.002130527049303055,-0.006791055202484131
1772642833836950000,9.243949951171874,0.003462106455117464,0.0010652635246515274,-0.009986845776438713
1772642833846954500,9.25395458984375,0.005592633504420519,0.0005326317623257637,-0.0057257916778326035
1772642833856958700,9.263958740234376,0.00719052879139781,0.0005326317623257637,-0.001997369108721614
1772642833866963200,9.273963134765625,0.010918950662016869,-0.001597895286977291,0.00013315794058144093
1772642833876967400,9.283967529296875,0.01411474123597145,-0.0010652635246515274,0.0022636849898844957
1772642833886972000,9.293971923828124,0.015180004760622978,0.002130527049303055,0.003328948514536023
1772642833896976400,9.303976318359375,0.015180004760622978,0.002130527049303055,0.0027963167522102594
1772642833906980600,9.313980712890626,0.011984214186668396,0.0010652635246515274,0.003861580276861787
1772642833916985000,9.323985107421874,0.011984214186668396,-0.001597895286977291,0.0011984214652329683
1772642833926989300,9.3339892578125,0.009321056306362152,-0.00426105409860611,0.0006657897029072046
1772642833936993800,9.343993896484376,0.008255792781710625,-0.009587371721863747,-0.0025300008710473776
1772642833946998000,9.353998046875,0.009321056306362152,-0.013848425820469856,-0.001997369108721614
1772642833957003300,9.364003173828126,0.007723160553723574,-0.01597895286977291,0.003328948514536023
1772642833967008500,9.374008544921875,0.010785792954266071,-0.012783162295818329,0.0027963167522102594
1772642833977013800,9.384013671875,0.012383688241243362,-0.011717898771166801,0.006524738855659962
1772642833987019000,9.39401904296875,0.010785792954266071,-0.011185267008841038,0.004926843568682671
1772642833997024000,9.40402392578125,0.011318424716591835,-0.012250530533492565,0.004394211806356907
1772642834007029200,9.414029296875,0.011851056478917599,-0.006924212910234928,0.023036323487758636
1772642834017034500,9.424034423828125,0.015046847052872181,-0.009587371721863747,0.010253161191940308
1772642834027039700,9.434039794921874,0.010785792954266071,-0.01012000348418951,0.0022636849898844957
1772642834037044700,9.444044677734375,0.011185267008841038,-0.006924212910234928,-0.003595264395698905
1772642834047050000,9.454050048828124,0.006924212910234928,-0.011185267008841038,-0.0025300008710473776
1772642834057055200,9.46405517578125,0.005858949385583401,-0.009587371721863747,-0.001997369108721614
1772642834067060500,9.474060546875,0.004793685860931873,-0.013315794058144093,0.0011984214652329683
1772642834077065500,9.4840654296875,0.005326317623257637,-0.015446321107447147,0.001731053227558732
1772642834087070700,9.49407080078125,0.003195790573954582,-0.01597895286977291,0.0027963167522102594
1772642834097076000,9.504075927734375,0.005858949385583401,-0.02010684832930565,-0.0009321055840700865
1772642834107081200,9.514081298828126,0.003195790573954582,-0.021172111853957176,-0.001997369108721614
1772642834117086200,9.524086181640625,0.006791055202484131,-0.012117372825741768,-0.0003994738217443228
