time,seconds_elapsed,z,y,x
1772642698716996600,0.05999658203125,0.07020575512647628,-0.05064882174134254,-0.00863221926689148
1772642698727039000,0.0700390625,0.06089022977054119,-0.048557986941933626,-0.0032977263711392877
1772642698737079800,0.080079833984375,0.04843523734509945,-0.04592588487267494,-0.011097148075699805
1772642698747122000,0.090121826171875,0.046720834642648694,-0.04834931262731552,0.002960164979845285
1772642698757162800,0.100162841796875,0.05820552073121071,-0.044727614998817444,-0.014575199449807405
1772642698767204900,0.110204833984375,0.047183191457390784,-0.03812485573291778,-0.016758388707786797
1772642698777245700,0.12024560546875,0.05857201595604419,-0.024629414343833922,-0.01815145050138235
1772642698787287800,0.130287841796875,0.06996434758603573,-0.024281623819470403,-0.02204787341803312
1772642698797328600,0.14032861328125,0.08022679840326309,-0.019504910936951635,-0.042070816879719496
1772642698807371000,0.15037109375,0.07013707380443811,-0.0045364743858575815,-0.038691111313551664
1772642698817411800,0.160411865234375,0.05821954925656318,-0.009195698368549346,-0.04570698142498732
1772642698827454000,0.170453857421875,0.06229015969634056,-0.013780688071250914,-0.03523001107424498
1772642698837494800,0.180494873046875,0.08313771741390227,-0.009939794734120369,-0.0249897720888257
1772642698847537000,0.190536865234375,0.06904840178489685,0.0009159458011388778,-0.042278029889613385
1772642698857577700,0.20057763671875,0.07680062334686517,0.00609071809053421,-0.03700359661802649
1772642698867618800,0.210618896484375,0.07426292156279087,-0.0070148471981286995,-0.04888166593834758
1772642698877660700,0.22066064453125,0.06369096640497446,-0.0045019875943660735,-0.048703386761993164
1772642698887701800,0.23070166015625,0.06562222672849893,-0.01572597692012787,-0.045988720975816244
1772642698897743600,0.24074365234375,0.06642039136886596,-0.026827801170945166,-0.03504968607127666
1772642698907784700,0.25078466796875,0.042971126720309255,-0.03771978206336498,-0.03198649910837412
1772642698917826800,0.260826904296875,0.03674479955136776,-0.058842065069079394,-0.00743117291405797
1772642698927868000,0.270867919921875,0.0149316116720438,-0.06170213067531585,-0.004520253903418779
1772642698937909800,0.28090966796875,0.043698856472969054,-0.05334814382791519,0.0036887715153396125
1772642698947950800,0.290950927734375,0.03649696227014065,-0.04632511332333088,0.01886339816302061
1772642698957992700,0.30099267578125,0.056849429947137826,-0.04886719902157783,0.015766455060988664
1772642698968033800,0.31103369140625,0.03665887483358383,-0.04243628919124603,0.006279518660902977
1772642698978075600,0.32107568359375,0.05024813198596239,-0.050290509822964666,0.014321078558266162
1772642698988116700,0.33111669921875,0.04562134896814823,-0.04935059862434864,0.024590105246752498
1772642698998158600,0.34115869140625,0.04405775291323662,-0.069111530148983,0.02944543632343411
1772642699008199700,0.35119970703125,0.0491343255251646,-0.06326455768644809,0.042529958824068306
1772642699018241800,0.36124169921875,0.05542027392685413,-0.05781038393378257,0.0182145788654685
1772642699028283000,0.371282958984375,0.06821516583114862,-0.03942132528424263,-0.005893441952764988
1772642699038324700,0.38132470703125,0.04765840775370597,-0.03226736187636852,0.0009257365427911282
1772642699048365800,0.39136572265625,0.0542690580651164,-0.03679799104332924,-0.018500263939052818
1772642699058407700,0.40140771484375,0.06390227106809615,-0.03456511742472648,0.0017417291007936
1772642699068448800,0.41144873046875,0.06428688647150993,-0.03399637762606144,-0.0019211773209273815
1772642699078490600,0.42149072265625,0.04824877486228943,-0.03588730593919754,-0.008505524147301912
1772642699088531700,0.43153173828125,0.05746463923603296,-0.028802316114306448,-0.014943302109837532
1772642699098572800,0.44157275390625,0.04576660265773534,-0.021596914780139923,0.01056757124364376
1772642699108615000,0.451614990234375,0.048047699332237244,-0.022089082211256026,-0.002480857030302286
1772642699118656000,0.461656005859375,0.042812136766314506,-0.029970190849900245,-0.009249182121455668
1772642699128697900,0.47169775390625,0.05111848507970571,-0.047422260910272594,0.0033973873533308502
1772642699138739000,0.481739013671875,0.03825695767998695,-0.04587035529315471,0.01680383528470993
1772642699148780800,0.49178076171875,0.027476620468497276,-0.055932899624109265,0.02373173485174775
1772642699158822000,0.50182177734375,0.048748833338916296,-0.043669630378484724,0.024551819062978028
1772642699168863700,0.51186376953125,0.0524848049968481,-0.05277472785413265,0.02258943294882774
1772642699178904800,0.52190478515625,0.04747340657562017,-0.05374678775668144,0.021392770510166883
1772642699188946700,0.53194677734375,0.034223172119259834,-0.041558921834826464,0.025318419521301982
1772642699198987800,0.54198779296875,0.025180910746753216,-0.04252630556225776,0.000625584552437067
1772642699209030000,0.55202978515625,0.016568857485055922,-0.05620937847793102,0.01643193323239684
1772642699219071000,0.562071044921875,0.005206628732383251,-0.0592424625635147,0.006537731205672025
1772642699229112800,0.57211279296875,0.004086977052688599,-0.06056991177499294,0.025607903987169264
1772642699239154000,0.58215380859375,0.012361761184036731,-0.05880816279947757,0.019460341142863033
1772642699249195800,0.59219580078125,0.02053162363618612,-0.06981938615739346,0.0039823476344347
1772642699259236900,0.60223681640625,0.04535217663794756,-0.059763271567225454,0.012091565940529108
1772642699269278700,0.61227880859375,0.05463029259294271,-0.062225862288475035,0.0006403437301516533
1772642699279319800,0.62231982421875,0.053908992581069466,-0.06620704087913036,0.006566811169683933
1772642699289361700,0.632361572265625,0.03869797944575548,-0.07172609656155109,0.014783873764425515
1772642699299402800,0.64240283203125,0.028160218818485735,-0.05437690235376358,0.016016776560246943
1772642699309443800,0.65244384765625,0.02474836454838514,-0.04181318885684013,0.007111731701344251
1772642699319486000,0.66248583984375,0.032146950367093086,-0.03264262492954731,0.0032255379177629946
1772642699329526800,0.67252685546875,0.023325346007943153,-0.03186813342571258,0.004530775297433138
1772642699339569000,0.68256884765625,0.029250936664640903,-0.03548281679153442,-0.020204583638906478
1772642699349609700,0.692609619140625,0.03125613900721073,-0.05097615399956703,-0.022401216900348662
1772642699359651800,0.70265185546875,0.026978315557539462,-0.05944996783435345,-0.03484101175665855
1772642699369693000,0.71269287109375,0.018227438347041606,-0.06495733307898044,-0.037087329378724096
1772642699379734800,0.72273486328125,-0.012780278857052326,-0.05946574992537498,-0.05051584301143884
1772642699389776000,0.73277587890625,-0.00788929194509983,-0.04287292704284191,-0.047114364004880185
1772642699399817700,0.742817626953125,0.010806056174635887,-0.04562544062137604,-0.04669087789580226
1772642699409858800,0.75285888671875,0.030614041711390018,-0.02052957780957222,-0.04638356551229954
1772642699419901000,0.76290087890625,0.03456745551228523,-0.019471008667349816,-0.03379734792262316
1772642699429942000,0.77294189453125,0.024492051699757576,-0.005033317992091179,-0.030178572903573512
1772642699439983900,0.78298388671875,0.01598433559536934,-0.01391337454020977,-0.03524228603392839
1772642699450025000,0.79302490234375,0.02207096203267574,-0.04015606929957866,-0.04536562064141035
1772642699460066800,0.80306689453125,0.03742985920608043,-0.052583589196205135,-0.042163317468762396
1772642699470108000,0.81310791015625,0.012594108635187149,-0.04612286874949932,-0.05205328171178698
1772642699480149800,0.823149658203125,0.015761048233509063,-0.04570785820782184,-0.03208309135064483
1772642699490190800,0.83319091796875,0.00891717368811369,-0.04222527678906917,-0.04501081585437059
1772642699500231700,0.843231689453125,0.010203706367313862,-0.04927519530057907,-0.04043532463237643
1772642699510273800,0.853273681640625,0.005898410388827323,-0.04365793994069099,-0.03372165233790874
1772642699520314600,0.863314697265625,-0.01253390288054943,-0.06229600491523742,-0.029264380668103693
1772642699530357000,0.87335693359375,-0.00835720171779394,-0.06041618251800537,-0.003627835108339786
1772642699540397800,0.883397705078125,0.009137246179580689,-0.06392857455313206,0.019042554122209548
1772642699550440000,0.89343994140625,0.01543137788772583,-0.0657698185056448,0.02588540575429797
1772642699560480800,0.903480712890625,0.028979426246881483,-0.06272679754793643,0.014168372214585542
1772642699570523000,0.91352294921875,0.02277735673636198,-0.05596738641560077,0.023235329636931416
1772642699580563700,0.923563720703125,-0.00544803627282381,-0.05624795692265033,0.027090689890831708
1772642699590605800,0.933605712890625,-0.0005064882174134254,-0.0597960047930479,0.01887216599136591
1772642699600646700,0.943646728515625,-0.0041547815918922424,-0.07157353634834289,0.01530804376900196
1772642699610688800,0.953688720703125,0.006617372313141822,-0.08695932152867317,0.026711627445369958
1772642699620729900,0.963729736328125,0.013175123393535612,-0.08421089960336685,0.02335544888526201
1772642699630772000,0.97377197265625,0.013864274701476097,-0.06992752270698548,0.004753916528820991
1772642699640812800,0.983812744140625,0.006453706184029579,-0.06788520322442054,0.0006026420682668685
1772642699650855000,0.99385498046875,0.0049628831043839455,-0.07585691275596618,0.006278349617123604
1772642699660895700,1.003895751953125,0.0030579262658953664,-0.09661153149306774,-0.0003406301312148571
1772642699670937900,1.013937744140625,0.015715163265168666,-0.08452128072679042,-0.004181815729290246
1772642699680978700,1.023978759765625,0.008021978414058686,-0.0739653999209404,-0.011391308716684579
1772642699691020800,1.034020751953125,0.00744447078704834,-0.05961363396346569,-0.0003847615338861942
1772642699701061600,1.0440615234375,-0.005107552272081375,-0.05906710599660873,-0.004739011220633984
1772642699711104000,1.05410400390625,-0.004722352346777915,-0.035569910553097724,-0.004647971936315298
1772642699721144800,1.064144775390625,-0.003446341061592102,-0.028631635722517965,-0.020873568941652775
1772642699731185200,1.07418505859375,-0.009989186833798885,-0.04201718699634075,-0.012042319971323013
1772642699741227300,1.084227294921875,0.007648468926548958,-0.024091654205322263,0.0036398178070783612
1772642699751268000,1.09426806640625,0.014860007740557193,-0.026023499050736427,-0.01239186406135559
1772642699761310200,1.104310302734375,0.013300211077928543,-0.03628361178040504,-0.005264642529934645
1772642699771351000,1.11435107421875,0.026368951487541196,-0.03418926984965801,-0.0263514158308506
1772642699781393200,1.12439306640625,0.011873977667093276,-0.029855040037631987,-0.03245528566390276
1772642699791434000,1.13443408203125,0.01520867504775524,-0.03213525992929935,-0.03713292208611965
1772642699801476400,1.144476318359375,0.014917290885746478,-0.043910453397035594,-0.016789076106995343
1772642699811517200,1.15451708984375,0.00951923123449087,-0.03621054654419422,-0.0009404957205057144
1772642699821559300,1.164559326171875,0.021849428236484527,-0.06497837586700916,-0.006144494104385376
1772642699831600000,1.17460009765625,0.018050912736356256,-0.054503743603825566,0.00046893268600106235
1772642699841642200,1.184642333984375,0.014301789335906505,-0.03955927245020866,0.01719999499544501
1772642699851683000,1.19468310546875,0.020079495954513547,-0.038927404287457466,0.015711363872885704
1772642699861725200,1.20472509765625,0.0035337270841002463,-0.032521044376492496,0.019310557408630847
1772642699871766000,1.21476611328125,-0.006632569882273674,-0.05218319170176983,0.009978665439784526
1772642699881808100,1.22480810546875,0.012868833923339843,-0.05343173045814037,0.015351006127893923
1772642699891849000,1.234848876953125,0.021371873852610586,-0.08532499832510948,0.022048457939922807
1772642699901891300,1.244891357421875,0.011248831506073474,-0.09879764336049557,0.030613311059027908
1772642699911932200,1.25493212890625,0.00818038384616375,-0.10055471616089344,0.017857143729925154
1772642699921973200,1.26497314453125,0.012661036391556262,-0.08010463332831859,0.018315408891439438
1772642699932015000,1.27501513671875,-0.003746493051946163,-0.09644202014505862,0.00986278397515416
1772642699942056200,1.28505615234375,0.005801672016084194,-0.08609013747870922,0.012268237681686877
1772642699952098000,1.29509814453125,0.013296119424700737,-0.06840075153112411,0.01502586582675576
1772642699962139100,1.30513916015625,0.009321370574831962,-0.07637129201889038,0.023076778074353932
1772642699972181000,1.315180908203125,0.011897943064570426,-0.07516483883857726,0.024746757113188505
1772642699982222000,1.32522216796875,0.023727204807102678,-0.07495324191451072,0.019616554617881775
1772642699992264000,1.335263916015625,0.03791121298223734,-0.07101882507503032,0.019150398410856723
1772642700002305000,1.345304931640625,0.030092648185789585,-0.0612426964700222,-0.0008433189563453197
1772642700012347100,1.35534716796875,0.03190817317515612,-0.05631985311508178,-0.016870178519189358
1772642700022388200,1.36538818359375,0.03326280265450477,-0.048911038163304325,-0.024601211162656546
1772642700032430000,1.37543017578125,0.010692951188981533,-0.0758645115405321,-0.024535452450066803
1772642700042471200,1.38547119140625,0.015272095672786234,-0.05270458522737026,-0.019007775069773195
1772642700052513000,1.395512939453125,0.008650631706416606,-0.051796822732686994,-0.02854147322103381
1772642700062554000,1.40555419921875,0.025647066953778264,-0.045346623679995535,-0.017699176689237355
1772642700072596000,1.415595947265625,0.034681729541718956,-0.039565117669105525,-0.02312266304269433
1772642700082637000,1.425636962890625,0.05093202259689569,-0.018773089531064033,-0.027858605523407458
1772642700092679000,1.435678955078125,0.04223433687835931,0.002481295421719551,-0.020885405509918926
1772642700102720000,1.445719970703125,0.03278495600968599,-0.002814472898840904,-0.015317688380181788
1772642700112762000,1.45576220703125,0.02635521522313356,-0.010617840126156807,-0.016473288156092166
1772642700122803200,1.46580322265625,0.03842413094043731,-0.017225275567173955,-0.013664806606620549
1772642700132844300,1.47584423828125,0.054852410911023615,-0.030693828949332234,-0.026205285358428955
1772642700142886100,1.48588623046875,0.048856093105673785,-0.0342114816814661,-0.05064969852417707
1772642700152927200,1.49592724609375,0.05025982242375612,-0.024158874222636222,-0.06656666797176003
1772642700162969000,1.505968994140625,0.025719839929044246,-0.04057984766960144,-0.06470306605696678
1772642700173010200,1.51601025390625,-0.00032207156121730803,-0.025547698232531547,-0.059115329052507874
1772642700183052000,1.526052001953125,0.017825287286937237,-0.021469489008188247,-0.05265782347619533
1772642700193093000,1.536093017578125,0.011592530377209186,-0.0436532637655735,-0.044661417894810436
1772642700203135200,1.54613525390625,0.021619126611948012,-0.03176934922635555,-0.039783436594903465
1772642700213176300,1.55617626953125,0.026307284428179263,-0.0550818357527256,-0.033572891516983505
1772642700223218200,1.56621826171875,0.03391805169284343,-0.0496048656463623,-0.04720642620250583
1772642700233259300,1.57625927734375,0.01207768354564905,-0.04566577263176441,-0.03345189548581838
1772642700243301000,1.586301025390625,0.011354337707161903,-0.04750000232160091,-0.035141456007957456
1772642700253342200,1.59634228515625,0.008627543091773986,-0.06507482197880744,-0.03348988940864801
1772642700263384000,1.606384033203125,0.012077391284704208,-0.06639525692760943,-0.013134060730785132
1772642700273425200,1.616425048828125,0.015283493849635123,-0.058390814170241355,-0.001628624115139246
1772642700283467000,1.626467041015625,0.006563304038345813,-0.09413725033402442,0.01639554674476385
1772642700293508000,1.636508056640625,0.025984336084127424,-0.09698036480545998,0.00441825483366847
1772642700303550200,1.64655029296875,0.0230009363591671,-0.09242109406590461,0.013624474596232176
1772642700313591300,1.65659130859375,0.022105156563222407,-0.09360299732685089,0.0066731941536068914
1772642700323633200,1.666633056640625,0.011284487341344357,-0.08342062600851058,0.008802607397735118
1772642700333674200,1.67667431640625,0.002933423103392124,-0.080282912504673,0.015946780063956976
1772642700343715000,1.686715087890625,-0.008194996893405913,-0.05183657022118568,0.012481734301894903
1772642700353757200,1.696757080078125,0.002153378641605377,-0.054206221961975096,0.010013736753165721
1772642700363798000,1.706798095703125,0.0023237667724490163,-0.055472296375036236,-0.0017646715849637983
1772642700373840100,1.716840087890625,0.020104045873880386,-0.05673135652542114,-0.0015441607020795344
1772642700383881200,1.726881103515625,0.025351298877596854,-0.06228197638988495,-0.006606266397237777
1772642700393923000,1.736923095703125,0.026448738725483416,-0.06375438703000545,-0.014948416676372289
1772642700403964200,1.746964111328125,0.03866583074182272,-0.05121873058378696,-0.005459726710617542
1772642700414006300,1.75700634765625,0.020840543454885483,-0.03309387582838535,-0.017762305053323508
1772642700424047000,1.767047119140625,0.019837503892183302,-0.031220483171939848,-0.007693623242527246
1772642700434089200,1.777089111328125,0.027566344578564165,-0.0295756385743618,-0.009446750520169734
1772642700444130300,1.78713037109375,0.02920563621819019,-0.0328694194227457,0.00310351897329092
1772642700454172200,1.797172119140625,0.025797873601317405,-0.02886018378138542,0.004987871415168046
1772642700464213200,1.807213134765625,0.0297781754091382,-0.03610124095082283,0.011028466753661632
1772642700474255000,1.817255126953125,0.017194588167965413,-0.02683598447740078,0.00912599413320422
1772642700484296200,1.827296142578125,0.03931172742992639,-0.010817162090539931,-0.0050374096453189845
1772642700494338000,1.837338134765625,0.05005494750142097,-0.018730419433116912,-0.012092150462418794
1772642700504379100,1.847379150390625,0.05554419256746768,-0.04639116429686546,-0.017558599174767733
1772642700514421200,1.857421142578125,0.06422638845592737,-0.027411738538742063,-0.02639043266698718
1772642700524462300,1.86746240234375,0.05254617979526519,-0.019892448949813842,-0.019899170951545236
1772642700534504200,1.877504150390625,0.057818274979293344,-0.014985972207784653,-0.014825520949065684
1772642700544545300,1.887545166015625,0.03895838394761085,-0.020855156502127645,-0.022841800274699925
1772642700554586000,1.897586181640625,0.053852586218714714,-0.035136195310950274,-0.012842968829721212
1772642700564628200,1.907628173828125,0.037303602477908135,-0.04422317260801792,-0.0030747312702238557
1772642700574669000,1.9176689453125,0.036656829006969927,-0.05092880772650241,-0.0037891631498932835
1772642700584711200,1.927711181640625,0.034614509524405,-0.049990650093555446,0.01358136610686779
1772642700594752000,1.937751953125,0.04468845203220844,-0.04971066410839557,-0.009862930105626583
1772642700604794000,1.947794189453125,0.04700783489048481,-0.0527115994900465,-0.016259207013994456
1772642700614835000,1.9578349609375,0.0548638090878725,-0.05866378589272499,-0.02423325463309884
1772642700624877300,1.967877197265625,0.03482639870941639,-0.07099135254621505,-0.02607785958647728
1772642700634918100,1.977918212890625,0.024236323373019696,-0.09770809455811977,-0.016811726330220697
1772642700644960300,1.987960205078125,0.014637889422476291,-0.0959200420975685,-0.010658610527962445
1772642700655001000,1.9980009765625,0.022101649431884286,-0.09208499397933483,-0.01694061340689659
1772642700665043200,2.008043212890625,0.03482815227508545,-0.08231003441810607,-0.0285920343644917
1772642700675084000,2.018083984375,0.025050562365353107,-0.06302724179923534,-0.015136924985796212
1772642700685126100,2.028126220703125,0.047588557387888426,-0.042515784168243406,-0.01535071386694908
1772642700695167000,2.0381669921875,0.03820756558030843,-0.026319851648807523,-0.02582242352068424
1772642700705209300,2.048209228515625,0.03314882088601589,-0.006449030008912086,-0.022161855186522007
1772642700715250200,2.058250244140625,0.041354339173436165,-0.006675239980220795,-0.01919891372770071
1772642700725292300,2.068292236328125,0.029302959112823008,-0.018204934254288672,-0.021838760711997748
1772642700735333000,2.0783330078125,0.04027355819940567,-0.019556348863244057,-0.02483779639750719
1772642700745375500,2.08837548828125,0.04441606483161449,-0.0275146143913269,-0.038516777659952636
1772642700755416300,2.098416259765625,0.03705167354345321,-0.022277298259735106,-0.04154503943994641
1772642700765458400,2.10845849609375,0.050688276968896384,-0.03925122941434383,-0.04061272702589631
1772642700775499300,2.118499267578125,0.028500410558283326,-0.024779051947593687,-0.027666590082645416
1772642700785540400,2.128540283203125,0.02871551461368799,-0.02430968087017536,-0.015310527987033128
1772642700795582200,2.138582275390625,0.03980331033915281,-0.03833060743808746,-0.006942366483807564
1772642700805623300,2.148623291015625,0.026669980260729788,-0.03623568098545074,-0.010697042842209339
1772642700815665200,2.1586650390625,0.02810819637030363,-0.02166881097257137,-0.031127982582896944
1772642700825706200,2.168706298828125,0.03343640565574169,-0.023251111727952956,-0.03685907358080148
1772642700835748000,2.178748046875,0.016475626243650912,-0.019662731847167013,-0.0393036902539432
1772642700845789200,2.1887890625,0.025224165366590022,-0.01658814670741558,-0.026723464013636112
1772642700855831300,2.198831298828125,0.04112900598496198,-0.0103261637032032,-0.03416428153887391
1772642700865872400,2.208872314453125,0.030686522425711155,-0.02115735431909561,-0.047375206898152826
1772642700875914200,2.218914306640625,0.027748423147201537,-0.03279460062086582,-0.03083250676766038
1772642700885955300,2.228955322265625,0.02560644268244505,-0.03528641743659973,-0.01549275268614292
1772642700895997200,2.2389970703125,0.019914076259732245,-0.0546679942548275,-0.010845803663134574
1772642700906038300,2.249038330078125,0.012832593566179275,-0.08482581663131714,-0.0004338613726198673
1772642700916080000,2.259080078125,-0.004048690868914127,-0.10013970561921597,0.016401099702715874
1772642700926121200,2.269121337890625,0.0031648937717080115,-0.09153145174980164,0.0224224058188498
1772642700936163000,2.2791630859375,0.0030357144340872762,-0.08041969062685966,0.028796909286826846
1772642700946204400,2.289204345703125,-0.005805763669312,-0.07820084553360938,0.030975422369688747
1772642700956246300,2.299246337890625,0.003070785747468471,-0.08424071021974086,0.04391337600648403
1772642700966287400,2.309287353515625,0.01192220072299242,-0.07360942609012126,0.03784969205334782
1772642700976329200,2.3193291015625,0.028449557153880596,-0.08413783436715602,0.029975889938324687
1772642700986370300,2.329370361328125,0.009681143797934055,-0.0764180537700653,0.03669394614696502
1772642700996412200,2.339412109375,0.028789748893678187,-0.07640460976660252,0.02456803954541683
1772642701006453200,2.349453369140625,0.04718991345912218,-0.0755903707742691,0.001704611960798502
1772642701016494300,2.359494384765625,0.029995909813046454,-0.056557753524184226,-0.01775572918206453
1772642701026536200,2.3695361328125,0.0341615050598979,-0.0336146848320961,-0.02617825122103095
1772642701036577300,2.379577392578125,0.05351414804458618,-0.03540039920508861,-0.0296964884750545
1772642701046619400,2.389619384765625,0.020891396859288213,0.0023801731348037716,-0.029290245761722324
1772642701056660500,2.399660400390625,0.03289163125455379,0.011693360403180121,-0.026626871771365402
1772642701066702300,2.409702392578125,0.04333002316057682,0.013953122028708458,-0.04502615955397486
1772642701076743400,2.419743408203125,0.031977439019083974,0.019765023177862166,-0.049420741251111025
1772642701086785300,2.429785400390625,0.03593348316848278,0.006507482197880745,-0.048964229655265805
1772642701096826400,2.439826416015625,0.04935995097458362,-0.018458032232522962,-0.034989334186166524
1772642701106868200,2.4498681640625,0.042883448436856264,-0.01931611036658287,-0.03666588909626007
1772642701116909300,2.459909423828125,0.03399930023550987,-0.0467903927475214,-0.03516790562346577
1772642701126951200,2.469951171875,0.02518061848580837,-0.06196808813512325,-0.029500673642009496
1772642701136992300,2.4799921875,0.021548399463295936,-0.07200666706860065,-0.026970424512028694
1772642701147034400,2.490034423828125,0.014508125562965869,-0.07188391747176646,-0.01505509192124009
1772642701157075500,2.500075439453125,0.02172287924736738,-0.06976151849031448,-0.010896510937064886
1772642701167117300,2.510117431640625,0.006817278799414635,-0.0637614012926817,-0.009008943624794482
1772642701177158400,2.520158447265625,0.016249124011397362,-0.06204349145889282,0.01263692486360669
1772642701187200300,2.5302001953125,0.004341244074702263,-0.06975333518385887,0.022878771284222603
1772642701197241300,2.540241455078125,0.004680559031665325,-0.08173369583487511,0.008837094189226628
1772642701207283200,2.550283203125,-0.0021437340304255484,-0.08040624662339686,0.002932254059612751
1772642701217324300,2.56032421875,-0.014058335968852042,-0.09623626843988894,0.00984758640602231
1772642701227366100,2.5703662109375,-0.00796995596587658,-0.10794833354353904,0.020565379775315522
1772642701237407200,2.5804072265625,-0.002265606844425201,-0.12787702285051344,0.024111235688626765
1772642701247448300,2.5904482421875,-0.011813187390565872,-0.14011281956732272,0.013801292467862367
1772642701257490400,2.600490478515625,-0.007715688943862915,-0.13229425477087497,0.020235271038115024
1772642701267531500,2.610531494140625,0.002011924344301224,-0.10667992104291915,0.020430647479742763
1772642701277573400,2.620573486328125,-0.005101122531294822,-0.08386194003522396,0.0032343057461082935
1772642701287614500,2.630614501953125,-0.000675122782588005,-0.05296937364339828,0.0022650223225355146
1772642701297656300,2.64065625,0.014117080418765544,-0.02741933732330799,0.005458849927783012
1772642701307697400,2.650697509765625,0.01950520319789648,-0.020475801795721053,-0.0050746729157865045
1772642701317739300,2.6607392578125,0.009431845211982726,-0.032470190972089766,-0.00994081764742732
1772642701327780400,2.6707802734375,0.000019581483304500578,-0.02808276966810226,-0.023915859246999023
1772642701337822200,2.680822265625,0.012798983557522296,-0.03985094887316227,-0.013891016577929257
1772642701347863300,2.69086328125,0.018382921169698238,-0.026122867771983145,-0.02157441068738699
1772642701357905400,2.700905517578125,0.013463584946095942,-0.024268179816007613,-0.013862959527224302
1772642701367946500,2.710946533203125,0.03653115680068731,-0.01935001263618469,-0.02554477562308311
1772642701377988400,2.72098828125,0.02775952906310558,-0.025296938341856,-0.02476239307373762
1772642701388029400,2.731029541015625,0.022086159601807594,-0.029144845941662785,-0.011923223636299371
1772642701398071300,2.7410712890625,0.020700550462305546,-0.03608721242547035,-0.010081102900952101
1772642701408112400,2.7511123046875,0.013015841178596018,-0.053256373891234395,-0.0199400874838233
1772642701418154200,2.761154296875,0.007708090159296989,-0.05899696336984634,-0.025710925970226523
1772642701428195300,2.7711953125,0.013832125997543333,-0.04867664488554001,-0.04455941882506013
1772642701438237200,2.7812373046875,0.008477613227069377,-0.047345688542723655,-0.05577142545208335
1772642701448278300,2.7912783203125,0.014310849425196647,-0.050424365335702895,-0.06291442907452582
1772642701458320400,2.8013203125,0.0007888122901320457,-0.04198094663918018,-0.06222483937516808
1772642701468361500,2.811361572265625,-0.002896598224341869,-0.032953006052970885,-0.06033683367148041
1772642701478402300,2.82140234375,-0.008860182803869247,-0.035244331860542294,-0.062406187291443344
1772642701488444400,2.8314443359375,0.017880232344567773,-0.0143085113376379,-0.04908537181690335
1772642701498485200,2.8414853515625,0.024198329450190067,-0.017374328649044035,-0.059315381669253105
1772642701508527400,2.85152734375,0.02670738966166973,-0.019316694888472555,-0.07938479462116957
1772642701518568200,2.861568115234375,0.023803484913706777,-0.01218318974673748,-0.07491670929640531
1772642701528610300,2.8716103515625,0.012979308560490607,-0.02618716517984867,-0.05101166370436549
1772642701538651100,2.881651123046875,-0.004215571868419647,-0.019596096351742743,-0.040523587437719104
1772642701548693500,2.891693603515625,-0.015532500174641608,-0.04408873257339001,-0.03858165958970785
1772642701558734300,2.901734375,-0.019832535456120966,-0.05861000987887382,-0.0021912264339625834
1772642701568776400,2.9117763671875,-0.017997428983449935,-0.06186345871686935,0.0038663200393319126
1772642701578817300,2.9218173828125,-0.023167525097727775,-0.08237842347919941,0.014169248997420072
1772642701588859400,2.931859375,-0.022620997130870818,-0.10058861843049526,0.020405659168958663
1772642701598900200,2.941900146484375,-0.009828735575079918,-0.11038228269219398,0.030074820268154143
1772642701608942300,2.9519423828125,0.0003878302738070488,-0.11415946314334868,0.044550943257659674
1772642701618983200,2.961983154296875,-0.010042670586705207,-0.11880465860068798,0.04262947367578745
1772642701629025300,2.972025390625,-0.01192658463716507,-0.11887655479311943,0.04305836661234498
1772642701639066000,2.982066162109375,-0.006803250274062156,-0.10514905821382999,0.043044630347937346
1772642701649108500,2.9921083984375,-0.008193243327736854,-0.08540332425832747,0.037084699030220505
1772642701659149300,3.0021494140625,-0.012321429173648356,-0.06602642361521721,0.01916603437140584
1772642701669191400,3.01219140625,0.007443594004213809,-0.06237491537034511,0.02082695332095027
1772642701679232300,3.022232177734375,0.001764379324018955,-0.06038286477029323,0.033927111782133576
1772642701689274400,3.0322744140625,0.009180793060362338,-0.06299158596396445,0.015389146181195974
1772642701699315200,3.042315185546875,0.03297667918950319,-0.0671808543473482,0.02744330272078514
1772642701709357300,3.052357421875,0.029180794037878512,-0.07079436866939068,0.031727994302660226
1772642701719398100,3.062398193359375,0.019003975677490233,-0.07113865206241607,0.0238286193549633
1772642701729438700,3.072438720703125,0.030232933439314363,-0.07419687058925628,0.023408055855333804
1772642701739480800,3.082480712890625,0.018287936362624168,-0.05643558844923973,-0.006570610561966896
1772642701749521700,3.092521728515625,0.02354424945563078,-0.050182373273372646,-0.0017651099763810634
1772642701759564000,3.10256396484375,0.023457740215957163,-0.05323533110320568,0.0016911679573357104
1772642701769604900,3.11260498046875,0.014887188008427619,-0.06252630653977394,-0.005109305837750435
1772642701779647000,3.12264697265625,0.031414252178370954,-0.07998305277526378,-0.0008723989203572273
1772642701789687800,3.132687744140625,0.032738486519455906,-0.06819149269461632,-0.002188888346403837
1772642701799730000,3.14272998046875,0.033570261168479915,-0.057172086030244824,-0.0077959145732223985
1772642701809770800,3.152770751953125,0.05418693273961544,-0.05041325941979885,-0.013030600356310606
1772642701819812900,3.162812744140625,0.05394640198200941,-0.03804068458080292,-0.027360446742922068
1772642701829853700,3.172853759765625,0.029497897163033485,-0.018427052572369575,-0.029667262380570172
1772642701839895800,3.182895751953125,0.020625147138535974,-0.044322541329264636,-0.02285276006013155
1772642701849936600,3.1929365234375,0.02872340565919876,-0.04382277511358261,-0.031564912695437666
1772642701859979000,3.20297900390625,0.027969372421503064,-0.022125322568416594,-0.03898103417083621
1772642701870019800,3.213019775390625,0.020016367590427398,-0.011456629037857055,-0.0363541927985847
1772642701880062000,3.22306201171875,0.0210357737660408,-0.0048538697719573975,-0.023926819032430647
1772642701890102800,3.233102783203125,0.037219431325793265,0.0037760114073753354,-0.017555968826264142
1772642701900145000,3.243144775390625,0.030473464196920392,-0.008784194958209991,-0.02266556692495942
1772642701910185700,3.253185791015625,0.03159311587661504,-0.01620645391345024,-0.014864683915674685
1772642701920227800,3.263227783203125,0.030918577615916727,-0.042618660020828245,0.0001949380502104759
1772642701930268700,3.2732685546875,0.02261339834630489,-0.04538870925605297,0.003736848440766334
1772642701940310800,3.283310791015625,0.027527473872900006,-0.04007365171313285,-0.004619330363720655
1772642701950351600,3.2933515625,0.03903261822760105,-0.04381692989468574,-0.007366437114775181
1772642701960392700,3.303392822265625,0.037946576556563374,-0.03593231412470341,-0.023073709334433076
1772642701970434800,3.313434814453125,0.028897008660435673,-0.028417700710892675,-0.03305602803602815
1772642701980476000,3.323475830078125,0.022841654144227504,-0.035956279522180556,-0.034100276391953226
1772642701990517800,3.333517822265625,0.014503449387848377,-0.04843757543265819,-0.03339519686251879
1772642702000558800,3.343558837890625,0.0040355391263961786,-0.05882979010939598,-0.017912088787555694
1772642702010600700,3.3536005859375,0.021602467738091945,-0.06285246975421906,-0.015869915435463188
1772642702020641800,3.363641845703125,0.02868424269258976,-0.05462240154743194,-0.031721856822818514
1772642702030683600,3.37368359375,0.01289075349420309,-0.045994273933768266,-0.0361178998246789
1772642702040724700,3.383724853515625,0.035681554234027864,-0.041673488125205035,-0.025043255841732025
1772642702050766600,3.3937666015625,0.0330523747742176,-0.05545592976212501,-0.04237564504519105
1772642702060807700,3.4038076171875,0.025090602114796638,-0.05829144544899463,-0.01842734483331442
1772642702070849800,3.413849853515625,0.022618951304256913,-0.07300503045618534,-0.0020316519580781457
1772642702080891000,3.423890869140625,0.024373101495206356,-0.07807926498055458,-0.005672931069880724
1772642702090932700,3.4339326171875,0.03568330779969692,-0.061062079206109045,0.0023204057715833187
1772642702100973800,3.443973876953125,0.05751169324815273,-0.03741349259316921,-0.004601064054667949
1772642702111015700,3.454015625,0.06570493657588958,-0.021160276928544042,-0.01384951552376151
1772642702121056800,3.464056884765625,0.0707014296889305,-0.014634090030193328,-0.021100801826268435
1772642702131098600,3.4740986328125,0.05497136111557483,-0.04009703258872032,-0.03647445817738771
1772642702141139700,3.4841396484375,0.028207272830605506,-0.037541502887010574,-0.03429506831169128
1772642702151181800,3.494181884765625,0.017281974190473556,-0.03681786478757858,-0.026695845354348418
1772642702161222700,3.50422265625,0.017329612724483013,-0.0611252075701952,-0.016226473788172005
1772642702171264800,3.5142646484375,0.015467033722996711,-0.0451958170324564,-0.01890343791246414
1772642702181305900,3.524305908203125,0.039703649356961246,-0.05534428608119488,-0.021974369790405034
1772642702191347700,3.53434765625,0.026309037993848323,-0.038218963757157325,-0.02316986318528652
1772642702201388800,3.544388916015625,0.03539806111752987,-0.04930032974183559,-0.009892594591528176
1772642702211431000,3.554430908203125,0.03605710954815149,-0.04448679198026657,0.005036971253901719
1772642702221471700,3.5644716796875,0.026375673489272593,-0.047865913024544716,0.012088643331080675
1772642702231513900,3.574513916015625,0.02150163771212101,-0.0506505753070116,0.017557430130988358
1772642702241554700,3.5845546875,0.033253742565214635,-0.04405775291323662,0.015855740779638288
1772642702251595800,3.594595703125,0.03443038512915372,-0.03688976098001003,0.020221973165124654
1772642702261637600,3.6046376953125,0.03431260396838188,-0.023656769919395446,0.014673399127274752
1772642702271679000,3.614678955078125,0.019632628969848156,-0.0377145213663578,0.03079655867144465
1772642702281720800,3.624720947265625,0.021673779408633707,-0.034389176335930825,0.026649229733645915
1772642702291762000,3.634761962890625,0.029812954461574552,-0.04139584022760391,0.014389029227942227
1772642702301803800,3.6448037109375,0.028480829074978828,-0.04656242921054363,0.02004690885916352
1772642702311844900,3.654844970703125,0.041489655990898607,-0.05661912832260132,0.002350362518429756
1772642702321886700,3.66488671875,0.03556728020459413,-0.03890811506509781,-0.0014702186830341814
1772642702331927800,3.674927734375,0.043480537547171114,-0.04007072910368442,-0.0006973346143960953
1772642702341969700,3.6849697265625,0.03685527418851852,-0.05753682768940925,0.008322714926302432
1772642702352010800,3.6950107421875,0.019980711755156515,-0.06376783103346824,0.011159545787423848
1772642702362052900,3.705052978515625,0.023059388548135756,-0.06747545337975025,0.035094109734892846
1772642702372094000,3.715093994140625,0.03615092531144619,-0.06980301954448223,0.03481149340122938
1772642702382135800,3.7251357421875,0.04206628683507442,-0.06373626685142517,0.019632482839375732
1772642702392177000,3.735177001953125,0.03418634724020958,-0.040168344259262086,0.010398059895634651
1772642702402218800,3.74521875,0.020390753860771656,-0.04095160359144211,-0.007768880435824394
1772642702412259800,3.755259765625,0.0034840427234768866,-0.057740825828909874,-0.002721095526963472
1772642702422301700,3.7653017578125,0.015714286482334135,-0.05178747038245201,-0.019429507613182066
1772642702432342800,3.7753427734375,0.016530863562226293,-0.07171323707997798,-0.013965104727447032
1772642702442384600,3.785384521484375,0.04246873015612364,-0.06641980684697628,-0.007830255234241485
1772642702452425700,3.79542578125,0.03976853128671646,-0.05872457616925239,-0.0021484102055430413
1772642702462467800,3.8054677734375,0.027530688743293282,-0.038870705664157866,-0.015747458099573848
1772642702472509000,3.815509033203125,0.03440291260033846,-0.025299860951304435,-0.024350159011036158
1772642702482550800,3.82555078125,0.06517331391721963,-0.023235329636931416,-0.011137918477505445
1772642702492591900,3.835591796875,0.08373334521949291,-0.020994272711873055,0.0013490765213966369
1772642702502633700,3.8456337890625,0.10917904438227415,-0.03814472947716713,0.022826748836040495
1772642702512674800,3.8556748046875,0.06761661541610955,-0.031069676524400708,0.021609774261713028
1772642702522716700,3.865716552734375,0.04755845451056957,-0.022000234884023664,0.0023703823931515216
1772642702532757800,3.8757578125,0.04650222345590591,-0.02337035419344902,-0.010221972676366566
1772642702542799600,3.885799560546875,0.043436990666389466,-0.025267712247371673,-0.006620733314007521
1772642702552840700,3.8958408203125,0.043102644145488735,-0.03197977710664272,-0.022697277237474917
1772642702562881800,3.9058818359375,0.050212183889746666,-0.04002279830873012,-0.03219736538007855
1772642702572924000,3.915923828125,0.04065758908092976,-0.04767886601984501,-0.0077810092650353905
1772642702582965000,3.925965087890625,0.02747077524960041,-0.043910453397035594,-0.005337415505200624
1772642702593006800,3.9360068359375,0.029828444291651247,-0.039753918239474294,-0.007673311106860637
1772642702603048000,3.9460478515625,0.03694587508141994,-0.046565351819992065,-0.011315613131970166
1772642702613089800,3.95608984375,0.049801557262241836,-0.05427344197928905,0.007733809122443198
1772642702623131000,3.966130859375,0.037461715649068354,-0.05566694216430187,0.007635609444975853
1772642702633172700,3.9761728515625,0.022041151416301728,-0.05991758534610271,-0.00588569703772664
1772642702643213800,3.9862138671875,0.007632394574582577,-0.07547463544011115,-0.016324235074222086
1772642702653255700,3.996255615234375,-0.0007376666247844696,-0.08524199621677399,-0.010840689096599817
1772642702663296800,4.006296875,-0.006022329029440879,-0.08320435290932655,-0.005598989050835371
1772642702673339000,4.0163388671875,0.013487842604517936,-0.07180909866988658,-0.00918809958398342
1772642702683380000,4.0263798828125,0.012056640757620333,-0.06500351030826568,-0.0016654489941895006
1772642702693421800,4.036421875,-0.003156710465252399,-0.0610246698051691,-0.0075907473899424075
1772642702703463000,4.046462890625,0.008770750954747199,-0.062298927524685854,-0.027613983112573622
1772642702713504800,4.0565048828125,0.0032134090885519977,-0.05988543664216995,-0.022252456079423426
1772642702723545900,4.0665458984375,0.02532499539256096,-0.043621115061640736,-0.02344415008202195
1772642702733588700,4.076588623046875,0.023051205241680143,-0.054987727728486056,-0.03626826808080077
1772642702743629600,4.086629638671875,0.0017751929789781569,-0.05931552779972553,-0.039089024589955806
1772642702753671700,4.096671630859375,-0.0008814590096473693,-0.06747954503297805,-0.04273439535498619
1772642702763712800,4.106712646484375,0.01676467231810093,-0.033817513927817344,-0.06296718217507004
1772642702773754600,4.116754638671875,0.018601240095496175,-0.026437925070524212,-0.06333367739990353
1772642702783795700,4.126795654296875,0.01666208872646093,-0.017949498188495634,-0.05819426868483424
1772642702793837800,4.136837890625,0.020365327158570288,-0.007807458880543708,-0.05431245881542563
1772642702803879000,4.14687890625,0.0028419454276561737,-0.01972352212369442,-0.04787994154989719
1772642702813920800,4.156920654296875,-0.003259878578782081,-0.03610942425727844,-0.027681349260360002
1772642702823961900,4.1669619140625,-0.01271948858052492,-0.04873685064017772,0.0021564473815262318
1772642702834003700,4.177003662109375,-0.022350363495945928,-0.07888941231966018,0.014989917730540037
1772642702844044800,4.187044921875,-0.009885434198379516,-0.07273439682126044,0.05136033101156354
1772642702854086700,4.197086669921875,-0.006962240228056907,-0.07099544419944286,0.06188026372119784
1772642702864127700,4.207127685546875,-0.0036743045985698696,-0.06199789875149726,0.0630539836756885
1772642702874168600,4.21716845703125,0.010587444987893104,-0.06381050113141537,0.04909910808131098
1772642702884210700,4.227210693359375,0.028785364979505536,-0.04859656538665295,0.023428514121472833
1772642702894251500,4.23725146484375,0.02105973916351795,-0.056285366323590276,0.021361060197651386
1772642702904294000,4.2472939453125,0.01534983708411455,-0.057685880771279334,0.023897446807473896
1772642702914334700,4.257334716796875,0.004885141693055629,-0.07309037065207957,0.04411269797086716
1772642702924376800,4.267376953125,-0.0016536124259233474,-0.07517828284204006,0.04689180729538202
1772642702934417700,4.277417724609375,-0.005870937860012054,-0.06655716949105263,0.037320845873653884
1772642702944459800,4.287459716796875,0.00710895522236824,-0.0633867227613926,0.03528174126148224
1772642702954500600,4.29750048828125,0.014947393763065336,-0.06080956574976444,0.026831016041338442
1772642702964542700,4.307542724609375,0.023844985967874526,-0.07735328879356383,0.026756635630875825
1772642702974583600,4.31758349609375,0.03685410514473915,-0.08050152369141578,0.021694968327134845
1772642702984625700,4.327625732421875,0.051691316531598565,-0.09254092105329036,0.00941080242395401
1772642702994666500,4.33766650390625,0.03552636367231607,-0.08061608998179436,0.0013632511772215365
1772642703004708900,4.347708984375,0.0325689751714468,-0.09122691584527493,-0.010231617287546395
1772642703014749700,4.357749755859375,0.01887216599136591,-0.08534253398180007,-0.005706248817592859
1772642703024791800,4.367791748046875,0.029885727436840533,-0.08720423620045184,-0.02041457312777638
1772642703034832600,4.37783251953125,0.020144962406158446,-0.06889701061546802,-0.030381840390712022
1772642703044874800,4.387874755859375,0.03758709559440612,-0.044160628765821455,-0.03667480305507779
1772642703054915600,4.39791552734375,0.03718611357808113,-0.021397592815756795,-0.04812529461309314
1772642703064957700,4.407957763671875,0.028961598329246042,-0.027192542830109596,-0.04676993448138237
1772642703074998500,4.41799853515625,0.03820025905668735,-0.0021188918501138685,-0.049336277838051314
1772642703085040600,4.42804052734375,0.029948855800926683,0.0019435352832078933,-0.06371902345567941
1772642703095081500,4.43808154296875,0.017336042465269565,-0.025261867028474806,-0.05123801980614662
1772642703105123800,4.448123779296875,0.029343875645101068,-0.061142158704996105,-0.04656111403629184
1772642703115164700,4.45816455078125,0.031489363241195674,-0.06050502984523773,-0.04697656296938658
1772642703125206800,4.468206787109375,0.03988602018654346,-0.047882279637455935,-0.035260552342981095
1772642703135247600,4.47824755859375,0.034327217015624044,-0.024260581031441686,-0.037277883514761925
1772642703145289700,4.488289794921875,0.028561493095755574,-0.013292612293362616,-0.03691986385732889
1772642703155330600,4.49833056640625,0.0293055894613266,-0.011253215420246123,-0.03667918696925044
1772642703165372700,4.50837255859375,0.03114683341383934,-0.020775077003240584,-0.026318536474555728
1772642703175413500,4.51841357421875,0.03233049024045467,-0.021268413478136062,-0.017544570649415253
1772642703185454600,4.52845458984375,0.04084931226074695,-0.033845570978522296,-0.014886165095120668
1772642703195496700,4.53849658203125,0.030095278534293172,-0.05019289466738701,-0.015588906536996364
1772642703205537800,4.548537841796875,0.030157530115544794,-0.041328035688400266,-0.023859160623699426
1772642703215579600,4.55857958984375,0.02456891632825136,-0.067751932233572,-0.023365385757386684
1772642703225620700,4.568620849609375,0.019827274759113788,-0.07765899374186992,-0.007273059742897749
1772642703235662600,4.57866259765625,0.012747253370285034,-0.08347966271936894,-0.003218669785559177
1772642703245703700,4.58870361328125,-0.00760521430671215,-0.09557517418265342,0.02069850463569164
1772642703255745500,4.59874560546875,0.02128068843781948,-0.09462591063380241,0.0022154840923845768
1772642703265786600,4.60878662109375,0.015230302357673644,-0.07891688484847545,-0.0065413844674825665
1772642703275828500,4.618828369140625,-0.001995265470445156,-0.0554302107989788,-0.014742226579785345
1772642703285869600,4.62886962890625,0.0033522330373525616,-0.04742167638838291,-0.00999137879088521
1772642703295911700,4.63891162109375,0.021554244682192802,-0.03151157507300377,-0.011851035182923077
1772642703305952800,4.648952880859375,0.0013388473883271218,-0.03880757730007171,-0.01580868676751852
1772642703315994600,4.65899462890625,-0.002901274399459362,-0.052443303942680354,-0.014745587580651044
1772642703326035700,4.66903564453125,0.0029006898775696755,-0.0670809011042118,-0.00917903949469328
1772642703336077600,4.67907763671875,0.009857669408619403,-0.06493687481284141,-0.017740970004349946
1772642703346118700,4.68911865234375,0.002885200047492981,-0.07162731236219405,-0.009102905518561601
1772642703356160800,4.699160888671875,0.01663520071953535,-0.0752028327614069,-0.015135609811544418
1772642703366201600,4.70920166015625,0.017001695944368837,-0.06996259402036667,-0.02286620406359434
1772642703376243700,4.71924365234375,0.012132336342334746,-0.057356794947385784,-0.016776070494949818
1772642703386284500,4.729284423828125,-0.001925415104627609,-0.04333060768246651,-0.016518734733015298
1772642703396326700,4.73932666015625,-0.008019640326499938,-0.03180383601784706,-0.02009732387214899
1772642703406367700,4.74936767578125,-0.033760815304517744,-0.029644612157344815,-0.02743263519629836
1772642703416409900,4.759409912109375,-0.017690554991364477,-0.0383680168390274,-0.042403555965423584
1772642703426450700,4.76945068359375,-0.010474632263183592,-0.05593757579922676,-0.03440934234112501
1772642703436492800,4.779492919921875,-0.023183014927804467,-0.038187984097003934,-0.018097820618003607
1772642703446533600,4.78953369140625,0.01676467231810093,-0.036676995012164114,-0.0028337621212005614
1772642703456575700,4.79957568359375,0.013103519462049006,-0.019573299998044965,-0.009502133969217539
1772642703466616600,4.809616455078125,-0.002248071187734604,-0.03515431548953056,-0.009467208786308764
1772642703476658700,4.81965869140625,0.0264776725590229,-0.05197568643093109,-0.0016423603795468807
1772642703486699500,4.829699462890625,0.01605214013457298,-0.060358314850926395,-0.021880115635693073
1772642703496742000,4.839741943359375,0.01969341924637556,-0.0534825838625431,-0.01513049524500966
1772642703506782700,4.84978271484375,0.013463877207040786,-0.059116790357232094,-0.007663666495680808
1772642703516824800,4.859824951171875,0.0031967502146959302,-0.043020811080932614,-0.016246932054311037
1772642703526865700,4.86986572265625,-0.006722878514230251,-0.05995207213759422,0.011982260347157716
1772642703536907800,4.87990771484375,0.003663490943610668,-0.08292670501172542,0.01918108581006527
1772642703546948600,4.889948486328125,0.017274959927797318,-0.09982815545201301,0.016706073998659848
1772642703556990700,4.89999072265625,0.031004210072755813,-0.09399754960238933,0.012825433173030615
1772642703567031600,4.910031494140625,0.012205693839490413,-0.07643383586108685,0.01817453911602497
1772642703577072600,4.92007275390625,0.0017447978407144546,-0.06422434262931347,0.0039672961957752705
1772642703587114500,4.930114501953125,0.02225800903737545,-0.05551613551676273,0.011837152788043022
1772642703597155600,4.940155517578125,0.02981967646330595,-0.06392915907502174,0.0002098433583974838
1772642703607197700,4.95019775390625,0.03350421019494533,-0.08541501469612121,-0.006537585075199604
1772642703617238800,4.96023876953125,0.0373135393500328,-0.09366086499392985,-0.015719547179341316
1772642703627280600,4.97028076171875,0.03791530463546514,-0.10860592066943645,-0.03275894478559494
1772642703637321700,4.98032177734375,0.023293781825900077,-0.07938157975077628,-0.044670331853628155
1772642703647363600,4.990363525390625,0.02591653154492378,-0.0440934087485075,-0.04757029107883572
1772642703657404700,5.00040478515625,0.022037644284963607,-0.005133855757117271,-0.04325403531491756
1772642703667446500,5.010446533203125,0.027196926744282243,0.0037573067069053647,-0.044342707334458824
1772642703677487600,5.020487548828125,0.01905950525701046,-0.010067805027961731,-0.04145531532987952
1772642703687529500,5.030529541015625,0.013236205931007862,-0.016017068821191787,-0.02758081149533391
1772642703697570600,5.040570556640625,0.00914455270320177,-0.017608721926808357,-0.011102408772706985
1772642703707612700,5.05061279296875,0.014454641810059546,-0.020246669214963913,0.002323620641976595
1772642703717653800,5.06065380859375,0.017105448579788206,-0.03766016083061695,0.0037966158039867874
1772642703727695600,5.070695556640625,0.018358663511276244,-0.04543780909478664,0.02965820229128003
1772642703737736400,5.080736328125,0.027096973501145837,-0.03891454480588436,0.0360382587172091
1772642703747778300,5.0907783203125,0.028441666108369824,-0.06180617557168006,0.043697979690134524
1772642703757819400,5.1008193359375,0.03265285406261682,-0.0935410380065441,0.05192424850463867
1772642703767861200,5.110861328125,0.014924305148422717,-0.10504793592691421,0.07247004679664969
1772642703777902300,5.12090234375,0.016863164256513116,-0.10164251139760017,0.08579875331670045
1772642703787944200,5.130944091796875,0.015908640010654927,-0.0980810195237398,0.09369228304550051
1772642703797985300,5.1409853515625,0.02651917361319065,-0.09352642495930194,0.08656696121022105
1772642703808027400,5.15102734375,0.02300035183727741,-0.0748801766782999,0.06748743607848882
1772642703818068500,5.161068359375,-0.002119476372003555,-0.06097381640076637,0.05672112739235163
1772642703828110300,5.1711103515625,-0.012686463093757629,-0.05875146417617798,0.06495733307898044
1772642703838151400,5.1811513671875,-0.01146948851943016,-0.095523736256361,0.05448284694626927
1772642703848193300,5.191193359375,-0.0014765022933483122,-0.10543138228654861,0.05746916928067803
1772642703858234400,5.201234375,0.012979893082380295,-0.09654606504142284,0.06584083791524172
1772642703868276500,5.2112763671875,0.034085224953293795,-0.062494157835841176,0.03154547734260559
1772642703878317300,5.2213173828125,0.0291354935914278,-0.058811085408926,0.019364917944371698
1772642703888359400,5.231359375,-0.0019599018961191177,-0.056278936582803724,0.0066983285948634145
1772642703898400500,5.241400390625,0.0033712299987673756,-0.05331891773343086,0.027480858252197503
1772642703908442600,5.251442626953125,0.01836889264434576,-0.05837678564488887,0.018106734576821326
1772642703918483500,5.2614833984375,0.00003331774771213531,-0.05506956079304218,0.017368191169202327
1772642703928525600,5.271525634765625,0.019895371559262274,-0.050962125474214554,0.012017916182428598
1772642703938566400,5.28156640625,0.027951252242922782,-0.062386605808138845,-0.006926730523258447
1772642703948608500,5.2916083984375,0.021299977660179138,-0.04698854566812515,-0.007165069323778152
1772642703958649300,5.3016494140625,0.0034048400074243542,-0.03445873444080352,-0.01808130787461996
1772642703968691500,5.31169140625,0.020042086553573608,-0.05084054492115974,-0.030839228769391772
1772642703986263600,5.329263671875,0.026400807930529117,-0.04364040428400039,-0.05568813108280301
1772642703996304600,5.3393046875,0.02515197691321373,-0.001938274586200714,-0.05989274316579103
1772642704006346500,5.349346435546875,0.048662616360187524,-0.011712649625539778,-0.054663318079710005
1772642704016387600,5.3593876953125,0.037782325905561444,-0.012612228813767433,-0.05576660314649343
1772642704026429400,5.369429443359375,0.027023031482100484,-0.02106324629485607,-0.031929215963184834
1772642704036470500,5.379470458984375,0.01838409021347761,-0.026669395738840102,0.0002358545824885368
1772642704046512400,5.389512451171875,0.014820552513003349,-0.04328092332184314,-0.00525982022434473
1772642704056553500,5.399553466796875,0.014995909079909324,-0.05883037463128567,0.015047493136674165
1772642704066595300,5.40959521484375,0.005017535901069641,-0.06947568728625773,0.013878595487773418
1772642704076636400,5.419636474609375,0.01912351040393114,-0.07749240500330924,-0.009398089072853326
1772642704086678500,5.429678466796875,0.01367284378260374,-0.09395838663578032,-0.006617226182669401
1772642704096719600,5.4397197265625,0.020877368333935737,-0.09055179306268692,-0.010079787726700306
1772642704106761500,5.449761474609375,0.0046259062349796294,-0.08729074544012547,-0.01454027426689863
1772642704116802600,5.459802490234375,0.0014344167172908782,-0.08734042980074883,-0.004463555280119181
1772642704126844400,5.469844482421875,0.011481763479113578,-0.06877250745296477,-0.005865384902060031
1772642704136885500,5.479885498046875,0.009384791199862956,-0.06731938603520393,-0.007292202834784984
1772642704146927400,5.48992724609375,0.02153817033022642,-0.03960837228894234,-0.0029196868389844894
1772642704156968400,5.499968505859375,0.0023518238231539723,-0.04220423400104046,0.007206131986528635
1772642704167010600,5.510010498046875,0.028717560440301892,-0.030702596777677536,0.015629092416912318
1772642704177051600,5.5200517578125,0.03178133192509413,-0.022943653213977813,-0.013561638493090868
1772642704187093500,5.530093505859375,0.015806640940904615,-0.04837795419991016,-0.015747604230046272
1772642704197134600,5.540134521484375,0.028250527450442313,-0.03384031028151512,-0.007876578593999147
1772642704207176400,5.550176513671875,0.05639642548263073,-0.005110474881529808,-0.017710720996558665
1772642704217217500,5.560217529296875,0.06512830573171377,0.0026548984229564664,-0.01644274688735604
1772642704227259400,5.57025927734375,0.07704758384525776,0.01688917548060417,-0.028145167379826305
1772642704237300500,5.580300537109375,0.06379618034511804,0.003481412374973297,-0.020187632504105567
1772642704247341300,5.59034130859375,0.05429068537503481,0.00041091888844966884,-0.013893646926432848
1772642704257383400,5.600383544921875,0.052154550129175185,-0.023504794228076935,-0.03295081409588456
1772642704267424300,5.61042431640625,0.03307107947468758,-0.0409475119382143,-0.014292583116143941
1772642704277466600,5.620466552734375,0.04018529539406299,-0.03833469909131527,-0.0247960030823946
1772642704287507500,5.630507568359375,0.052011926788091654,-0.049559272938966746,-0.03743745799064636
1772642704297549600,5.640549560546875,0.05249181925952434,-0.03758709559440612,-0.03626388416662812
1772642704307590400,5.65059033203125,0.037350948750972744,-0.05622808317840099,-0.0409920817323029
1772642704317632500,5.660632568359375,0.03490589368641376,-0.06485796435773372,-0.03550035244822502
1772642704327673300,5.67067333984375,0.028612054239213466,-0.05934124676287174,-0.03714548930674791
1772642704337715500,5.680715576171875,0.02330313417613506,-0.07272913612425327,-0.03295841288045048
1772642704347756300,5.69075634765625,0.0121779290497303,-0.0786667094796896,-0.03422989412099123
1772642704357798400,5.70079833984375,0.01012275008559227,-0.07722586302161216,-0.032318945933133364
1772642704367839200,5.710839111328125,0.03475216442942619,-0.06770049430727958,-0.026337679566442965
1772642704377881600,5.720881591796875,0.04085808008909225,-0.050040334454178804,-0.031266222009807824
1772642704387922400,5.73092236328125,0.06147475166022777,-0.04139116405248642,-0.021810995922237633
1772642704397964500,5.740964599609375,0.06695347533226013,-0.039326048216223715,-0.011969693126529455
1772642704408005400,5.75100537109375,0.05142448228895664,-0.028508886125683783,-0.003139467069506645
1772642704418047500,5.761047607421875,0.0349108621224761,-0.029280455020070074,0.006969985143095254
1772642704428088300,5.77108837890625,0.024423954899609086,-0.024002222356200215,-0.0034324586667120456
1772642704438130400,5.78113037109375,0.035843174536526204,-0.03140051591396332,0.016553367654979226
1772642704448171300,5.791171142578125,0.040057577361166476,-0.047045828813314435,0.01325038058683276
1772642704458213400,5.80121337890625,0.03255786925554275,-0.049183425363898275,0.01211480068564415
1772642704468254200,5.811254150390625,0.03258709535002708,-0.06643266632854938,0.0018954583577811717
1772642704478296600,5.821296630859375,0.030666064159572123,-0.055609074497222896,-0.00290200505182147
1772642704488337400,5.83133740234375,0.0333946123406291,-0.040976153510808945,-0.007621580919623374
1772642704498379500,5.841379638671875,0.043052959784865376,-0.03709375911951065,-0.02464768065288663
1772642704508420400,5.85142041015625,0.020730068817734718,-0.039212650969624514,-0.019908377171307803
1772642704518462500,5.86146240234375,0.028114333850145338,-0.032819735062122345,-0.019075287348031995
1772642704528503300,5.87150341796875,0.022384850287437436,-0.04341068718135357,-0.011120090559870004
1772642704538545400,5.88154541015625,0.022082067948579788,-0.048045945766568184,-0.008235767295211553
1772642704548586500,5.89158642578125,0.029748072531819342,-0.037572482547163964,-0.0030120412975549694
1772642704558628400,5.90162841796875,0.03304536051154137,-0.06044716217815876,0.012343494874984024
1772642704568669400,5.91166943359375,0.034570378121733664,-0.048717561417818064,0.009266571647673845
1772642704578711600,5.921711669921875,0.022117431522905826,-0.05043488672971725,0.013525690396875142
1772642704588752400,5.93175244140625,0.0294122647061944,-0.06014847149252891,0.0075220660679042334
1772642704598794500,5.94179443359375,0.02817190925627947,-0.05931377423405647,-0.00332987507507205
1772642704608835600,5.951835693359375,0.0136941788315773,-0.07572130367755889,0.006245762521773577
1772642704618877400,5.96187744140625,0.005131225408613682,-0.06727554689347744,0.01589914152994752
1772642704628918500,5.97191845703125,0.020254852521419522,-0.06526362254917621,0.008569967685639857
1772642704638960400,5.98196044921875,0.03575374268740415,-0.04953998371660709,0.0031013270162045955
1772642704649001500,5.99200146484375,0.024693711751699446,-0.05861819318532943,-0.014849340216070412
1772642704659043300,6.002043212890625,0.026356968788802622,-0.03882745104432106,-0.023852877013385294
1772642704669084700,6.012084716796875,0.0474351203918457,-0.04903086515069008,-0.03461071013212204
1772642704679126500,6.02212646484375,0.03071545625925064,-0.05044073194861412,-0.018960867188125848
1772642704689167600,6.032167724609375,0.034137247401475904,-0.0499491490393877,-0.02286956506446004
1772642704699209500,6.04220947265625,0.02019610807150602,-0.05310498272180557,-0.014296674769371747
1772642704709250600,6.05225048828125,0.0254211492434144,-0.035597967603802676,-0.010102584080398082
1772642704719292400,6.06229248046875,0.015360943000018596,-0.015387538745999336,0.002370966915041208
1772642704729333500,6.07233349609375,0.033086277043819425,-0.015469371810555457,-0.0019134324058890343
1772642704739376000,6.082376220703125,0.035361528499424456,-0.028521161085367203,0.004982026196271181
1772642704749418000,6.09241796875,0.031470658540725706,-0.028017303216457366,0.02221723863556981
1772642704759459000,6.102458984375,0.028163725949823856,-0.038843817657232285,0.030358167254179714
1772642704769501000,6.1125009765625,0.008549217158555984,-0.038624621948599815,0.04467953807339072
1772642704779542000,6.1225419921875,-0.001561257967352867,-0.04297989454865456,0.045013884594291446
1772642704789584000,6.132583984375,-0.0012108370944857597,-0.0523889434069395,0.04452741625159978
1772642704799625000,6.142625,0.0021428572475910186,-0.06688859340250491,0.030002631814777848
1772642704809667000,6.1526669921875,0.017530980515480042,-0.06482055495679379,0.02018880154788494
1772642704819708200,6.162708251953125,0.027086744368076322,-0.06955518226325512,0.006603343787789344
1772642704829750000,6.17275,0.016356676039099693,-0.08974398381114006,0.005055529823899269
1772642704839791000,6.182791015625,0.009770283386111259,-0.07884265056848526,0.009296236133575438
1772642704849833000,6.1928330078125,0.016898527830839154,-0.0718909317344427,0.01617065194770694
1772642704859874000,6.2028740234375,0.029883097088336943,-0.06833411603569985,0.008113602220267057
1772642704869916000,6.212916015625,0.020932897913455963,-0.06605448066592216,0.004831365679204463
1772642704879957000,6.22295703125,0.019365502466261387,-0.05373801992833614,0.007574088516086339
1772642704889998800,6.232998779296875,0.018841770853102208,-0.04606500108242035,-0.003133329589664936
1772642704900040000,6.2430400390625,0.027831132994592188,-0.06628185968101025,0.003104688017070293
1772642704910082000,6.25308203125,0.026574118670821188,-0.06322831732928752,-0.010271657036989927
1772642704920123100,6.263123046875,0.019269348615407942,-0.06563654751479625,-0.006290186185389757
1772642704930165000,6.2731650390625,0.03768821788132191,-0.06455109036564827,-0.016996142986416815
1772642704940206000,6.2832060546875,0.03604980302453041,-0.07380231831371784,-0.004752455224096775
1772642704950248000,6.293248046875,0.03423427803516388,-0.05840484269559383,-0.010292699825018644
1772642704960289000,6.3032890625,0.040244624365866184,-0.06499357343614101,-0.027813158946484326
1772642704970331000,6.313330810546875,0.029494390031695364,-0.05930500640571117,-0.024722207193821667
1772642704980372000,6.3233720703125,0.03301934928745031,-0.02921089691519737,-0.03356850760281086
1772642704990413800,6.333413818359375,0.020237316864728926,-0.006978606840968132,-0.02979951045811176
1772642705000455000,6.343454833984375,0.028745909751951692,0.0006909048736095428,-0.024746757113188505
1772642705010497000,6.3534970703125,0.04637158281356096,-0.007575403690338134,-0.029567163006961345
1772642705020538000,6.3635380859375,0.02715396438539028,-0.011186579924821853,-0.02391381342038512
1772642705030580000,6.373580078125,0.030411504876613614,-0.02129120983183384,-0.031133097149431705
1772642705040621000,6.38362109375,0.04365209472179413,-0.05335282000303268,-0.020709318290650845
1772642705050663000,6.393662841796875,0.02677577872276306,-0.04934884505867958,-0.020852087762206793
1772642705060704000,6.4037041015625,0.015766308930516244,-0.053958969202637666,-0.012952712814509867
1772642705070745900,6.413745849609375,0.015952771413326263,-0.05458382310271263,-0.008686872063577175
1772642705080787000,6.423786865234375,-0.004322831635177135,-0.04071194961667061,-0.0018283844709396362
1772642705090828800,6.433828857421875,0.0018789456143975256,-0.05018588040471077,0.0017307693153619766
1772642705100870100,6.4438701171875,0.036217560806870455,-0.05901742163598537,-0.012648030779510737
1772642705110912000,6.453912109375,0.01938625299334526,-0.06934066272974014,-0.0036978316046297546
1772642705120953000,6.463953125,0.011775193467736244,-0.06703881552815437,0.0027361469656229016
1772642705130995000,6.473994873046875,0.015692659172415732,-0.06684007808566093,0.0011443477295339107
1772642705141036000,6.4840361328125,0.006702712509036064,-0.05302724131047725,0.001443184545636177
1772642705151078000,6.494077880859375,0.008972703267633914,-0.060090019303560255,0.009420447035133839
1772642705161119000,6.504118896484375,0.017164777551591397,-0.055518473604321474,0.013742840278893708
1772642705171160800,6.514160888671875,0.02007891143262386,-0.054312604945898055,0.00018017887249588966
1772642705181202000,6.524201904296875,0.023917466682195663,-0.037632103779911996,0.0018269231662154197
1772642705191244000,6.534244140625,0.02717968334853649,-0.05656242969930172,-0.014727321271598337
1772642705201285000,6.54428515625,0.014458733463287353,-0.06287058993279934,-0.013874211573600768
1772642705211327000,6.554326904296875,-0.013406009539961815,-0.06675590693354606,-0.00969137293100357
1772642705221368000,6.5643681640625,-0.012635609689354895,-0.08599427588880061,-0.0021891806073486802
1772642705231410000,6.574409912109375,-0.004769698619842529,-0.08972820172011851,-0.00035232056900858877
1772642705241451000,6.584450927734375,0.0016886837393045423,-0.07608020011782646,0.008076046688854694
1772642705251492000,6.5944921875,0.0008501870885491371,-0.06545242311954498,0.0014618892461061477
1772642705261534000,6.604533935546875,0.0022504092752933503,-0.058254036048054694,-0.004208265344798565
1772642705271575000,6.614574951171875,0.00027647885382175443,-0.07099661324322223,-0.002032821001857519
1772642705281617000,6.624616943359375,0.005825052891671657,-0.06896423063278198,-0.005804594625532627
1772642705291658000,6.634657958984375,0.011312836652994155,-0.06692834089100361,-0.021661650579422712
1772642705301700000,6.6447001953125,0.014695172567665575,-0.05772855086922645,-0.043089054011553524
1772642705311741200,6.6547412109375,0.01651098981797695,-0.050503860312700266,-0.045968847231566905
1772642705321783000,6.664782958984375,0.023194997626543045,-0.03279693870842457,-0.05215703434720635
1772642705331824000,6.67482421875,0.025612580162286756,-0.024569208589196204,-0.055014907996356485
1772642705341866000,6.684865966796875,0.015547697743773459,-0.019085808742046354,-0.05422887218520045
1772642705351907000,6.694906982421875,0.01628302628099918,-0.026736615756154058,-0.04639335625395179
1772642705361949000,6.704948974609375,-0.0061287120133638375,-0.03413374027013778,-0.0483829226359725
1772642705371990000,6.714989990234375,-0.018949030619859693,-0.036028175714612004,-0.02604249601215124
1772642705382032000,6.725031982421875,-0.010677461358904837,-0.036979192829132077,-0.015508973168581724
1772642705392073000,6.735072998046875,0.0078068743586540215,-0.034110943916440005,-0.028690234041959046
1772642705402115000,6.745114990234375,0.017418460051715372,-0.015678630647063256,-0.026100655940175056
1772642705412156200,6.75515625,0.02683861482590437,-0.01319791974723339,-0.017375205431878565
1772642705422198000,6.765197998046875,0.027215631444752215,-0.02440729602575302,-0.020893004294484853
1772642705432239000,6.775239013671875,0.0362616922095418,-0.049506665968894956,-0.02444528994858265
1772642705442281000,6.785281005859375,0.00014408464580774306,-0.055337271818518635,-0.016786884149909018
1772642705452322000,6.795322021484375,0.00419452908039093,-0.05293196424245834,-0.02535100661665201
1772642705462364000,6.805364013671875,0.008325345274806021,-0.05926233630776405,-0.033267332699149846
1772642705472405000,6.815405029296875,-0.00274754514247179,-0.041165538603067396,-0.041766573236137625
1772642705482446800,6.82544677734375,0.012042612232267855,-0.03528115673959255,-0.03582622340172529
1772642705492488000,6.835488037109375,-0.0073734513774514196,-0.04327157097160816,-0.017883008823543788
1772642705502530000,6.845530029296875,-0.016110007801651952,-0.07171908229887484,-0.016825462594628332
1772642705512571100,6.855571044921875,-0.0047381344377994536,-0.07925415397882461,0.0017611644536256789
1772642705522613000,6.865613037109375,-0.008249357429146766,-0.09823124164938926,0.01627835010588169
1772642705532654000,6.875654052734375,0.0006467734709382057,-0.10116203440427779,0.004054828348755837
1772642705542696000,6.885696044921875,0.019456980141997336,-0.0932756650686264,-0.012872779446095228
1772642705552737000,6.895737060546875,0.00345773923844099,-0.0796118813753128,-0.010198884061723947
1772642705562779000,6.90577880859375,-0.009440320779383182,-0.06790741505622863,-0.00034866730719804764
1772642705572820000,6.915820068359375,0.004902385088801383,-0.06607552345395087,-0.009659224227070808
1772642705582861800,6.92586181640625,-0.00547112488746643,-0.07443301743268967,-0.015646774204075335
1772642705592903000,6.93590283203125,0.00265256033539772,-0.0656213499456644,-0.0022287819653749466
1772642705602945000,6.945945068359375,-0.004709200604259968,-0.05624386526942253,0.008994622838497161
1772642705612986000,6.955986083984375,0.00428337640762329,-0.05180617508292198,-0.007231266427785158
1772642705623028000,6.966028076171875,0.02607026080191135,-0.04471124838590622,-0.012176613875478505
1772642705633069000,6.976069091796875,0.02057575503885746,-0.03755027071535587,-0.02701177943572402
1772642705643111000,6.98611083984375,0.012980185343325137,-0.03720248019099235,-0.030136195066571232
1772642705653152000,6.996152099609375,0.0011494622960686682,-0.04698679210245609,-0.01923880734667182
1772642705663193900,7.00619384765625,0.01603781934827566,-0.05081482595801353,-0.027460838377475736
1772642705673235000,7.01623486328125,0.010683598838746547,-0.04981470900475979,-0.03225494078621268
1772642705683277000,7.026277099609375,0.02705459566414356,-0.041350247520208355,-0.018167963244765994
1772642705693318100,7.036318115234375,0.03129354840815067,-0.041220483660697936,-0.020982874535024166
1772642705703360000,7.046360107421875,0.038789749382436275,-0.02319090597331524,-0.03235693985596299
1772642705713401000,7.056401123046875,0.026495792737603188,-0.017080314138531685,-0.029444559540599585
1772642705723443000,7.06644287109375,0.022523381975293157,-0.025195231533050536,-0.015637275723367927
1772642705733484000,7.076484130859375,0.021582886254787444,-0.05807984852492809,-0.016821370941400526
1772642705743524600,7.086524658203125,0.01362228263914585,-0.06554594662189484,-0.008917612079530953
1772642705753565400,7.0965654296875,0.02126286052018404,-0.06729483611583709,-0.021340601931512354
1772642705763607800,7.10660791015625,0.020984920361638067,-0.04868073653876781,-0.02470204118862748
1772642705773648600,7.116648681640625,0.01497603533565998,-0.03849602713286877,-0.01992401313185692
1772642705783690800,7.126690673828125,0.00398147085160017,-0.05003156662583351,-0.016462620631605387
1772642705793731600,7.136731689453125,0.023769290383160113,-0.05424363136291504,-0.005073942263424397
1772642705803773700,7.146773681640625,0.02260521503984928,-0.055606736409664154,0.006574263823777437
1772642705813814500,7.156814453125,0.03255290081948042,-0.056278352060914034,0.00575695609152317
1772642705823856600,7.166856689453125,0.042513153819739816,-0.05885141741931438,0.009318447965383529
1772642705833897500,7.1768974609375,0.04105944788008928,-0.05163315660357475,0.001315174251794815
1772642705843939600,7.186939697265625,0.02716302447468042,-0.0339022696018219,-0.012193418879806994
1772642705853980400,7.19698046875,0.03010667671114206,-0.0341635508865118,-0.015270634368062018
1772642705864021500,7.207021484375,0.02908200983852148,-0.02396247486770153,-0.024705109928548335
1772642705874063600,7.217063720703125,0.02377250525355339,-0.02239654072523117,-0.01199234334975481
1772642705884104700,7.227104736328125,0.027057518273591992,-0.03914543095231056,-0.0014611585937440396
1772642705894146600,7.237146484375,0.0230880301207304,-0.0333007965773344,-0.0004990355633199214
1772642705904187600,7.247187744140625,0.03751023096591234,-0.03683306235671043,0.005677461114525795
1772642705914229500,7.2572294921875,0.03293868526667356,-0.057468438628315924,0.001660772819072008
1772642705924270600,7.2672705078125,0.023555355371534824,-0.061628480917215345,-0.0014331015430390833
1772642705934312700,7.277312744140625,0.026072598889470097,-0.06166647484004497,-0.0033715222597122192
1772642705944353500,7.287353515625,0.01661737280189991,-0.06640285571217537,0.014481529816985129
1772642705954395600,7.297395751953125,0.03862696003615856,-0.05391454553902149,0.022900544724613427
1772642705964436500,7.3074365234375,0.042461423632502555,-0.036626726129651066,0.007466244227439165
1772642705974478800,7.317478759765625,0.03324731282442808,-0.05060965877473354,-0.008662906666100024
1772642705984519700,7.327519775390625,0.025830022305250167,-0.039458150163292884,-0.012041881579905747
1772642705994561800,7.337561767578125,0.02410889760106802,-0.03817687818109989,-0.012447393640875815
1772642706004602600,7.3476025390625,0.00993541081994772,-0.04228314445614814,-0.00018383213430643082
1772642706014644700,7.357644775390625,0.01451163269430399,-0.060008770760893816,0.007683832500874996
1772642706024685600,7.367685546875,0.03680091365277767,-0.05335223548114299,0.00495090040564537
1772642706034727700,7.377727783203125,0.03985562504827976,-0.05754384195208549,0.009080109164863825
1772642706044768500,7.3877685546875,0.06432604943811893,-0.053128363597393036,-0.0019096330136060713
1772642706054810600,7.397810546875,0.04833265375345945,-0.048041854113340374,-0.010310381612181663
1772642706064851500,7.4078515625,0.03769026370793581,-0.04864566522538662,-0.001542699397355318
1772642706074893800,7.417893798828125,0.021127543702721595,-0.03876549172401428,-0.009744564422965049
1772642706084934700,7.4279345703125,0.02875526210218668,-0.050855742490291594,-0.00473871895968914
1772642706094976800,7.437976806640625,0.026399054364860057,-0.06059738430380821,0.010043255108594894
1772642706105017600,7.448017578125,0.03309358356744051,-0.05534428608119488,0.008442103522270917
1772642706115059700,7.458059814453125,0.05672375774085522,-0.04163783228993415,-0.00045022798553109167
1772642706125100500,7.4681005859375,0.035849604277312756,-0.03124912474453449,-0.015154022251069545
1772642706135142700,7.478142578125,0.03134557085633278,-0.04090367279648781,-0.016318535985797644
1772642706145183500,7.48818359375,0.026302900514006612,-0.04442191005051136,-0.018858575857430695
1772642706155225900,7.498225830078125,0.026918402063846585,-0.051337973049283024,-0.017518121033906934
1772642706165266700,7.5082666015625,0.026534078921377657,-0.0385685078471899,-0.011789221993088721
1772642706175308800,7.518308837890625,0.03583002279400825,-0.025885551884770392,-0.032852906679362054
1772642706185349600,7.528349609375,0.047670390452444554,-0.05042904151082039,-0.012964987774193287
1772642706195391700,7.538391845703125,0.03419803767800331,-0.050986675393581385,-0.010140431872755288
1772642706205432600,7.5484326171875,0.031899405346810815,-0.0504851556122303,-0.00809080586656928
1772642706215474700,7.558474609375,0.010915946289896965,-0.05235913279056549,-0.012688216659426689
1772642706225515500,7.568515625,0.026918986585736274,-0.0517792870759964,0.00033449265137314795
1772642706235557600,7.5785576171875,0.027900983360409734,-0.04827040217220783,-0.01226487668082118
1772642706245598500,7.588598388671875,0.049560441982746124,-0.04854512746036052,-0.020811609621345997
1772642706255640800,7.598640869140625,0.05022562789320945,-0.024165303963422775,-0.03134162533357739
1772642706265681700,7.608681640625,0.055097325582802295,-0.009331307446956634,-0.024197452667355537
1772642706275723800,7.618723876953125,0.06283376505374907,-0.018214871126413346,-0.025387831495702264
1772642706285764600,7.6287646484375,0.0651569473043084,-0.011434417206048965,-0.034544659158587454
1772642706295806700,7.638806640625,0.05624269622564315,-0.012734393888711929,-0.03190715026184916
1772642706305847600,7.64884765625,0.05654869343489408,-0.034335984843969346,-0.0260692378886044
1772642706315889700,7.6588896484375,0.05163929408341646,-0.02868774982392788,-0.028963351894915102
1772642706325930500,7.668930419921875,0.07209492987394332,-0.028466216027736663,-0.017534926038235425
1772642706335972600,7.67897265625,0.0704994773760438,-0.038058220237493515,-0.027701223004609345
1772642706346013400,7.689013427734375,0.06311228973418474,-0.01903553985953331,-0.0200184134170413
1772642706356055800,7.699055908203125,0.062170917230844495,-0.015576339316368102,-0.019789865358173845
1772642706366096600,7.7090966796875,0.07001227838099003,-0.028573768055438993,-0.016989859376102683
1772642706376138800,7.719138671875,0.06530366229861974,-0.026766426372528074,-0.02038607768565416
1772642706386179600,7.7291796875,0.07329524557441472,-0.029138416200876233,-0.02853621252402663
1772642706396221700,7.7392216796875,0.06482786148041486,-0.013597732719779014,-0.030276188059151173
1772642706406262500,7.749262451171875,0.05443097062855959,-0.008762567648291588,-0.026098756244033572
1772642706416304600,7.7593046875,0.05753799673318863,-0.03722761463224888,-0.03003828765004873
1772642706426345500,7.769345458984375,0.029181378559768198,-0.04652677337527275,-0.006285071618854999
1772642706436387600,7.7793876953125,0.025883506058156487,-0.07786649901270866,0.013836948303133248
1772642706446428400,7.789428466796875,0.049338908186554904,-0.09491875610053539,0.00607215952053666
1772642706456470800,7.799470703125,0.043507425554096694,-0.08831132065951823,0.02701192556619644
1772642706466511600,7.80951171875,0.07475742708146571,-0.08212298741340637,0.006702712509036064
1772642706476553700,7.8195537109375,0.06590396627932786,-0.05789397056400775,0.015657441728562115
1772642706486594600,7.829594482421875,0.06350099679082631,-0.05345803394317627,0.03476633908525109
1772642706496636700,7.83963671875,0.0431827236443758,-0.05294833085536956,0.04085413456633687
1772642706506677500,7.849677490234375,0.04527355844378471,-0.05372983662188053,0.04577683179080486
1772642706516718600,7.859718505859375,0.04539864612817764,-0.04039747684001922,0.044069881742447616
1772642706526760700,7.8697607421875,0.06366437065899372,-0.02376899812221527,0.04091200223341584
1772642706536801500,7.879801513671875,0.06710311293601989,-0.028053543573617935,0.03601210136264563
1772642706546843600,7.88984375,0.08037848183363676,-0.033815175840258595,0.021954934437572956
1772642706556884500,7.899884521484375,0.07731821748018264,-0.02773030296862125,0.014143822295218706
1772642706566926600,7.909926513671875,0.057176762205362316,-0.027550270226597784,0.020189970591664313
1772642706576967700,7.9199677734375,0.05118628961890936,-0.034006314498186106,0.022837124099582433
1772642706587009800,7.930009765625,0.04846826283186674,-0.0354489145219326,0.021551029811799526
1772642706597050600,7.940050537109375,0.040139118164777755,-0.018420622831583022,0.013280337333679199
1772642706607092700,7.9500927734375,0.0520621956706047,-0.01021335097849369,-0.02575491124242544
1772642706617133600,7.960133544921875,0.04682780214846134,-0.006449030008912086,-0.02410729016587138
1772642706627175700,7.97017578125,0.043697979690134524,-0.018606500792503356,-0.027437457501888272
1772642706637216500,7.980216552734375,0.03840688754469156,-0.017102525970339774,-0.044036271733790634
1772642706647258600,7.990258544921875,0.049152737964689726,-0.03909516206979751,-0.018349018900096416
1772642706657299700,8.0002998046875,0.048829789620637894,-0.04914484691917896,-0.00908770794942975
1772642706667341800,8.010341796875,0.06196721135228872,-0.05400806904137134,-0.007016746894270181
1772642706677382700,8.020382568359375,0.04160451454222202,-0.05072656315267086,-0.026233926931023596
1772642706687424800,8.0304248046875,0.05189093075692653,-0.04675064525902271,-0.02647474994957447
1772642706697465600,8.040465576171876,0.017742869700491427,-0.03954056774973869,-0.036208939108997584
1772642706707507700,8.0505078125,-0.013949907158315181,-0.03412789505124092,-0.02933686138242483
1772642706717548500,8.060548583984374,0.003301379632949829,-0.053912207451462746,-0.006536708292365074
1772642706727590700,8.070590576171876,0.003770750710368156,-0.06321779593527317,-0.007323328625410795
1772642706737631700,8.0806318359375,0.008303425703942775,-0.05116846170127391,-0.0009418108947575091
1772642706747673900,8.090673828125,0.014896248097717762,-0.05111468568742275,-0.002571311792731285
1772642706757714700,8.100714599609375,0.004494388809800148,-0.06800795282125473,0.001836275516450405
1772642706767756800,8.1107568359375,0.0019575638085603713,-0.07095745027661324,0.010886720195412635
1772642706777797600,8.120797607421874,0.008074293123185633,-0.08890928655266761,0.004542611865699291
1772642706787839700,8.13083984375,0.010175649316608906,-0.08351531855463981,0.016337240686267615
1772642706797880600,8.140880615234375,-0.008208733157813548,-0.08083703925609588,0.016630378413945435
1772642706807923000,8.1509228515625,-0.011738953110575675,-0.06813187146186828,0.01504793152809143
1772642706817963800,8.1609638671875,-0.003867489083111286,-0.06030979953408241,0.0007777063742280006
1772642706828006000,8.171005859375,0.011250000549852847,-0.05725684170424938,0.012999182304739952
1772642706838046700,8.181046630859376,0.01967062289267778,-0.04485445624887943,0.013049012795835733
1772642706848088800,8.1910888671875,0.02495762338489294,-0.05266892939209938,0.021903934902697802
1772642706858129700,8.201129638671874,0.008296995963156223,-0.04824000703394413,0.023837679444253444
1772642706868171800,8.211171875,0.008622866916656494,-0.05080722717344761,0.0364858563542366
1772642706878212600,8.221212646484375,0.0017015432208776474,-0.0549205077111721,0.010538929671049118
1772642706888255000,8.2312548828125,0.011217851845920085,-0.04674363099634647,-0.005856324812769889
1772642706898295800,8.2412958984375,0.029048692090809344,-0.03286474324762821,-0.025918723502010105
1772642706908338000,8.251337890625,0.024055413848161695,-0.04573766882419586,-0.04468830590173602
1772642706918378800,8.261378662109376,0.027352409566938875,-0.04876081603765487,-0.05420052287355065
1772642706928420900,8.2714208984375,0.013554185838997363,-0.045427287700772284,-0.03936126566007733
1772642706938461700,8.281461669921875,0.007053133381903171,-0.04479015884101391,-0.04626768404766917
1772642706948503800,8.29150390625,0.004940379011631012,-0.032110710009932514,-0.035097762996703384
1772642706958544600,8.301544677734375,0.02557283267378807,-0.03478255956768989,-0.03075461922585964
1772642706968586800,8.311586669921875,0.03592997603714466,-0.03174655287265778,-0.02284223866611719
1772642706978627600,8.321627685546876,0.0335559403821826,-0.03147182758450508,-0.026072598889470097
1772642706988670000,8.331669921875,0.04490121800005436,-0.03580547287464142,-0.0336187764853239
1772642706998710800,8.341710693359374,0.03017594255506992,-0.04495207140445709,-0.03750380122512579
1772642707008753000,8.3517529296875,0.031200901688635346,-0.046073768910765645,-0.02541734985113144
1772642707018793700,8.361793701171875,0.02124795521199703,-0.05926058274209499,-0.03115925450399518
1772642707028835800,8.3718359375,0.012758067025244235,-0.05499123485982418,-0.03532455748990178
1772642707038876700,8.381876708984375,0.036333588401973246,-0.051147418913245195,-0.027302579075843093
1772642707048918800,8.391918701171875,0.04922784902751445,-0.043590719923377035,-0.04391907509490847
1772642707058959600,8.401959716796876,0.05332300938665867,-0.032333997371792794,-0.0436249144539237
1772642707069001700,8.412001708984375,0.07379355048537253,-0.03906593597531319,-0.04525558439567685
1772642707079042600,8.42204248046875,0.033554771338403226,-0.05261632242202759,-0.061254094646871086
1772642707089085000,8.4320849609375,0.004326631027460098,-0.029713585740327834,-0.04422229582518339
1772642707099125800,8.442125732421875,0.005148468804359436,-0.033301381099224085,-0.028263094671070573
1772642707109167900,8.45216796875,-0.0021364275068044662,-0.049612464430928226,-0.019962591576576233
1772642707119208700,8.462208740234376,0.02514145551919937,-0.07103636073172093,-0.021997896796464918
1772642707129250800,8.472250732421875,0.027075053930282592,-0.0725227998971939,-0.006882891381531953
1772642707139291600,8.482291748046874,0.008140928618609905,-0.07046352927982807,-0.008992577011883258
1772642707149332700,8.492332763671875,0.019505495458841324,-0.06890987009704112,-0.013334113347530364
1772642707159374600,8.50237451171875,0.010048808066546917,-0.07307575760483741,-0.0066026131354272365
1772642707169416700,8.512416748046874,0.001202361527085304,-0.059761518001556393,-0.013745616757869719
1772642707179457800,8.522457763671875,0.0023564999982714652,-0.06793313401937484,-0.0011085457637906074
1772642707189498600,8.53249853515625,0.007594108390808105,-0.061814358878135675,-0.004693126252293587
1772642707199540700,8.542540771484376,0.018448972143232822,-0.04854921911358833,0.000026888006925582884
1772642707209581800,8.552581787109375,0.019489421106874943,-0.053664954692125316,0.0027834932386875152
1772642707219623700,8.562623779296874,0.023787995083630085,-0.028974165549874305,0.004546557388454675
1772642707229664800,8.572664794921875,0.019657471150159835,-0.02320434997677803,0.010204583150148392
1772642707239707000,8.582706787109375,0.023107903864979743,-0.0428296724230051,0.008023731979727744
1772642707249747700,8.592747802734374,0.013542787662148476,-0.04338613726198673,-0.006354045201838016
1772642707259789800,8.602789794921875,0.021346154889464376,-0.03428045526444912,0.00289133752733469
1772642707269830700,8.61283056640625,0.03769055596888065,-0.031679332855343814,-0.011529109752178192
1772642707279872800,8.622872802734374,0.050963294517993925,-0.020849895805120467,-0.03101823859810829
1772642707289913600,8.63291357421875,0.050806058129668236,-0.020155483800172805,-0.03136296038255095
1772642707299956000,8.6429560546875,0.04476034822463989,-0.0354226110368967,-0.034046792639046905
1772642707309996800,8.652996826171876,0.03702010936141014,-0.030716040781140326,-0.02843216762766242
1772642707320039000,8.663038818359375,0.0387953023403883,-0.029880759000778197,-0.01497428176999092
1772642707330079700,8.673079833984374,0.029744857661426066,-0.01914835258424282,-0.022552315808832643
1772642707340121900,8.683121826171876,0.045725686125457285,-0.019022095856070516,-0.017881693649291992
1772642707350162700,8.69316259765625,0.03625584699064493,-0.03652735740840435,-0.023417992727458474
1772642707360204800,8.703204833984374,0.021176351280510423,-0.046318683582544325,-0.011809680259227752
1772642707370245600,8.71324560546875,0.02829845824539661,-0.04733516714870929,0.0005241700045764446
1772642707380287700,8.723287841796875,0.031845044811069964,-0.05799801546037197,0.0013259879067540167
1772642707390328600,8.73332861328125,0.01857932052463293,-0.06851765590906143,-0.005138093540817499
1772642707400371000,8.743370849609375,0.003658522507548332,-0.08639116625189781,-0.006997457671910524
1772642707410411800,8.753411865234375,0.0015264789149165153,-0.09145546390414237,-0.004307049544155598
1772642707420454000,8.763453857421876,0.0216980370670557,-0.08067161956131458,-0.010062690461426972
1772642707430494700,8.77349462890625,0.02992722849100828,-0.07189619243144989,-0.02600698630735278
1772642707440536800,8.783536865234375,0.03933510830551386,-0.052118309772014614,-0.023759791902452705
1772642707450577700,8.79357763671875,0.027792846810817718,-0.047187867632508276,-0.036877924411743875
1772642707460619800,8.803619873046875,0.02204875020086765,-0.037486557829380034,-0.03228241331502795
1772642707470660600,8.81366064453125,0.017941314882040024,-0.0286082548469305,-0.014832973603159189
1772642707480703000,8.823702880859376,0.04123071279376745,-0.030653496938943862,-0.011843582528829574
1772642707490743800,8.833743896484375,0.04090981027632951,-0.027527473872900006,-0.01826499387845397
1772642707500786000,8.843785888671874,0.04295125297605991,-0.017008417946100234,-0.021957564786076543
1772642707510826800,8.85382666015625,0.11524112090021371,-0.047076808473467825,-0.02411708090752363
1772642707520868900,8.863868896484375,0.08435732233673333,0.023425883772969246,-0.0006087795481085777
1772642707530909700,8.87390966796875,0.0338522929802537,0.06236322493255138,-0.0033716683901846406
1772642707540951800,8.883951904296875,0.019163550153374672,0.01913140144944191,-0.01699731203019619
1772642707550992600,8.89399267578125,0.012708090403676032,-0.032632688057422636,-0.03372895886152982
1772642707561034800,8.90403466796875,0.02231675348728895,-0.06919160964787006,-0.018261632877588273
1772642707571075600,8.91407568359375,0.042893969830870626,-0.09796002349257468,-0.010879413671791552
1772642707581118000,8.924117919921875,0.044694297251105304,-0.09247136294841765,0.01765431463420391
1772642707591158800,8.93415869140625,0.035168051753938195,-0.03147825732529163,0.007447247266024351
1772642707601201000,8.944200927734375,0.04425736713856458,-0.034118542701005936,-0.00406666491702199
