time,seconds_elapsed,z,y,x
1772642698716996600,0.05999658203125,0.0034430143423378468,-0.006828678771853447,-0.0005862673278898001
1772642698727039000,0.0700390625,0.0035380893386900425,-0.009243899956345558,-0.001851002685725689
1772642698737079800,0.080079833984375,0.0036781749222427607,-0.00747357914224267,-0.0049551730044186115
1772642698747122000,0.090121826171875,0.0034283704590052366,-0.007974520325660706,-0.009523559361696243
1772642698757162800,0.100162841796875,0.003290284425020218,-0.007264579180628061,-0.010701347142457962
1772642698767204900,0.110204833984375,0.004080177750438452,-0.006026475690305233,-0.010046475566923618
1772642698777245700,0.12024560546875,0.003428323194384575,-0.004252227954566479,-0.009563914500176907
1772642698787287800,0.130287841796875,0.004618490114808083,-0.0027233073487877846,-0.00928082037717104
1772642698797328600,0.14032861328125,0.005368003621697426,-0.0010586811695247889,-0.009512926451861858
1772642698807371000,0.15037109375,0.0041109914891421795,-0.0009854442905634642,-0.011185391806066036
1772642698817411800,0.160411865234375,0.005187280010432005,0.0012726536951959133,-0.010348488576710224
1772642698827454000,0.170453857421875,0.005637354217469692,0.0014582759467884898,-0.009061915799975395
1772642698837494800,0.180494873046875,0.005568099208176136,0.003584974678233266,-0.005300593562424183
1772642698847537000,0.190536865234375,0.0037909718230366707,0.005761575885117054,-0.0030917678959667683
1772642698857577700,0.20057763671875,0.004276304505765438,0.007686778903007507,-0.0032602092251181602
1772642698867618800,0.210618896484375,0.0052113402634859085,0.007937648333609104,-0.002786699216812849
1772642698877660700,0.22066064453125,0.009502610191702843,0.00736011378467083,-0.0017648458015173674
1772642698887701800,0.23070166015625,0.009262925013899803,0.00889862235635519,-0.00038532819598913193
1772642698897743600,0.24074365234375,0.01074923574924469,0.01211998239159584,-0.001168830320239067
1772642698907784700,0.25078466796875,0.010414475575089455,0.012975655496120453,-0.0015589834656566381
1772642698917826800,0.260826904296875,0.009469851851463318,0.013390576466917992,0.00017579970881342888
1772642698927868000,0.270867919921875,0.00900379940867424,0.009738050401210785,-0.0019347553607076406
1772642698937909800,0.28090966796875,0.00718463771045208,0.010148867964744568,-0.0013548543211072683
1772642698947950800,0.290950927734375,0.006861330009996891,0.007368793711066246,-0.002613996621221304
1772642698957992700,0.30099267578125,0.007123948074877262,0.0062292832881212234,-0.003912551328539848
1772642698968033800,0.31103369140625,0.006633926648646593,0.003502472536638379,-0.0030829766765236855
1772642698978075600,0.32107568359375,0.007175094448029995,0.0028229360468685627,-0.005796343088150024
1772642698988116700,0.33111669921875,0.006298115476965904,0.004094328731298447,-0.007464281283318996
1772642698998158600,0.34115869140625,0.006076081655919552,0.0032971922773867846,-0.008316358551383018
1772642699008199700,0.35119970703125,0.008272923529148102,0.0012984898639842868,-0.007400764152407646
1772642699018241800,0.36124169921875,0.0063551682978868484,-0.0006696881027892232,-0.005417902488261461
1772642699028283000,0.371282958984375,0.005877929739654064,0.0004371216055005789,-0.00363544886931777
1772642699038324700,0.38132470703125,0.004860247951000929,0.002996103372424841,-0.0020844205282628536
1772642699048365800,0.39136572265625,0.0046650380827486515,0.004397458862513304,-0.00484611839056015
1772642699058407700,0.40140771484375,0.005342458374798298,0.007497327867895365,-0.007884250022470951
1772642699068448800,0.41144873046875,0.00803198479115963,0.010753842070698738,-0.007906087674200535
1772642699078490600,0.42149072265625,0.008361488580703735,0.012824545614421368,-0.005163973663002253
1772642699088531700,0.43153173828125,0.008273870684206486,0.014505266211926937,-0.00338897667825222
1772642699098572800,0.44157275390625,0.009867759421467781,0.015386405400931835,-0.0013453953433781862
1772642699108615000,0.451614990234375,0.009009156376123428,0.015643132850527763,0.00008658622391521931
1772642699118656000,0.461656005859375,0.01017911359667778,0.017850151285529137,0.0005814038449898362
1772642699128697900,0.47169775390625,0.009590554982423782,0.016351856291294098,0.0020512023475021124
1772642699138739000,0.481739013671875,0.01066627912223339,0.016989363357424736,-0.0002024974673986435
1772642699148780800,0.49178076171875,0.009588231332600117,0.013076381757855415,-0.00015083211474120617
1772642699158822000,0.50182177734375,0.009376641362905502,0.01245127897709608,0.0020250987727195024
1772642699168863700,0.51186376953125,0.0122563187032938,0.010426211170852184,0.0017976649105548859
1772642699178904800,0.52190478515625,0.010900607332587242,0.009092236869037151,0.003194362623617053
1772642699188946700,0.53194677734375,0.01088942214846611,0.009303691796958447,0.00010349787771701813
1772642699198987800,0.54198779296875,0.010556038469076157,0.009970173239707947,0.003035237081348896
1772642699209030000,0.55202978515625,0.01114992331713438,0.011033040471374989,0.0028229830786585808
1772642699219071000,0.562071044921875,0.009243868291378021,0.008933348581194878,0.0043258024379611015
1772642699229112800,0.57211279296875,0.00887715071439743,0.007182586006820202,0.004991060122847557
1772642699239154000,0.58215380859375,0.00774472625926137,0.005681884475052357,0.005314487032592297
1772642699249195800,0.59219580078125,0.006045895628631115,0.0015281520318239927,0.0032854245509952307
1772642699259236900,0.60223681640625,0.006454752758145332,-0.003696857485920191,0.003423917107284069
1772642699269278700,0.61227880859375,0.007047305814921856,-0.008056717924773693,0.002203390235081315
1772642699279319800,0.62231982421875,0.010337566956877708,-0.011014106683433056,0.0034086029045283794
1772642699289361700,0.632361572265625,0.010433973744511604,-0.012132368050515652,0.0026733041740953922
1772642699299402800,0.64240283203125,0.00993405468761921,-0.012650510296225548,0.001887274906039238
1772642699309443800,0.65244384765625,0.009507416747510433,-0.01236581802368164,0.0031980827916413546
1772642699319486000,0.66248583984375,0.008338349871337414,-0.013862136751413345,0.0050734868273139
1772642699329526800,0.67252685546875,0.007241393439471722,-0.015338593162596226,0.0059424759820103645
1772642699339569000,0.68256884765625,0.004045792855322361,-0.017740445211529732,0.007804424501955509
1772642699349609700,0.692609619140625,0.0043728286400437355,-0.016268249601125717,0.0082299979403615
1772642699359651800,0.70265185546875,0.0022153884638100863,-0.013888285495340824,0.0071187978610396385
1772642699369693000,0.71269287109375,-0.0009439194691367447,-0.011159876361489296,0.005901200696825981
1772642699379734800,0.72273486328125,-0.0033860686235129833,-0.00611670408397913,0.003164267633110285
1772642699389776000,0.73277587890625,-0.0056822458282113075,-0.004153688438236713,0.000713626854121685
1772642699399817700,0.742817626953125,-0.005920080002397299,-0.0001902080257423222,0.0030818465165793896
1772642699409858800,0.75285888671875,-0.007081218529492617,0.0018292670138180256,0.0024269751738756895
1772642699419901000,0.76290087890625,-0.007847467437386513,0.003144873771816492,0.005232351832091808
1772642699429942000,0.77294189453125,-0.008506866171956062,0.003951278980821371,0.007139175198972225
1772642699439983900,0.78298388671875,-0.007389127276837826,0.0019754653330892324,0.0070876311510801315
1772642699450025000,0.79302490234375,-0.00960487686097622,0.0019640137907117605,0.008546244353055954
1772642699460066800,0.80306689453125,-0.007051604334264994,0.0040390328504145145,0.009808170609176159
1772642699470108000,0.81310791015625,-0.00674321036785841,0.004824399016797543,0.010383146815001965
1772642699480149800,0.823149658203125,-0.009885809384286404,0.007085062563419342,0.008683932945132256
1772642699490190800,0.83319091796875,-0.008099094964563847,0.008597471751272678,0.0073084100149571896
1772642699500231700,0.843231689453125,-0.009238796308636665,0.010773747228085995,0.005748722702264786
1772642699510273800,0.853273681640625,-0.00800282321870327,0.014047037810087204,0.003175043500959873
1772642699520314600,0.863314697265625,-0.0036043294239789248,0.016647836193442345,0.001658515422604978
1772642699530357000,0.87335693359375,-0.004344955086708069,0.01679963618516922,0.0029128643218427896
1772642699540397800,0.883397705078125,-0.005733628291636705,0.013112337328493595,0.001226956257596612
1772642699550440000,0.89343994140625,-0.005283554084599018,0.007236071862280369,0.002214988926425576
1772642699560480800,0.903480712890625,-0.006695788353681564,0.0032027550041675568,-0.0008360736537724733
1772642699570523000,0.91352294921875,-0.0072428020648658276,0.003018730552867055,0.0033360347151756287
1772642699580563700,0.923563720703125,-0.006670767441391945,0.0016870483523234725,0.005030476022511721
1772642699590605800,0.933605712890625,-0.0079719889909029,-0.0004352247342467308,0.006564190611243248
1772642699600646700,0.943646728515625,-0.00908539816737175,-0.00274286069907248,0.0036624022759497166
1772642699610688800,0.953688720703125,-0.009200980886816978,-0.004289091564714909,-0.0022705879528075457
1772642699620729900,0.963729736328125,-0.00793328508734703,-0.007884569466114044,-0.003873274428769946
1772642699630772000,0.97377197265625,-0.006222470197826624,-0.007993758656084538,-0.0034900458995252848
1772642699640812800,0.983812744140625,-0.00845863576978445,-0.009924383834004402,-0.0014410016592592
1772642699650855000,0.99385498046875,-0.00902988389134407,-0.010984322056174278,-0.0033132038079202175
1772642699660895700,1.003895751953125,-0.012033754028379917,-0.00909071508795023,-0.005153722129762173
1772642699670937900,1.013937744140625,-0.010869420133531094,-0.005917026195675135,-0.007204889319837093
1772642699680978700,1.023978759765625,-0.014507193118333817,-0.004989177919924259,-0.010684705339372158
1772642699691020800,1.034020751953125,-0.015697892755270004,-0.0021113657858222723,-0.009615445509552956
1772642699701061600,1.0440615234375,-0.017710531130433083,-0.001165993046015501,-0.007048420608043671
1772642699711104000,1.05410400390625,-0.01655258983373642,0.00161541230045259,-0.00530085526406765
1772642699721144800,1.064144775390625,-0.01705191656947136,0.0020722467452287674,-0.003155017038807273
1772642699731185200,1.07418505859375,-0.018482035025954247,0.002148413099348545,-0.0031398374121636152
1772642699741227300,1.084227294921875,-0.016624407842755318,0.005048010498285294,-0.0012118411250412464
1772642699751268000,1.09426806640625,-0.015560739673674107,0.006563348695635796,0.00042733456939458847
1772642699761310200,1.104310302734375,-0.015589396469295025,0.009299217723309994,0.0014240257441997528
1772642699771351000,1.11435107421875,-0.01005508191883564,0.008877373300492764,0.003538841847330332
1772642699781393200,1.12439306640625,-0.011403266340494156,0.009668163023889065,0.0057383375242352486
1772642699791434000,1.13443408203125,-0.009730800986289978,0.015650156885385513,0.0030834325589239597
1772642699801476400,1.144476318359375,-0.00703949760645628,0.014861545525491238,0.0007720801513642073
1772642699811517200,1.15451708984375,-0.005724961403757334,0.014574190601706505,0.0001254645176231861
1772642699821559300,1.164559326171875,-0.0055611333809792995,0.0124715156853199,0.00305560533888638
1772642699831600000,1.17460009765625,-0.0052958824671804905,0.009419799782335758,0.003951759077608585
1772642699841642200,1.184642333984375,-0.0033664789516478777,0.007004318758845329,0.009628825820982456
1772642699851683000,1.19468310546875,-0.00508927833288908,0.007720442954450846,0.009254652075469494
1772642699861725200,1.20472509765625,-0.002503763185814023,0.009586358442902565,0.006073771044611931
1772642699871766000,1.21476611328125,-0.0027471762150526047,0.010219126008450985,0.0033307152334600687
1772642699881808100,1.22480810546875,-0.0013124875258654356,0.009599300101399422,0.004627007059752941
1772642699891849000,1.234848876953125,-0.00014575663954019547,0.006834140047430992,0.004348174203187227
1772642699901891300,1.244891357421875,-0.002482475247234106,0.005236397497355938,0.0027729079592972994
1772642699911932200,1.25493212890625,-0.0016028331592679024,0.0026651155203580856,0.007019318174570799
1772642699921973200,1.26497314453125,-0.0007476005703210831,0.0015816428931429982,-0.0014426007401198149
1772642699932015000,1.27501513671875,0.0004028849652968347,0.0010748433414846659,-0.00882594846189022
1772642699942056200,1.28505615234375,-0.0006503253825940192,0.0013689512852579355,-0.007609562948346138
1772642699952098000,1.29509814453125,-0.002876195590943098,-0.0002870021853595972,-0.008732086047530174
1772642699962139100,1.30513916015625,-0.0040403068996965885,0.0012111346004530787,-0.008590802550315857
1772642699972181000,1.315180908203125,-0.006298933643847704,-0.00041712209349498153,-0.010572993196547031
1772642699982222000,1.32522216796875,-0.008693378418684006,-0.0019589741714298725,-0.007580119650810957
1772642699992264000,1.335263916015625,-0.008452627807855606,-0.0004361786413937807,-0.01332508958876133
1772642700002305000,1.345304931640625,-0.008129250258207321,-0.000912788906134665,-0.013230693526566029
1772642700012347100,1.35534716796875,-0.006508450023829937,-0.00022010074462741613,-0.011654901318252087
1772642700022388200,1.36538818359375,-0.005646455101668835,-0.000710750580765307,-0.010156195610761642
1772642700032430000,1.37543017578125,-0.003700483590364456,0.00039339601062238216,-0.007254681084305048
1772642700042471200,1.38547119140625,-0.004878918640315533,0.0017807390540838242,-0.011156348511576653
1772642700052513000,1.395512939453125,-0.00573432631790638,0.002598862163722515,-0.01420939713716507
1772642700062554000,1.40555419921875,-0.008402756415307522,0.002718165051192045,-0.01663048565387726
1772642700072596000,1.415595947265625,-0.0074200499802827835,0.002009231597185135,-0.015998516231775284
1772642700082637000,1.425636962890625,-0.00856476929038763,0.0037699444219470024,-0.01299821212887764
1772642700092679000,1.435678955078125,-0.009160518646240234,0.002760073868557811,-0.007588266860693693
1772642700102720000,1.445719970703125,-0.009461672976613045,0.0028730034828186035,-0.005879433825612068
1772642700112762000,1.45576220703125,-0.007208372000604868,0.0028293272480368614,-0.005091937258839607
1772642700122803200,1.46580322265625,-0.006093822419643402,0.0003759771934710443,0.00021455157548189163
1772642700132844300,1.47584423828125,-0.004786210600286722,-0.00007303175516426563,-0.0023237073328346014
1772642700142886100,1.48588623046875,-0.00293370196595788,-0.0011429877486079931,0.001648260047659278
1772642700152927200,1.49592724609375,-0.0022455411963164806,0.0010437339078634977,0.0053111715242266655
1772642700162969000,1.505968994140625,-0.0011373527813702822,0.006928263697773218,0.0028577425982803106
1772642700173010200,1.51601025390625,-0.0015064668841660023,0.010494768619537354,0.004692927002906799
1772642700183052000,1.526052001953125,-0.0025026979856193066,0.01214246079325676,0.001864645048044622
1772642700193093000,1.536093017578125,-0.002675270661711693,0.01295951846987009,0.006662063300609589
1772642700203135200,1.54613525390625,-0.0020264810882508755,0.011690414510667324,0.004366017412394285
1772642700213176300,1.55617626953125,-0.005673946347087622,0.013149826787412167,0.0023281665053218603
1772642700223218200,1.56621826171875,-0.005820227786898613,0.015442860312759876,0.002472375985234976
1772642700233259300,1.57625927734375,-0.005234865006059408,0.016231156885623932,0.0034654687624424696
1772642700243301000,1.586301025390625,-0.0065956711769104,0.017801450565457344,0.0034599932841956615
1772642700253342200,1.59634228515625,-0.005409765522927046,0.01886298693716526,0.003036284353584051
1772642700263384000,1.606384033203125,-0.004549088422209024,0.014938293024897575,0.007289628963917494
1772642700273425200,1.616425048828125,-0.007249266840517521,0.015408074483275414,0.0039785210974514484
1772642700283467000,1.626467041015625,-0.010073029436171055,0.01492354366928339,-0.0015386110171675682
1772642700293508000,1.636508056640625,-0.010383821092545986,0.012461185455322266,-0.005375693552196026
1772642700303550200,1.64655029296875,-0.011452163569629192,0.009331543929874897,-0.008100908249616623
1772642700313591300,1.65659130859375,-0.009573303163051605,0.0075837112963199615,-0.008229805156588554
1772642700323633200,1.666633056640625,-0.008738581091165543,0.007638621609658003,-0.00968815665692091
1772642700333674200,1.67667431640625,-0.00830262154340744,0.005518478807061911,-0.009457793086767197
1772642700343715000,1.686715087890625,-0.009576870128512383,0.006115506868809462,-0.009288015775382519
1772642700353757200,1.696757080078125,-0.010080739855766296,0.0029695148114115,-0.009106921032071114
1772642700363798000,1.706798095703125,-0.008266879245638847,0.002154099754989147,-0.008592275902628899
1772642700373840100,1.716840087890625,-0.00559200020506978,-0.00040812738006934524,-0.0077395313419401646
1772642700383881200,1.726881103515625,-0.005264039151370525,-0.0013992805033922195,-0.008607964031398296
1772642700393923000,1.736923095703125,-0.0012898040004074574,-0.003709572833031416,-0.00860343687236309
1772642700403964200,1.746964111328125,-0.0005345038953237236,-0.002482715528458357,-0.0062388223595917225
1772642700414006300,1.75700634765625,0.00006124516949057579,-0.003125602612271905,-0.003146626055240631
1772642700424047000,1.767047119140625,-0.0012685016263276339,-0.0027131347451359034,-0.0015045239124447107
1772642700434089200,1.777089111328125,-0.0005595682305283844,-0.004128871485590935,0.0007106935372576118
1772642700444130300,1.78713037109375,-0.0009612471330910921,-0.005246014799922705,0.0005249372916296124
1772642700454172200,1.797172119140625,-0.0006959962192922831,-0.0038092394825071096,-0.0011347446125000715
1772642700464213200,1.807213134765625,0.00029349885880947113,-0.006125716492533684,-0.001639821333810687
1772642700474255000,1.817255126953125,0.0032868918497115374,-0.007797116879373789,-0.0005852095782756805
1772642700484296200,1.827296142578125,0.0027593979611992836,-0.00786496140062809,-0.00009104539640247822
1772642700494338000,1.837338134765625,0.0031916291918605566,-0.010280182585120201,0.0004032372962683439
1772642700504379100,1.847379150390625,0.00284319999627769,-0.00967462919652462,-0.0006396539974957705
1772642700514421200,1.857421142578125,0.0008130721980705857,-0.010219245217740536,0.00009404681622982025
1772642700524462300,1.86746240234375,0.001548856496810913,-0.008050376549363136,0.0019322854932397604
1772642700534504200,1.877504150390625,0.0017619093414396048,-0.006510269828140736,0.00467480905354023
1772642700544545300,1.887545166015625,0.0011669896775856614,-0.00336848315782845,0.0018132450059056282
1772642700554586000,1.897586181640625,0.000671908026561141,-0.0028236000798642635,0.0027783745899796486
1772642700564628200,1.907628173828125,0.0023975137155503035,-0.0026062442921102047,0.003554672235623002
1772642700574669000,1.9176689453125,0.0009732551989145577,-0.0026110378094017506,0.005681472830474377
1772642700584711200,1.927711181640625,0.0005403738468885422,-0.002919803373515606,0.004160543438047171
1772642700594752000,1.937751953125,0.001025069155730307,-0.005410125013440847,0.004599698819220066
1772642700604794000,1.947794189453125,0.0015858307015150785,-0.005172988399863243,0.0035012890584766865
1772642700614835000,1.9578349609375,0.003089451463893056,-0.0032254185061901808,0.0032488214783370495
1772642700624877300,1.967877197265625,0.00452851876616478,-0.0035007924307137728,0.0007149531738832593
1772642700634918100,1.977918212890625,0.002789474790915847,-0.0007667915779165924,-0.0010579132940620184
1772642700644960300,1.987960205078125,0.0034243855625391006,-0.00007826287765055895,-0.0015821626875549555
1772642700655001000,1.9980009765625,0.002996948082000017,0.0009667615522630513,-0.0035292000975459814
1772642700665043200,2.008043212890625,0.0016604019328951836,0.0007017952739261091,-0.004101761616766453
1772642700675084000,2.018083984375,-0.0018144907662644982,0.0007414763676933944,-0.004628002643585205
1772642700685126100,2.028126220703125,-0.002302594017237425,0.0008651899988763034,-0.0020788407418876886
1772642700695167000,2.0381669921875,-0.0017161660362035036,0.002241777954623103,-0.0005358050111681223
1772642700705209300,2.048209228515625,-0.002851511351764202,0.003316855989396572,0.0009509186493232846
1772642700715250200,2.058250244140625,-0.0018661419162526727,0.0048236725851893425,0.0060998741537332535
1772642700725292300,2.068292236328125,-0.004394166171550751,0.007025828119367361,0.006682294420897961
1772642700735333000,2.0783330078125,-0.003491887589916587,0.008581913076341152,0.0053818728774785995
1772642700745375500,2.08837548828125,-0.0029748938977718353,0.008162412792444229,0.0055218227207660675
1772642700755416300,2.098416259765625,-0.0018174839206039906,0.0064249662682414055,0.005111163482069969
1772642700765458400,2.10845849609375,-0.001706547918729484,0.005898354109376669,0.009420426562428474
1772642700775499300,2.118499267578125,0.0005110662314109504,0.0038767484948039055,0.00837167352437973
1772642700785540400,2.128540283203125,0.0014412159798666835,0.0031338243279606104,0.012344298884272575
1772642700795582200,2.138582275390625,-0.00004216475645080209,0.003921587485820055,0.010119494050741196
1772642700805623300,2.148623291015625,-0.0006049732910469174,0.005053767003118992,0.009218566119670868
1772642700815665200,2.1586650390625,-0.0003929856466129422,0.0053552365861833096,0.006647018250077963
1772642700825706200,2.168706298828125,0.0025979226920753717,0.007019928656518459,0.008419620804488659
1772642700835748000,2.178748046875,0.001625868957489729,0.008235128596425056,0.009461982175707817
1772642700845789200,2.1887890625,0.005084122996777296,0.00854451209306717,0.011370642110705376
1772642700855831300,2.198831298828125,0.004782387055456638,0.011583445593714714,0.015492682345211506
1772642700865872400,2.208872314453125,0.004386498127132654,0.011496852152049541,0.019489837810397148
1772642700875914200,2.218914306640625,0.00410633347928524,0.01554672047495842,0.020734865218400955
1772642700885955300,2.228955322265625,0.004540044814348221,0.01577511429786682,0.019810751080513
1772642700895997200,2.2389970703125,0.0019511858699843287,0.016567405313253403,0.01793268881738186
1772642700906038300,2.249038330078125,0.0016960061620920897,0.016507472842931747,0.015876581892371178
1772642700916080000,2.259080078125,0.0034025597851723433,0.014479209668934345,0.016566339880228043
1772642700926121200,2.269121337890625,0.00023986404994502664,0.012956094928085804,0.016009608283638954
1772642700936163000,2.2791630859375,-0.0005433715996332467,0.01052835676819086,0.01579389162361622
1772642700946204400,2.289204345703125,-0.003763783723115921,0.008954058401286602,0.013589062727987766
1772642700956246300,2.299246337890625,-0.0012838479597121477,0.005298602860420942,0.012396233156323433
1772642700966287400,2.309287353515625,-0.0030915229581296444,0.0025391019880771637,0.009530553594231606
1772642700976329200,2.3193291015625,-0.003179939929395914,-0.0006798607646487653,0.00877874344587326
1772642700986370300,2.329370361328125,-0.003452752251178026,-0.0025478051975369453,0.008233725093305111
1772642700996412200,2.339412109375,-0.0036564841866493225,-0.004169403575360775,0.005678954534232616
1772642701006453200,2.349453369140625,-0.004265623167157173,-0.003801035927608609,0.0023370860144495964
1772642701016494300,2.359494384765625,-0.004008361604064703,-0.0019645201973617077,0.0024651840794831514
1772642701026536200,2.3695361328125,-0.002020683139562607,-0.001177026890218258,0.00285227014683187
1772642701036577300,2.379577392578125,-0.0003484843182377517,-0.0007136370404623449,0.00794636458158493
1772642701046619400,2.389619384765625,-0.0009676518966443837,-0.000432186818215996,0.01311437040567398
1772642701056660500,2.399660400390625,0.001173263182863593,-0.001491059549152851,0.01738421618938446
1772642701066702300,2.409702392578125,0.0033129164949059486,0.0021730121225118637,0.018801670521497726
1772642701076743400,2.419743408203125,0.005325733684003353,0.0007386336801573634,0.020536985248327255
1772642701086785300,2.429785400390625,0.0064744469709694386,0.0002924561267718673,0.022915998473763466
1772642701096826400,2.439826416015625,0.010364792309701443,0.0012248288840055466,0.024482470005750656
1772642701106868200,2.4498681640625,0.008985511027276516,0.002772602252662182,0.024342650547623634
1772642701116909300,2.459909423828125,0.010820961557328701,0.0036453199572861195,0.025505652651190758
1772642701126951200,2.469951171875,0.00823738519102335,0.005312567576766014,0.02525944635272026
1772642701136992300,2.4799921875,0.007040827069431543,0.006014044396579266,0.021214904263615608
1772642701147034400,2.490034423828125,0.007233164273202419,0.005297380033880472,0.017786074429750443
1772642701157075500,2.500075439453125,0.006995077710598707,0.00442865677177906,0.015676584094762802
1772642701167117300,2.510117431640625,0.005059320013970137,0.004969563335180283,0.018086232244968414
1772642701177158400,2.520158447265625,0.002045953646302223,0.006356804631650448,0.02124420739710331
1772642701187200300,2.5302001953125,0.0006605691742151976,0.0076319556683301926,0.01882976107299328
1772642701197241300,2.540241455078125,0.000495186890475452,0.008979516103863716,0.016334911808371544
1772642701207283200,2.550283203125,-0.0006098849698901176,0.009366384707391262,0.011315274983644485
1772642701217324300,2.56032421875,0.0002393970498815179,0.011256695725023746,0.009979166090488434
1772642701227366100,2.5703662109375,0.0008369322749786079,0.009608400985598564,0.006176291964948177
1772642701237407200,2.5804072265625,-0.00020596157992258668,0.0075148893520236015,0.0014262779150158167
1772642701247448300,2.5904482421875,0.000006849819328635931,0.0031720083206892014,-0.0013383657205849886
1772642701257490400,2.600490478515625,-0.0032198361586779356,0.000963448837865144,-0.004057985730469227
1772642701267531500,2.610531494140625,-0.004081375896930695,-0.0017718651797622442,-0.009995345026254654
1772642701277573400,2.620573486328125,-0.003928776830434799,-0.00397882703691721,-0.010942098684608936
1772642701287614500,2.630614501953125,-0.004418209195137024,-0.005996444262564182,-0.008417430333793163
1772642701297656300,2.64065625,-0.005897062830626965,-0.005349828861653805,-0.009126896969974041
1772642701307697400,2.650697509765625,-0.004696077201515436,-0.005874623078852892,-0.00970146432518959
1772642701317739300,2.6607392578125,-0.004530162550508976,-0.0026591219939291477,-0.006066781003028154
1772642701327780400,2.6707802734375,-0.006093586329370737,-0.0034896566066890955,-0.005843609105795622
1772642701337822200,2.680822265625,-0.004185431636869907,-0.0046609146520495415,-0.00503667164593935
1772642701347863300,2.69086328125,-0.0031600710935890675,-0.00759822316467762,-0.002614928176626563
1772642701357905400,2.700905517578125,-0.001431146520189941,-0.010313582606613636,-0.0010476578027009964
1772642701367946500,2.710946533203125,-0.0007619514362886548,-0.00944698415696621,0.0009095052955672145
1772642701377988400,2.72098828125,0.004154509864747524,-0.011069382540881634,0.002311659511178732
1772642701388029400,2.731029541015625,0.0033112927339971066,-0.011839413084089756,0.005654721055179834
1772642701398071300,2.7410712890625,0.0026393772568553686,-0.01159679889678955,0.005693603307008743
1772642701408112400,2.7511123046875,0.0032400377094745636,-0.011133570224046707,0.0024525346234440804
1772642701418154200,2.761154296875,0.004958575591444969,-0.01000439003109932,-0.0013041202910244465
1772642701428195300,2.7711953125,0.004634079989045858,-0.0102621428668499,-0.0019049446564167738
1772642701438237200,2.7812373046875,0.0048601822927594185,-0.005843158811330795,-0.0029667469207197428
1772642701448278300,2.7912783203125,0.002129752654582262,-0.0006743735284544528,-0.002921586623415351
1772642701458320400,2.8013203125,0.0010266713798046112,0.00506580388173461,-0.002339686034247279
1772642701468361500,2.811361572265625,-0.000763125775847584,0.008905535563826561,-0.0018704533576965332
1772642701478402300,2.82140234375,-0.001571927685290575,0.014729868620634079,0.00014769029803574085
1772642701488444400,2.8314443359375,-0.002440917305648327,0.015971435233950615,0.0019935271702706814
1772642701498485200,2.8414853515625,-0.002071680501103401,0.02154485695064068,0.004822084680199623
1772642701508527400,2.85152734375,-0.0012783115962520242,0.02349838614463806,0.0067367590963840485
1772642701518568200,2.861568115234375,-0.0020152083598077297,0.027006834745407104,0.011563471518456936
1772642701528610300,2.8716103515625,-0.0013277417747303843,0.029009003192186356,0.014923453330993652
1772642701538651100,2.881651123046875,-0.0019916677847504616,0.030796516686677933,0.0174340158700943
1772642701548693500,2.891693603515625,-0.002374761737883091,0.03202402591705322,0.017576100304722786
1772642701558734300,2.901734375,-0.0038674636743962765,0.03289221599698067,0.022825190797448158
1772642701568776400,2.9117763671875,-0.0063220420852303505,0.03127620369195938,0.022262459620833397
1772642701578817300,2.9218173828125,-0.0052413311786949635,0.030052214860916138,0.018654407933354378
1772642701588859400,2.931859375,-0.003082009730860591,0.026067117229104042,0.015440241433680058
1772642701598900200,2.941900146484375,-0.0018092850223183632,0.02100524678826332,0.010736033320426941
1772642701608942300,2.9519423828125,-0.002264938782900572,0.01679382659494877,0.00753104779869318
1772642701618983200,2.961983154296875,-0.004069496877491474,0.011598264798521996,0.004974146373569965
1772642701629025300,2.972025390625,-0.0036758994683623314,0.009458460845053196,0.004216866102069616
1772642701639066000,2.982066162109375,-0.007008046843111515,0.004525220952928066,-0.0007142429240047932
1772642701649108500,2.9921083984375,-0.00672796880826354,0.0018079490400850773,-0.0031936399172991514
1772642701659149300,3.0021494140625,-0.006483490578830242,0.002317944308742881,-0.004834413528442383
1772642701669191400,3.01219140625,-0.005155477672815323,0.0007429472170770168,-0.004541071131825447
1772642701679232300,3.022232177734375,-0.005016993265599012,-0.002066155197098851,-0.005989830940961838
1772642701689274400,3.0322744140625,-0.004663543310016394,-0.004643285647034645,-0.004236525855958462
1772642701699315200,3.042315185546875,-0.005928544793277979,-0.007155445404350758,-0.0022708463948220015
1772642701709357300,3.052357421875,-0.004564163275063038,-0.008448252454400063,-0.004567691590636969
1772642701719398100,3.062398193359375,-0.0015297576319426298,-0.011762290261685848,-0.00820663571357727
1772642701729438700,3.072438720703125,0.0015999891329556704,-0.014140759594738483,-0.006273978855460882
1772642701739480800,3.082480712890625,0.0022255657240748405,-0.015721609815955162,-0.008587466552853584
1772642701749521700,3.092521728515625,0.0041081542149186134,-0.017675837501883507,-0.006658539641648531
1772642701759564000,3.10256396484375,0.0030495477840304375,-0.017657462507486343,-0.0035322546027600765
1772642701769604900,3.11260498046875,0.0033279787749052048,-0.015338975004851818,-0.008471494540572166
1772642701779647000,3.12264697265625,0.0023556589148938656,-0.012971957214176655,-0.010459544137120247
1772642701789687800,3.132687744140625,0.0014185403706505895,-0.013516031205654144,-0.013463711366057396
1772642701799730000,3.14272998046875,0.0013535593170672655,-0.012725338339805603,-0.012472216039896011
1772642701809770800,3.152770751953125,0.003782611107453704,-0.012196921743452549,-0.008656580001115799
1772642701819812900,3.162812744140625,0.0025551600847393274,-0.008671162649989128,-0.007219539023935795
1772642701829853700,3.172853759765625,0.0059763179160654545,-0.006345045752823353,-0.007439775392413139
1772642701839895800,3.182895751953125,0.004954995587468147,-0.002940193982794881,-0.007898638024926186
1772642701849936600,3.1929365234375,0.004689150955528021,-0.0026867729611694813,-0.010903756134212017
1772642701859979000,3.20297900390625,0.002741847652941942,-0.000603648426476866,-0.011869950219988823
1772642701870019800,3.213019775390625,0.0052278777584433556,-0.0014726938679814339,-0.006778789684176445
1772642701880062000,3.22306201171875,0.00465183611959219,-0.0036237293388694525,-0.00011875596828758717
1772642701890102800,3.233102783203125,0.004640873521566391,-0.004212445113807917,0.0022918072063475847
1772642701900145000,3.243144775390625,0.005364720709621906,-0.004404725506901741,0.0027488055638968945
1772642701910185700,3.253185791015625,0.006120054516941309,-0.003177428850904107,0.0036412375047802925
1772642701920227800,3.263227783203125,0.008429281413555145,-0.0041303085163235664,0.0021738356444984674
1772642701930268700,3.2732685546875,0.008196515962481499,-0.0067648268304765224,0.003502203617244959
1772642701940310800,3.283310791015625,0.008038590662181377,-0.009210673160851002,0.005272140726447105
1772642701950351600,3.2933515625,0.011021440848708153,-0.012554415501654148,0.0024855618830770254
1772642701960392700,3.303392822265625,0.011401473544538021,-0.01100472267717123,0.0019851538818329573
1772642701970434800,3.313434814453125,0.010890049859881401,-0.01214111503213644,0.002010424854233861
1772642701980476000,3.323475830078125,0.010740113444626331,-0.01114589162170887,0.0047204578295350075
1772642701990517800,3.333517822265625,0.011025641113519669,-0.010719343088567257,0.003385172225534916
1772642702000558800,3.343558837890625,0.00881282053887844,-0.009123576804995537,0.0019049873808398843
1772642702010600700,3.3536005859375,0.008529262617230415,-0.007473654579371214,0.0021213518921285868
1772642702020641800,3.363641845703125,0.0055300104431807995,-0.0055647012777626514,0.0038308349903672934
1772642702030683600,3.37368359375,0.005823330022394657,-0.007092286366969347,0.006201719865202904
1772642702040724700,3.383724853515625,0.007009768392890692,-0.006721574813127518,0.006276821251958609
1772642702050766600,3.3937666015625,0.007942481897771358,-0.004972995258867741,0.009653311222791672
1772642702060807700,3.4038076171875,0.00906527042388916,-0.0036041305866092443,0.007156065199524164
1772642702070849800,3.413849853515625,0.00821590144187212,-0.0058875735849142075,0.004561885725706816
1772642702080891000,3.423890869140625,0.005702143535017967,-0.009463666006922722,0.005854317918419838
1772642702090932700,3.4339326171875,0.004060452803969383,-0.012558364309370518,0.005008765961974859
1772642702100973800,3.443973876953125,0.003736878978088498,-0.013719236478209496,0.00466575101017952
1772642702111015700,3.454015625,0.002913176082074642,-0.015632882714271545,0.006587880663573742
1772642702121056800,3.464056884765625,0.0038570002652704716,-0.013903692364692688,0.007330902386456728
1772642702131098600,3.4740986328125,0.005109459161758423,-0.011150719597935677,0.007915211841464043
1772642702141139700,3.4841396484375,0.006988052744418383,-0.00548404548317194,0.006221707910299301
1772642702151181800,3.494181884765625,0.006802722811698914,-0.0015231890138238668,0.004207280930131674
1772642702161222700,3.50422265625,0.007701007183641195,-0.00006244517862796783,0.004099688958376646
1772642702171264800,3.5142646484375,0.006862159352749586,-0.00014046544674783945,0.0021922129672020674
1772642702181305900,3.524305908203125,0.007332473527640104,0.0005519564729183912,0.005120624788105488
1772642702191347700,3.53434765625,0.007918791845440865,0.0008053660276345909,0.006131139118224382
1772642702201388800,3.544388916015625,0.009441054426133633,0.0020205664914101362,0.00817484874278307
1772642702211431000,3.554430908203125,0.009713898412883282,0.002661649603396654,0.008069531060755253
1772642702221471700,3.5644716796875,0.00731199374422431,0.0023332820273935795,0.009982213377952576
1772642702231513900,3.574513916015625,0.006006579380482435,0.003466283204033971,0.008337024599313736
1772642702241554700,3.5845546875,0.006276091560721397,0.004022617358714342,0.005347892642021179
1772642702251595800,3.594595703125,0.008609423413872719,0.002163259545341134,0.006503583397716284
1772642702261637600,3.6046376953125,0.007907147519290447,0.002034362405538559,0.008939843624830246
1772642702271679000,3.614678955078125,0.008262060582637787,-0.0001651907223276794,0.010354521684348583
1772642702281720800,3.624720947265625,0.006606107112020254,-0.0009598779142834246,0.010899936780333519
1772642702291762000,3.634761962890625,0.009650378488004208,-0.0026918970979750156,0.009479797445237637
1772642702301803800,3.6448037109375,0.009964099153876305,-0.006138560362160206,0.01097036898136139
1772642702311844900,3.654844970703125,0.012197339907288551,-0.010069167241454124,0.013675615191459656
1772642702321886700,3.66488671875,0.012880973517894745,-0.012342974543571472,0.014259913004934788
1772642702331927800,3.674927734375,0.01349538192152977,-0.01319256890565157,0.011538039892911911
1772642702341969700,3.6849697265625,0.014196858741343021,-0.011658853851258755,0.008256226778030396
1772642702352010800,3.6950107421875,0.013928425498306751,-0.009643538855016232,0.007232367992401123
1772642702362052900,3.705052978515625,0.010350202210247517,-0.009041664190590382,0.003222179599106312
1772642702372094000,3.715093994140625,0.00775419594720006,-0.01077176257967949,0.0029695758130401373
1772642702382135800,3.7251357421875,0.007360314019024372,-0.012795764952898026,0.004328587092459202
1772642702392177000,3.735177001953125,0.004232287872582674,-0.01245146058499813,0.00740694859996438
1772642702402218800,3.74521875,0.0008375566685572267,-0.010812817141413689,0.011233378201723099
1772642702412259800,3.755259765625,-0.0007871011039242148,-0.006635728292167187,0.010419744998216629
1772642702422301700,3.7653017578125,-0.0006510135717689991,-0.005553686060011387,0.010628004558384418
1772642702432342800,3.7753427734375,-0.0009217144688591361,-0.0028157751075923443,0.006005987524986267
1772642702442384600,3.785384521484375,-0.0015267847338691354,-0.0003201268846169114,0.005975893698632717
1772642702452425700,3.79542578125,0.0005532747018150985,0.0022689385805279016,0.006828762590885162
1772642702462467800,3.8054677734375,0.0026097677182406187,0.003269221866503358,0.007335828151553869
1772642702472509000,3.815509033203125,0.002563031855970621,0.0033361269161105156,0.006550870835781097
1772642702482550800,3.82555078125,0.004091419745236635,-0.0008421064121648669,0.007785778492689133
1772642702492591900,3.835591796875,0.00727056572213769,-0.006271818652749062,0.012893845327198505
1772642702502633700,3.8456337890625,0.00689798966050148,-0.010817568749189377,0.019959477707743645
1772642702512674800,3.8556748046875,0.005678249057382345,-0.01105522457510233,0.022828642278909683
1772642702522716700,3.865716552734375,0.007351779844611883,-0.010142559185624123,0.020969223231077194
1772642702532757800,3.8757578125,0.009897285141050816,-0.009821123443543911,0.015660200268030167
1772642702542799600,3.885799560546875,0.013101067394018173,-0.010320732370018959,0.011727510020136833
1772642702552840700,3.8958408203125,0.01557127945125103,-0.013175168074667454,0.012441625818610191
1772642702562881800,3.9058818359375,0.015047702006995678,-0.012091528624296188,0.01219288632273674
1772642702572924000,3.915923828125,0.015827815979719162,-0.01262607704848051,0.008663800545036793
1772642702582965000,3.925965087890625,0.01525070983916521,-0.010234558023512363,0.006151906680315733
1772642702593006800,3.9360068359375,0.01601450890302658,-0.010614205151796341,0.0033271117135882378
1772642702603048000,3.9460478515625,0.01763504184782505,-0.010600356385111809,0.003244553692638874
1772642702613089800,3.95608984375,0.015873951837420464,-0.012050721794366837,0.004426720552146435
1772642702623131000,3.966130859375,0.012764443643391132,-0.013539695180952549,0.006943142041563988
1772642702633172700,3.9761728515625,0.011241207830607891,-0.012018593959510326,0.005591866094619036
1772642702643213800,3.9862138671875,0.009484853595495224,-0.009206295944750309,0.002862126100808382
1772642702653255700,3.996255615234375,0.008123885840177536,-0.009667725302278996,0.002652522874996066
1772642702663296800,4.006296875,0.004618367180228233,-0.010792111977934837,-0.003434397978708148
1772642702673339000,4.0163388671875,0.0073998779989778996,-0.009378502145409584,-0.0033927138429135084
1772642702683380000,4.0263798828125,0.004817410837858915,-0.011019008234143257,0.0013381254393607378
1772642702693421800,4.036421875,0.006062747910618782,-0.013126743026077747,0.0005046859150752425
1772642702703463000,4.046462890625,0.007079276721924543,-0.016350233927369118,0.005582002457231283
1772642702713504800,4.0565048828125,0.004646937362849712,-0.01617494598031044,0.006483081728219986
1772642702723545900,4.0665458984375,0.008528494276106358,-0.01517785806208849,0.004162403754889965
1772642702733588700,4.076588623046875,0.006631289608776569,-0.012041928246617317,0.0052913217805325985
1772642702743629600,4.086629638671875,0.005694389808923006,-0.005838361568748951,0.004360546823590994
1772642702753671700,4.096671630859375,0.0066571226343512535,0.0011907857842743397,0.0011943147983402014
1772642702763712800,4.106712646484375,0.006849935278296471,0.004850768018513918,-0.0011106510646641254
1772642702773754600,4.116754638671875,0.010087823495268822,0.009092605672776699,0.004065877757966518
1772642702783795700,4.126795654296875,0.011168002150952816,0.012221020646393299,0.0102095240727067
1772642702793837800,4.136837890625,0.01095142588019371,0.014155695214867592,0.01226867362856865
1772642702803879000,4.14687890625,0.011345839127898216,0.013550891540944576,0.014860994182527065
1772642702813920800,4.156920654296875,0.012502921745181084,0.013022939674556255,0.014112903736531734
1772642702823961900,4.1669619140625,0.013117845170199871,0.0137787451967597,0.014471897855401039
1772642702834003700,4.177003662109375,0.012286430224776268,0.009867029264569283,0.014658300206065178
1772642702844044800,4.187044921875,0.00877558533102274,0.0072219776920974255,0.011619366705417633
1772642702854086700,4.197086669921875,0.008420679718255997,0.0033717495389282703,0.011650276370346546
1772642702864127700,4.207127685546875,0.007848366163671017,-0.0009984978241845965,0.00980550516396761
1772642702874168600,4.21716845703125,0.005752092693001032,-0.006180094089359045,0.009188330732285976
1772642702884210700,4.227210693359375,0.005144359543919563,-0.01077271532267332,0.009231207892298698
1772642702894251500,4.23725146484375,0.00461254408583045,-0.014041665941476822,0.010880994610488415
1772642702904294000,4.2472939453125,0.0038716522976756096,-0.01396896131336689,0.011193117126822472
1772642702914334700,4.257334716796875,0.002399975899606943,-0.01688907854259014,0.01254525687545538
1772642702924376800,4.267376953125,0.003513976000249386,-0.01496121659874916,0.011251226998865604
1772642702934417700,4.277417724609375,0.004945588298141956,-0.014178390614688396,0.00932757556438446
1772642702944459800,4.287459716796875,0.006230297032743692,-0.014338713139295578,0.005576780065894127
1772642702954500600,4.29750048828125,0.009418553672730923,-0.015747450292110443,0.006613847799599171
1772642702964542700,4.307542724609375,0.010313642211258411,-0.017643887549638748,0.0053128935396671295
1772642702974583600,4.31758349609375,0.008749685250222683,-0.02022385410964489,0.001314421184360981
1772642702984625700,4.327625732421875,0.008184562437236309,-0.01895192824304104,0.0013359928270801902
1772642702994666500,4.33766650390625,0.0053771198727190495,-0.017943542450666428,-0.00604521669447422
1772642703004708900,4.347708984375,0.004091612063348293,-0.012229464016854763,-0.008859379217028618
1772642703014749700,4.357749755859375,0.0016726446337997913,-0.01056840643286705,-0.011216687969863415
1772642703024791800,4.367791748046875,-0.00037665775744244456,-0.009921258315443993,-0.01218314841389656
1772642703034832600,4.37783251953125,-0.003373066894710064,-0.004886333830654621,-0.01168379932641983
1772642703044874800,4.387874755859375,-0.003106484655290842,-0.0029928262811154127,-0.01062785554677248
1772642703054915600,4.39791552734375,-0.00515174912288785,-0.00029515294590964913,-0.010647965595126152
1772642703064957700,4.407957763671875,-0.005400222260504961,0.0009927516803145409,-0.008973103947937489
1772642703074998500,4.41799853515625,-0.006214480847120285,0.005758272018283606,-0.0063883643597364426
1772642703085040600,4.42804052734375,-0.006548174656927586,0.011224410496652126,-0.004545989446341991
1772642703095081500,4.43808154296875,-0.008482422679662704,0.013080080971121788,-0.0043876939453184605
1772642703105123800,4.448123779296875,-0.008925839327275753,0.01652461290359497,-0.002928015310317278
1772642703115164700,4.45816455078125,-0.011082429438829422,0.018185270950198174,-0.002896563382819295
1772642703125206800,4.468206787109375,-0.007766528055071831,0.01834852434694767,-0.0030278570484369993
1772642703135247600,4.47824755859375,-0.008867422118782997,0.018250511959195137,-0.004780227318406105
1772642703145289700,4.488289794921875,-0.005305977072566748,0.01729683391749859,-0.003701114561408758
1772642703155330600,4.49833056640625,-0.004721326287835836,0.016210045665502548,-0.0015639353077858686
1772642703165372700,4.50837255859375,-0.002018217695876956,0.017888104543089867,-0.0021362488623708487
1772642703175413500,4.51841357421875,0.0004177070804871619,0.013842934742569923,0.001951056532561779
1772642703185454600,4.52845458984375,0.0010464794468134642,0.013272485695779324,0.005895996931940317
1772642703195496700,4.53849658203125,0.0024717417545616627,0.014313936233520508,0.0005193332908675075
1772642703205537800,4.548537841796875,0.002883466426283121,0.012695533223450184,0.0013409184757620096
1772642703215579600,4.55857958984375,0.004531461279839277,0.011296098120510578,0.0013909901026636362
1772642703225620700,4.568620849609375,0.003996965009719133,0.011980796232819557,0.0005640786839649081
1772642703235662600,4.57866259765625,0.003909340128302574,0.012134606018662453,-0.003498329548165202
1772642703245703700,4.58870361328125,0.0009955757996067405,0.010785449296236038,-0.005591840483248234
1772642703255745500,4.59874560546875,-0.001888565020635724,0.011115794070065022,-0.008003056049346924
1772642703265786600,4.60878662109375,-0.002710683038458228,0.012165346182882786,-0.009376447647809982
1772642703275828500,4.618828369140625,-0.003315443405881524,0.013532504439353943,-0.00639517605304718
1772642703285869600,4.62886962890625,-0.00303661054931581,0.012145264074206352,-0.003046250669285655
1772642703295911700,4.63891162109375,-0.005704906303435564,0.013357853516936302,-0.004508460871875286
1772642703305952800,4.648952880859375,-0.007995757274329662,0.013843880034983158,-0.004066109657287598
1772642703315994600,4.65899462890625,-0.0069659072905778885,0.01466665044426918,-0.008748459629714489
1772642703326035700,4.66903564453125,-0.007950210943818092,0.013559041544795036,-0.010058734565973282
1772642703336077600,4.67907763671875,-0.007955767214298248,0.007561373524367809,-0.008249807171523571
1772642703346118700,4.68911865234375,-0.00952916219830513,0.005524055566638708,-0.00947938859462738
1772642703356160800,4.699160888671875,-0.006658386439085007,0.005117140710353851,-0.010134502314031124
1772642703366201600,4.70920166015625,-0.006972373463213444,0.0013682085555046797,-0.012834947556257248
1772642703376243700,4.71924365234375,-0.008253131061792374,0.0028048264794051647,-0.014701155945658684
1772642703386284500,4.729284423828125,-0.005904755089432001,0.0030961763113737106,-0.017901742830872536
1772642703396326700,4.73932666015625,-0.010292361490428448,0.006201144307851791,-0.020534159615635872
1772642703406367700,4.74936767578125,-0.007094704546034336,0.008123413659632206,-0.02401278167963028
1772642703416409900,4.759409912109375,-0.005124377086758614,0.008490744978189468,-0.02969374693930149
1772642703426450700,4.76945068359375,-0.00481624947860837,0.010198630392551422,-0.029776835814118385
1772642703436492800,4.779492919921875,-0.002328656380996108,0.007743372116237879,-0.027814190834760666
1772642703446533600,4.78953369140625,-0.002857293700799346,0.004374206997454166,-0.02415713667869568
1772642703456575700,4.79957568359375,-0.0020798235200345516,-0.0023684801999479532,-0.01755940541625023
1772642703466616600,4.809616455078125,-0.0020433382596820593,-0.0059712049551308155,-0.012414444237947464
1772642703476658700,4.81965869140625,-0.002317353617399931,-0.008215249516069889,-0.009465811774134636
1772642703486699500,4.829699462890625,-0.0007189242169260979,-0.007961982861161232,-0.00892279390245676
1772642703496742000,4.839741943359375,0.0008342194487340748,-0.007059005089104176,-0.010224669240415096
1772642703506782700,4.84978271484375,0.00032688729697838426,-0.010286223143339157,-0.008155127055943012
1772642703516824800,4.859824951171875,-0.0005171626107767224,-0.010477609932422638,-0.004961483180522919
1772642703526865700,4.86986572265625,-0.002997364616021514,-0.012679778039455414,-0.004516468849033117
1772642703536907800,4.87990771484375,-0.005804520566016436,-0.012035488151013851,-0.006128319073468447
1772642703546948600,4.889948486328125,-0.006919053848832846,-0.010414156131446362,-0.007830878719687462
1772642703556990700,4.89999072265625,-0.010927909053862095,-0.009331048466265202,-0.010614946484565735
1772642703567031600,4.910031494140625,-0.007252747658640146,-0.0031461233738809824,-0.01311086118221283
1772642703577072600,4.92007275390625,-0.009043327532708645,-0.0018830469343811274,-0.009887516498565674
1772642703587114500,4.930114501953125,-0.00775009673088789,-0.00028222083346918225,-0.00703553669154644
1772642703597155600,4.940155517578125,-0.008493440225720406,0.002797200810164213,-0.00423707440495491
1772642703607197700,4.95019775390625,-0.009782410226762295,0.006318698637187481,-0.00489833764731884
1772642703617238800,4.96023876953125,-0.00945564080029726,0.01289963535964489,-0.009100539609789848
1772642703627280600,4.97028076171875,-0.012565413489937782,0.016764149069786072,-0.01034396979957819
1772642703637321700,4.98032177734375,-0.009206641465425491,0.02113773673772812,-0.013829540461301804
1772642703647363600,4.990363525390625,-0.008226332254707813,0.026218248531222343,-0.014784550294280052
1772642703657404700,5.00040478515625,-0.007577387150377035,0.028883449733257294,-0.010436780750751495
1772642703667446500,5.010446533203125,-0.008416548371315002,0.03680235892534256,-0.004125622101128101
1772642703677487600,5.020487548828125,-0.008085283450782299,0.038254521787166595,0.00037511461414396763
1772642703687529500,5.030529541015625,-0.009434706531465054,0.040774937719106674,0.0024454558733850718
1772642703697570600,5.040570556640625,-0.009815550409257412,0.042349301278591156,0.002059173071756959
1772642703707612700,5.05061279296875,-0.01115671917796135,0.04659491032361984,0.002995007671415806
1772642703717653800,5.06065380859375,-0.0093675022944808,0.04544016718864441,0.0031765075400471687
1772642703727695600,5.070695556640625,-0.009263638406991959,0.04049760475754738,0.005570422857999802
1772642703737736400,5.080736328125,-0.01107774768024683,0.03633059561252594,0.010321343317627907
1772642703747778300,5.0907783203125,-0.01158880814909935,0.028307290747761726,0.01088220439851284
1772642703757819400,5.1008193359375,-0.01120977196842432,0.022994516417384148,0.00735088437795639
1772642703767861200,5.110861328125,-0.010220407508313656,0.015484935604035854,0.004722876474261284
1772642703777902300,5.12090234375,-0.010324833914637566,0.01351387333124876,0.0014373310841619968
1772642703787944200,5.130944091796875,-0.009588204324245453,0.007668501231819391,-0.0020948194433003664
1772642703797985300,5.1409853515625,-0.007840475998818874,0.0026167472824454308,-0.002703756093978882
1772642703808027400,5.15102734375,-0.006559762172400951,-0.0021439194679260254,-0.0011559270787984133
1772642703818068500,5.161068359375,-0.003940605092793703,-0.00477070827037096,-0.0010097292251884937
1772642703828110300,5.1711103515625,-0.003308637300506234,-0.001452409545890987,-0.00434400700032711
1772642703838151400,5.1811513671875,-0.0037118711043149233,-0.0027731277514249086,-0.009057275019586086
1772642703848193300,5.191193359375,-0.002800270915031433,-0.005674375221133232,-0.01019258052110672
1772642703858234400,5.201234375,-0.0012649898417294025,-0.006520518567413092,-0.013060810044407845
1772642703868276500,5.2112763671875,-0.0018727232236415148,-0.009309113956987858,-0.00948738120496273
1772642703878317300,5.2213173828125,-0.0007173503399826586,-0.010801113210618496,-0.004035341087728739
1772642703888359400,5.231359375,-0.002679034834727645,-0.010663693770766258,-0.004803396761417389
1772642703898400500,5.241400390625,-0.003253435017541051,-0.01178978756070137,-0.004896744154393673
1772642703908442600,5.251442626953125,-0.0036960525903850794,-0.011240377090871334,-0.00819400418549776
1772642703918483500,5.2614833984375,-0.004956918768584728,-0.011939418502151966,-0.012770137749612331
1772642703928525600,5.271525634765625,-0.0030261266510933638,-0.013296832330524921,-0.01487030740827322
1772642703938566400,5.28156640625,-0.00366548215970397,-0.011261941865086555,-0.013378635048866272
1772642703948608500,5.2916083984375,-0.0048607089556753635,-0.010194546543061733,-0.010824397206306458
1772642703958649300,5.3016494140625,-0.006895327474921942,-0.009039764292538166,-0.012243488803505898
1772642703968691500,5.31169140625,-0.0067137000150978565,-0.005494830198585987,-0.012269055470824242
1772642703986263600,5.329263671875,-0.007094692438840866,0.0005561423022300005,-0.012241218239068985
1772642703996304600,5.3393046875,-0.008011618629097939,0.0054395804181694984,-0.011300323531031609
1772642704006346500,5.349346435546875,-0.006208968348801136,0.008609384298324585,-0.012228031642735004
1772642704016387600,5.3593876953125,-0.00552373705431819,0.012823836877942085,-0.01021468173712492
1772642704026429400,5.369429443359375,-0.00509048392996192,0.013089995831251144,-0.0072549739852547646
1772642704036470500,5.379470458984375,-0.003538127290084958,0.01441678311675787,-0.0028418495785444975
1772642704046512400,5.389512451171875,-0.0017255796119570732,0.011995969340205193,-0.00481924694031477
1772642704056553500,5.399553466796875,-0.0014795034658163786,0.01153311226516962,-0.0035904638934880495
1772642704066595300,5.40959521484375,-0.002842795103788376,0.007369569037109613,-0.004967466928064823
1772642704076636400,5.419636474609375,-0.004757341463118792,0.006240388844162226,-0.004848157055675983
1772642704086678500,5.429678466796875,-0.006087121088057756,0.0045558251440525055,-0.007458867970854044
1772642704096719600,5.4397197265625,-0.006713496521115303,0.005883943755179644,-0.007248477544635534
1772642704106761500,5.449761474609375,-0.006926201283931732,0.00597482779994607,-0.005423784255981445
1772642704116802600,5.459802490234375,-0.011090319603681564,0.005311434622853994,-0.006891186349093914
1772642704126844400,5.469844482421875,-0.008802738972008228,0.005268876440823078,-0.010348902083933353
1772642704136885500,5.479885498046875,-0.009161200374364853,0.0020025093108415604,-0.010017604567110538
1772642704146927400,5.48992724609375,-0.007494464050978422,0.0006338497041724622,-0.00825607031583786
1772642704156968400,5.499968505859375,-0.008639623410999775,-0.0016846982762217522,-0.00742516340687871
1772642704167010600,5.510010498046875,-0.007378616835922003,-0.00022475345758721232,-0.005242969375103712
1772642704177051600,5.5200517578125,-0.008807136677205563,-0.0015728455036878586,-0.004905014298856258
1772642704187093500,5.530093505859375,-0.008530775085091591,-0.0009988818783313036,-0.0048486897721886635
1772642704197134600,5.540134521484375,-0.008864734321832657,-0.000929107132833451,-0.005112077109515667
1772642704207176400,5.550176513671875,-0.00745350681245327,-0.002976589137688279,-0.005438698455691338
1772642704217217500,5.560217529296875,-0.004693672992289066,-0.00479233218356967,-0.006579063832759857
1772642704227259400,5.57025927734375,-0.002386725042015314,-0.00464042741805315,-0.004484223667532206
1772642704237300500,5.580300537109375,-0.001237837364897132,-0.004905944690108299,0.0006860374705865979
1772642704247341300,5.59034130859375,-0.0019031381234526634,-0.004461353644728661,0.004080372862517834
1772642704257383400,5.600383544921875,-0.0002887300797738135,-0.001577416667714715,0.006491599138826132
1772642704267424300,5.61042431640625,0.0011878317454829812,-0.001367821590974927,0.008041963912546635
1772642704277466600,5.620466552734375,0.0006402857834473252,0.0006055806297808886,0.005417951382696629
1772642704287507500,5.630507568359375,0.0027000419795513153,0.00046079664025455713,0.00494801439344883
1772642704297549600,5.640549560546875,0.003930688835680485,0.0022496418096125126,0.0017812494188547134
1772642704307590400,5.65059033203125,0.004446416161954403,0.004722157493233681,0.002084021922200918
1772642704317632500,5.660632568359375,0.005913818255066872,0.0067104739136993885,-0.001332014799118042
1772642704327673300,5.67067333984375,0.0032423671800643206,0.010466297157108784,-0.002825612435117364
1772642704337715500,5.680715576171875,0.0013560502557083964,0.014368893578648567,-0.003268229542300105
1772642704347756300,5.69075634765625,0.0017142684664577246,0.018943071365356445,-0.005433935206383467
1772642704357798400,5.70079833984375,0.0009675180772319436,0.02179957926273346,-0.009094184264540672
1772642704367839200,5.710839111328125,-0.0005293702706694603,0.026171104982495308,-0.012045362964272499
1772642704377881600,5.720881591796875,-0.00025666248984634876,0.023613937199115753,-0.014565778896212578
1772642704387922400,5.73092236328125,-0.0019798933062702417,0.02222565747797489,-0.013250136747956276
1772642704397964500,5.740964599609375,-0.004648913163691759,0.020814182236790657,-0.010820268653333187
1772642704408005400,5.75100537109375,-0.006995834410190582,0.01815563254058361,-0.007218511775135994
1772642704418047500,5.761047607421875,-0.010447024367749691,0.0187015812844038,-0.004024582915008068
1772642704428088300,5.77108837890625,-0.011568110436201096,0.01732633076608181,-0.000739698763936758
1772642704438130400,5.78113037109375,-0.01261925883591175,0.015098861418664455,0.00017642858438193798
1772642704448171300,5.791171142578125,-0.013666538521647453,0.014503028243780136,-0.0010412691626697779
1772642704458213400,5.80121337890625,-0.014829007908701897,0.010902168229222298,-0.0037776671815663576
1772642704468254200,5.811254150390625,-0.013853528536856174,0.008985047228634357,-0.00829894095659256
1772642704478296600,5.821296630859375,-0.013544335961341858,0.007964789867401123,-0.006276535801589489
1772642704488337400,5.83133740234375,-0.011883024126291275,0.004665723070502281,-0.007245921064168215
1772642704498379500,5.841379638671875,-0.012294216081500053,0.004678772296756506,-0.005628050770610571
1772642704508420400,5.85142041015625,-0.01100589707493782,0.006475502159446478,-0.0031023065093904734
1772642704518462500,5.86146240234375,-0.01058458536863327,0.009084335528314114,-0.005607808940112591
1772642704528503300,5.87150341796875,-0.01069062203168869,0.010716162621974945,-0.006655891891568899
1772642704538545400,5.88154541015625,-0.008367812260985374,0.013316739350557327,-0.005476377438753843
1772642704548586500,5.89158642578125,-0.010546247474849224,0.009980919770896435,-0.0051842243410646915
1772642704558628400,5.90162841796875,-0.008034354075789452,0.00732228672131896,-0.002720267977565527
1772642704568669400,5.91166943359375,-0.00870177336037159,0.00594724016264081,-0.0036084363237023354
1772642704578711600,5.921711669921875,-0.00987169984728098,0.004788764752447605,-0.004804728087037802
1772642704588752400,5.93175244140625,-0.011460690759122372,0.007640849333256483,-0.010148096829652786
1772642704598794500,5.94179443359375,-0.013364850543439388,0.012106170877814293,-0.014878937974572182
1772642704608835600,5.951835693359375,-0.01515134982764721,0.01620982214808464,-0.0139286108314991
1772642704618877400,5.96187744140625,-0.01678812876343727,0.01837550476193428,-0.012821532785892487
1772642704628918500,5.97191845703125,-0.017206503078341484,0.018341539427638054,-0.011163158342242241
1772642704638960400,5.98196044921875,-0.01767175830900669,0.017024606466293335,-0.010093632154166698
1772642704649001500,5.99200146484375,-0.015964306890964508,0.018906809389591217,-0.0075552575290203094
1772642704659043300,6.002043212890625,-0.016827702522277832,0.018001068383455276,-0.006593057885766029
1772642704669084700,6.012084716796875,-0.01380300335586071,0.020194344222545624,-0.001430250471457839
1772642704679126500,6.02212646484375,-0.009514781646430492,0.022419681772589684,-0.0008720518089830875
1772642704689167600,6.032167724609375,-0.008003915660083294,0.022724604234099388,0.0000693595502525568
1772642704699209500,6.04220947265625,-0.005745554808527231,0.02388041652739048,0.0016534077003598213
1772642704709250600,6.05225048828125,-0.005338232032954693,0.023947222158312798,0.0028941985219717026
1772642704719292400,6.06229248046875,-0.0058452975936234,0.025743257254362106,0.004345355089753866
1772642704729333500,6.07233349609375,-0.003941764589399099,0.02155526727437973,0.0049203140661120415
1772642704739376000,6.082376220703125,-0.0028237691149115562,0.016994604840874672,0.006606893613934517
1772642704749418000,6.09241796875,-0.001060898182913661,0.01119713019579649,0.008629853837192059
1772642704759459000,6.102458984375,0.0007556440541520715,0.008500413037836552,0.009116413071751595
1772642704769501000,6.1125009765625,0.0016585971461609006,0.0041845329105854034,0.013003273867070675
1772642704779542000,6.1225419921875,0.0016785708721727133,0.0020761084742844105,0.01444724015891552
1772642704789584000,6.132583984375,0.002405974082648754,-0.0009919488802552223,0.013899179175496101
1772642704799625000,6.142625,0.0038115903735160828,-0.006162475794553757,0.0143726896494627
1772642704809667000,6.1526669921875,0.0046617696061730385,-0.009069434367120266,0.01044304296374321
1772642704819708200,6.162708251953125,0.007733193226158619,-0.010969599708914757,0.0067612226121127605
1772642704829750000,6.17275,0.004869973752647638,-0.014087619259953499,0.00668773427605629
1772642704839791000,6.182791015625,0.006573065184056759,-0.01547858864068985,0.005202756263315678
1772642704849833000,6.1928330078125,0.005240666214376688,-0.014938190579414368,0.0021804505959153175
1772642704859874000,6.2028740234375,0.005461175926029682,-0.01585378497838974,-0.0024539821315556765
1772642704869916000,6.212916015625,0.007159802597016096,-0.018229743465781212,-0.0028382635209709406
1772642704879957000,6.22295703125,0.006644747219979763,-0.016798561438918114,-0.0019991013687103987
1772642704889998800,6.232998779296875,0.004682487342506647,-0.01621362194418907,-0.0015787172596901655
1772642704900040000,6.2430400390625,0.003629207145422697,-0.016824817284941673,-0.0041444068774580956
1772642704910082000,6.25308203125,0.0038727805949747562,-0.01608925685286522,-0.00863596796989441
1772642704920123100,6.263123046875,0.004983318969607353,-0.01801871694624424,-0.0075129130855202675
1772642704930165000,6.2731650390625,0.005155142862349749,-0.018565451726317406,-0.006228051148355007
1772642704940206000,6.2832060546875,0.00306402868591249,-0.019576653838157654,-0.006197690963745117
1772642704950248000,6.293248046875,0.001173357362858951,-0.019699061289429665,-0.009279250167310238
1772642704960289000,6.3032890625,0.004814697429537773,-0.020190415903925896,-0.013143230229616165
1772642704970331000,6.313330810546875,0.0026097488589584827,-0.019945774227380753,-0.012056924402713776
1772642704980372000,6.3233720703125,0.002295762300491333,-0.021692808717489243,-0.009141028858721256
1772642704990413800,6.333413818359375,0.0015272288583219051,-0.022531980648636818,-0.0063636344857513905
1772642705000455000,6.343454833984375,0.0019328282214701176,-0.02242784947156906,-0.0025928644463419914
1772642705010497000,6.3534970703125,0.002910940209403634,-0.019117366522550583,-0.0033240108750760555
1772642705020538000,6.3635380859375,0.004760505631566048,-0.019597800448536873,-0.003464092966169119
1772642705030580000,6.373580078125,0.004346563946455717,-0.017827380448579788,0.0003168031107634306
1772642705040621000,6.38362109375,0.004823003429919481,-0.017020707949995995,0.002236409578472376
1772642705050663000,6.393662841796875,0.004238114692270756,-0.014300425536930561,-0.0011132301297038794
1772642705060704000,6.4037041015625,0.004568079952150583,-0.012151254341006279,-0.001833614893257618
1772642705070745900,6.413745849609375,0.004747102968394756,-0.009028827771544456,-0.0028592825401574373
1772642705080787000,6.423786865234375,0.005715428851544857,-0.006659147795289755,-0.0038960513193160295
1772642705090828800,6.433828857421875,0.004127069376409054,-0.008189679123461246,-0.005327918566763401
1772642705100870100,6.4438701171875,0.00532549200579524,-0.007691933773458004,-0.007648063823580742
1772642705110912000,6.453912109375,0.00694735674187541,-0.009621926583349705,-0.00610369723290205
1772642705120953000,6.463953125,0.005462910979986191,-0.008741485886275768,-0.006146040745079517
1772642705130995000,6.473994873046875,0.0062958733178675175,-0.009895115159451962,-0.0070551130920648575
1772642705141036000,6.4840361328125,0.003985314629971981,-0.006963506806641817,-0.006104631349444389
1772642705151078000,6.494077880859375,0.003134354017674923,-0.006907774601131678,-0.008973626419901848
1772642705161119000,6.504118896484375,0.0022943930234760046,-0.008070777170360088,-0.007733126170933247
1772642705171160800,6.514160888671875,0.0016895956359803677,-0.011980051174759865,-0.0069620367139577866
1772642705181202000,6.524201904296875,-0.000036665413063019514,-0.012902037240564823,-0.004540691152215004
1772642705191244000,6.534244140625,0.00030690518906340003,-0.011887972243130207,-0.0014136307872831821
1772642705201285000,6.54428515625,-0.002471836982294917,-0.0108575951308012,-0.0021305535919964314
1772642705211327000,6.554326904296875,-0.004073199816048145,-0.007705721538513899,-0.006097427103668451
1772642705221368000,6.5643681640625,-0.0031370986253023148,-0.0070183598436415195,-0.007966166362166405
1772642705231410000,6.574409912109375,-0.0036539745051413774,-0.004274880047887564,-0.010679532773792744
1772642705241451000,6.584450927734375,-0.004190868232399225,-0.00613163597881794,-0.013441231101751328
1772642705251492000,6.5944921875,-0.0051543377339839935,-0.010703904554247856,-0.01042385958135128
1772642705261534000,6.604533935546875,-0.004145266022533178,-0.011432012543082237,-0.01105183269828558
1772642705271575000,6.614574951171875,-0.005322985351085663,-0.01233346201479435,-0.011275575496256351
1772642705281617000,6.624616943359375,-0.00438661826774478,-0.012762497179210186,-0.008473397232592106
1772642705291658000,6.634657958984375,-0.003969572018831968,-0.010064160451292992,-0.007910502143204212
1772642705301700000,6.6447001953125,-0.004288085736334324,-0.008962676860392094,-0.011078332550823689
1772642705311741200,6.6547412109375,-0.0024956916458904743,-0.0062893470749258995,-0.012672508135437965
1772642705321783000,6.664782958984375,-0.003152693621814251,-0.005848327651619911,-0.012203525751829147
1772642705331824000,6.67482421875,-0.00037663354305550456,-0.0039915284141898155,-0.008121579885482788
1772642705341866000,6.684865966796875,-0.00007250061025843024,-0.00122104212641716,-0.005026986822485924
1772642705351907000,6.694906982421875,-0.0010140887461602688,0.0005142783047631383,-0.004779704846441746
1772642705361949000,6.704948974609375,-0.0016196914948523045,0.003735637990757823,-0.0075959982350468636
1772642705371990000,6.714989990234375,-0.0018241165671497583,0.005654715932905674,-0.0054133981466293335
1772642705382032000,6.725031982421875,-0.0029527645092457533,0.005565766245126724,-0.003446919610723853
1772642705392073000,6.735072998046875,-0.00012995052384212613,0.0067606656812131405,-0.0032409364357590675
1772642705402115000,6.745114990234375,-0.0001936000189743936,0.0017890767194330692,-0.0036643794737756252
1772642705412156200,6.75515625,0.001826438819989562,-0.002426117891445756,0.0002619249280542135
1772642705422198000,6.765197998046875,0.0022568057756870985,-0.005785695277154446,0.0003239766228944063
1772642705432239000,6.775239013671875,0.0024717971682548523,-0.006678972393274307,0.0027435929514467716
1772642705442281000,6.785281005859375,0.0016965509857982397,-0.006095473654568195,0.003974506165832281
1772642705452322000,6.795322021484375,0.0005705353105440736,-0.004842246882617474,0.001958753913640976
1772642705462364000,6.805364013671875,-0.00254536303691566,-0.0033082657027989626,0.00040985923260450363
1772642705472405000,6.815405029296875,-0.0004282558220438659,-0.0032659266144037247,0.00160174909979105
1772642705482446800,6.82544677734375,-0.00028870621463283896,-0.0033058738335967064,0.003945064730942249
1772642705492488000,6.835488037109375,0.00016444630455225706,-0.002758698770776391,0.0044835591688752174
1772642705502530000,6.845530029296875,0.0009516766876913607,-0.000726706872228533,0.004418577998876572
1772642705512571100,6.855571044921875,-0.000029921415261924267,0.0010809374507516623,0.004021628759801388
1772642705522613000,6.865613037109375,-0.0021817556116729975,0.0027946815825998783,-0.0007736592087894678
1772642705532654000,6.875654052734375,-0.0014909000601619482,0.002667972119525075,-0.004077037330716848
1772642705542696000,6.885696044921875,-0.0022501673083752394,0.000758219335693866,-0.0068235551007092
1772642705552737000,6.895737060546875,-0.0017215730622410774,-0.0008006858988665044,-0.007935287430882454
1772642705562779000,6.90577880859375,-0.0022246441803872585,-0.0013652760535478592,-0.0073139723390340805
1772642705572820000,6.915820068359375,-0.0025480464100837708,-0.00004984578117728233,-0.008152887225151062
1772642705582861800,6.92586181640625,-0.0041949450969696045,-0.00039286084938794374,-0.008194433525204659
1772642705592903000,6.93590283203125,-0.005946052260696888,0.0021111180540174246,-0.00952278170734644
1772642705602945000,6.945945068359375,-0.006668834015727043,0.0005039003444835544,-0.007588528096675873
1772642705612986000,6.955986083984375,-0.006125388201326132,-0.0018585941288620234,-0.009738105349242687
1772642705623028000,6.966028076171875,-0.003295246744528413,-0.004348383285105228,-0.009624388068914413
1772642705633069000,6.976069091796875,-0.0018584595527499914,-0.005333918612450361,-0.008891362696886063
1772642705643111000,6.98611083984375,-0.00144433812238276,-0.004678514786064625,-0.006608501076698303
1772642705653152000,6.996152099609375,-0.0028792491648346186,-0.004075841512531042,-0.006144578568637371
1772642705663193900,7.00619384765625,-0.002586567774415016,-0.0027967251371592283,-0.00694805383682251
1772642705673235000,7.01623486328125,-0.0031061507761478424,-0.0047336420975625515,-0.005134174600243568
1772642705683277000,7.026277099609375,-0.0038270684890449047,-0.00716430926695466,0.0014406372793018818
1772642705693318100,7.036318115234375,-0.0037923103664070368,-0.004478716757148504,0.0003949590027332306
1772642705703360000,7.046360107421875,-0.0011312798596918583,-0.004468063823878765,-0.00006496882997453213
1772642705713401000,7.056401123046875,-0.0015504690818488598,-0.0043909549713134766,0.0025867142248898745
1772642705723443000,7.06644287109375,-0.0009834821103140712,-0.0024335316848009825,0.006405421067029238
1772642705733484000,7.076484130859375,-0.0031321130227297544,0.0014300388284027576,0.005676007829606533
1772642705743524600,7.086524658203125,-0.0038687430787831545,0.0043989308178424835,0.0017241428140550852
1772642705753565400,7.0965654296875,-0.004723116289824247,0.006517418660223484,-0.003010962624102831
1772642705763607800,7.10660791015625,-0.004442951641976833,0.007590139750391245,-0.004596342332661152
1772642705773648600,7.116648681640625,-0.0029457309283316135,0.008406542241573334,-0.006919978652149439
1772642705783690800,7.126690673828125,-0.0017441125819459558,0.008104273118078709,-0.0020245560444891453
1772642705793731600,7.136731689453125,-0.0027044282760471106,0.008911434561014175,-0.0013628755696117878
1772642705803773700,7.146773681640625,-0.004764915909618139,0.00947762280702591,-0.002907775342464447
1772642705813814500,7.156814453125,-0.0068965028040111065,0.008432453498244286,-0.007062016986310482
1772642705823856600,7.166856689453125,-0.005261056125164032,0.008204752579331398,-0.009986435063183308
1772642705833897500,7.1768974609375,-0.006938494276255369,0.008138222619891167,-0.009822124615311623
1772642705843939600,7.186939697265625,-0.005348321050405502,0.008788833394646645,-0.006293967831879854
1772642705853980400,7.19698046875,-0.004660242237150669,0.008685166016221046,-0.006508779712021351
1772642705864021500,7.207021484375,-0.0045784832909703255,0.010115283541381359,-0.00713622011244297
1772642705874063600,7.217063720703125,-0.001148683950304985,0.009779145009815693,-0.0033188355155289173
1772642705884104700,7.227104736328125,-0.004644349217414856,0.0077122654765844345,-0.003176090307533741
1772642705894146600,7.237146484375,-0.004178465344011784,0.005329149775207043,-0.0006435797549784184
1772642705904187600,7.247187744140625,-0.0036439686082303524,0.004958704113960266,-0.0019091139547526836
1772642705914229500,7.2572294921875,-0.0007841716287657619,0.004885372705757618,-0.0018315950874239206
1772642705924270600,7.2672705078125,0.000717584858648479,0.004693358670920134,-0.0033266933169215918
1772642705934312700,7.277312744140625,0.0016085610259324312,0.0038572875782847404,-0.00507399020716548
1772642705944353500,7.287353515625,0.000998164527118206,0.0036911063361912966,-0.00632487703114748
1772642705954395600,7.297395751953125,0.0007798284059390426,0.0009671158040873706,-0.006073612719774246
1772642705964436500,7.3074365234375,-0.0013786636991426349,-0.0019450506661087275,-0.005463216453790665
1772642705974478800,7.317478759765625,-0.0022385239135473967,-0.0014122046995908022,-0.005725935101509094
1772642705984519700,7.327519775390625,-0.0030257543548941612,-0.0014252541586756706,-0.005240707658231258
1772642705994561800,7.337561767578125,-0.002894781995564699,0.0003460231819190085,-0.005137362517416477
1772642706004602600,7.3476025390625,-0.003560838522389531,0.000528982374817133,-0.005135764367878437
1772642706014644700,7.357644775390625,-0.004347650334239006,0.0015951837413012981,-0.006606266368180513
1772642706024685600,7.367685546875,-0.002931114984676242,0.0009445734322071075,-0.0067503429017961025
1772642706034727700,7.377727783203125,-0.003576210467144847,-0.0014372819568961859,-0.009011594578623772
1772642706044768500,7.3877685546875,-0.0031050972174853086,-0.0018969436641782522,-0.00906192883849144
1772642706054810600,7.397810546875,-0.0009628583793528378,-0.0037250604946166277,-0.0075689880177378654
1772642706064851500,7.4078515625,0.00012211344437673688,-0.002046469831839204,-0.008955962024629116
1772642706074893800,7.417893798828125,-0.0003988008829765022,-0.0013007847592234612,-0.00928512867540121
1772642706084934700,7.4279345703125,-0.0023359842598438263,-0.0011596372351050377,-0.010598333552479744
1772642706094976800,7.437976806640625,-0.0030326282139867544,0.000027779547963291407,-0.011174343526363373
1772642706105017600,7.448017578125,-0.006122427526861429,-0.0025336488615721464,-0.013349880464375019
1772642706115059700,7.458059814453125,-0.005832544062286615,-0.004340156447142363,-0.013029555790126324
1772642706125100500,7.4681005859375,-0.005761437583714724,-0.004580107517540455,-0.01147187314927578
1772642706135142700,7.478142578125,-0.0058089494705200195,-0.0036802049726247787,-0.013935793191194534
1772642706145183500,7.48818359375,-0.005156475119292736,-0.0022165316622704268,-0.01349237747490406
1772642706155225900,7.498225830078125,-0.003877124050632119,-0.00020723359193652868,-0.014790674671530724
1772642706165266700,7.5082666015625,-0.003037162823602557,-0.0006213551387190819,-0.015654871240258217
1772642706175308800,7.518308837890625,-0.004338085651397705,-0.003590722568333149,-0.014576282352209091
1772642706185349600,7.528349609375,-0.004052594769746065,-0.0028916429728269577,-0.01059645600616932
1772642706195391700,7.538391845703125,-0.0027547620702534914,-0.003936186898499727,-0.010067683644592762
1772642706205432600,7.5484326171875,-0.000543006754014641,-0.005123157985508442,-0.010756110772490501
1772642706215474700,7.558474609375,-0.0018950392259284854,-0.005390282720327377,-0.011204337701201439
1772642706225515500,7.568515625,-0.00448576221242547,-0.00433753477409482,-0.01463981531560421
1772642706235557600,7.5785576171875,-0.005575625225901604,-0.003288663225248456,-0.014355234801769257
1772642706245598500,7.588598388671875,-0.004998251795768738,-0.0019783880561590195,-0.015480421483516693
1772642706255640800,7.598640869140625,-0.0041941143572330475,-0.0029342584311962128,-0.014713844284415245
1772642706265681700,7.608681640625,-0.003693440230563283,-0.0040149688720703125,-0.015193745493888855
1772642706275723800,7.618723876953125,-0.003914686385542154,-0.0016222710255533457,-0.011745206080377102
1772642706285764600,7.6287646484375,-0.004398582503199577,-0.0016358532011508942,-0.009778461419045925
1772642706295806700,7.638806640625,-0.0034117328468710184,0.0004229318583384156,-0.0035168344620615244
1772642706305847600,7.64884765625,-0.0033020104747265577,0.00007432408165186644,-0.004309390671551228
1772642706315889700,7.6588896484375,-0.001167111680842936,0.001667940174229443,-0.005841009318828583
1772642706325930500,7.668930419921875,-0.001464054104872048,0.0006727168802171946,-0.008153432048857212
1772642706335972600,7.67897265625,-0.0005772440927103162,0.0035950709134340286,-0.00810147449374199
1772642706346013400,7.689013427734375,-0.0016491664573550224,0.005204419139772654,-0.0070095788687467575
1772642706356055800,7.699055908203125,-0.003047655336558819,0.004842647351324558,-0.00518053350970149
1772642706366096600,7.7090966796875,-0.0042071957141160965,0.006845611147582531,-0.004711017943918705
1772642706376138800,7.719138671875,-0.004444824066013098,0.00513165257871151,-0.0036187246441841125
1772642706386179600,7.7291796875,-0.005767083261162043,0.004554279148578644,-0.0009622212965041399
1772642706396221700,7.7392216796875,-0.006411232054233551,0.006976394448429346,0.002555852523073554
1772642706406262500,7.749262451171875,-0.005123061127960682,0.008436871692538261,0.005788131151348352
1772642706416304600,7.7593046875,-0.006780278868973255,0.010903317481279373,0.007098516449332237
1772642706426345500,7.769345458984375,-0.006082264240831137,0.013047427870333195,0.004961063619703054
1772642706436387600,7.7793876953125,-0.0058521912433207035,0.013996112160384655,0.0018126943614333868
1772642706446428400,7.789428466796875,-0.006248735822737217,0.013063207268714905,-0.0016478169709444046
1772642706456470800,7.799470703125,-0.005898858420550823,0.012202892452478409,-0.007894005626440048
1772642706466511600,7.80951171875,-0.004567278083413839,0.009751718491315842,-0.009526257403194904
1772642706476553700,7.8195537109375,-0.005982959643006325,0.008876328356564045,-0.012384909205138683
1772642706486594600,7.829594482421875,-0.005335278809070587,0.00726724648848176,-0.013922885060310364
1772642706496636700,7.83963671875,-0.006512482184916735,0.007441103458404541,-0.013266140595078468
1772642706506677500,7.849677490234375,-0.00785817764699459,0.005297258961945772,-0.009881529025733471
1772642706516718600,7.859718505859375,-0.00999304186552763,0.005177734885364771,-0.010148778557777405
1772642706526760700,7.8697607421875,-0.010523010976612568,0.0031550643034279346,-0.0072368779219686985
1772642706536801500,7.879801513671875,-0.008908038958907127,0.000322583073284477,-0.008244878612458706
1772642706546843600,7.88984375,-0.0034506889060139656,-0.003048446262255311,-0.009933322668075562
1772642706556884500,7.899884521484375,-0.001786477630957961,-0.005879411473870277,-0.008216560818254948
1772642706566926600,7.909926513671875,0.0005989156197756529,-0.008857890963554382,-0.007880203425884247
1772642706576967700,7.9199677734375,0.0009094069246202707,-0.010301356203854084,-0.0045960876159369946
1772642706587009800,7.930009765625,0.0003160546184517443,-0.012252920307219028,-0.0028373361565172672
1772642706597050600,7.940050537109375,-0.0003580032498575747,-0.012789914384484291,-0.0007356922142207623
1772642706607092700,7.9500927734375,0.0010888921096920967,-0.011139286682009697,0.00013675936497747898
1772642706617133600,7.960133544921875,0.0017866636626422405,-0.00927434116601944,0.0014137232210487127
1772642706627175700,7.97017578125,0.0037643269170075655,-0.008442370221018791,0.0032627559266984463
1772642706637216500,7.980216552734375,0.005432965699583292,-0.00756713654845953,0.0021196145098656416
1772642706647258600,7.990258544921875,0.006106212735176086,-0.00648536067456007,0.0014932389603927732
1772642706657299700,8.0002998046875,0.008036910556256771,-0.006318551022559404,-0.0007624770514667034
1772642706667341800,8.010341796875,0.0065585896372795105,-0.005084708798676729,0.001276172697544098
1772642706677382700,8.020382568359375,0.006556831765919924,-0.00444554490968585,0.00232453434728086
1772642706687424800,8.0304248046875,0.008288418874144554,-0.0015395036898553371,0.006262284237891436
1772642706697465600,8.040465576171876,0.008640148676931858,0.004039338324218988,0.006891720462590456
1772642706707507700,8.0505078125,0.007818030193448067,0.008487350307404995,0.005781182553619146
1772642706717548500,8.060548583984374,0.0032878643833100796,0.012209977954626083,0.005480125546455383
1772642706727590700,8.070590576171876,0.0012825039448216558,0.01471148431301117,0.0014488986926153302
1772642706737631700,8.0806318359375,-0.0019744443707168102,0.014596051536500454,0.004544403869658709
1772642706747673900,8.090673828125,-0.0018098610453307629,0.01535292249172926,0.0014950844924896955
1772642706757714700,8.100714599609375,-0.002096428768709302,0.013036404736340046,0.0035922019742429256
1772642706767756800,8.1107568359375,-0.0015259794890880585,0.010221710428595543,0.0014507542364299297
1772642706777797600,8.120797607421874,-0.001115990336984396,0.00812014751136303,0.0022825777996331453
1772642706787839700,8.13083984375,-0.001728517236188054,0.007866348139941692,0.002022653119638562
1772642706797880600,8.140880615234375,0.0002805670374073088,0.006941454950720072,-0.0003327438607811928
1772642706807923000,8.1509228515625,-0.001313068438321352,0.004152858629822731,0.000365004176273942
1772642706817963800,8.1609638671875,0.0003117817686870694,0.000056908815167844296,0.002087524626404047
1772642706828006000,8.171005859375,0.0004438745672814548,-0.0014371245633810759,0.0007319757714867592
1772642706838046700,8.181046630859376,0.002592120785266161,-0.006866739131510258,0.0019101329380646348
1772642706848088800,8.1910888671875,0.005018527153879404,-0.007938661612570286,-0.002054781187325716
1772642706858129700,8.201129638671874,0.005785783752799034,-0.012197854928672314,-0.002801265101879835
1772642706868171800,8.211171875,0.006834004074335098,-0.01743442937731743,-0.000225722324103117
1772642706878212600,8.221212646484375,0.005849069450050592,-0.01852993480861187,0.0013837801525369287
1772642706888255000,8.2312548828125,0.006516723893582821,-0.021574193611741066,0.0020708758383989334
1772642706898295800,8.2412958984375,0.00786080863326788,-0.023276586085557938,0.0026443966198712587
1772642706908338000,8.251337890625,0.007789170369505882,-0.022708535194396973,0.005630599334836006
1772642706918378800,8.261378662109376,0.009769434109330177,-0.020852690562605858,0.004929910879582167
1772642706928420900,8.2714208984375,0.008323071524500847,-0.01659855805337429,0.006583999842405319
1772642706938461700,8.281461669921875,0.008068794384598732,-0.013022740371525288,0.004295263439416885
1772642706948503800,8.29150390625,0.006292199715971947,-0.010435746051371098,0.002069393638521433
1772642706958544600,8.301544677734375,0.003424836788326502,-0.006337825674563646,0.002608163980767131
1772642706968586800,8.311586669921875,0.0019198845839127898,-0.005613445769995451,0.006105160806328058
1772642706978627600,8.321627685546876,0.0027718297205865383,-0.004181197844445705,0.008737961761653423
1772642706988670000,8.331669921875,0.002131339628249407,-0.0033244588412344456,0.008981108665466309
1772642706998710800,8.341710693359374,0.00015921896556392312,-0.0027648000977933407,0.008152630180120468
1772642707008753000,8.3517529296875,-0.0017699748277664185,0.00021421181736513972,0.005890808068215847
1772642707018793700,8.361793701171875,-0.002638456178829074,0.0015569012612104416,0.0052522821351885796
1772642707028835800,8.3718359375,-0.006021203473210335,0.004527125041931868,0.00501446146517992
1772642707038876700,8.381876708984375,-0.008965891785919666,0.004198700189590454,0.0034977849572896957
1772642707048918800,8.391918701171875,-0.010565652512013912,0.005551585927605629,0.004065570887178183
1772642707058959600,8.401959716796876,-0.007636689115315676,0.006537977606058121,0.0035967379808425903
1772642707069001700,8.412001708984375,-0.010232738219201565,0.005300672724843025,0.001817480195313692
1772642707079042600,8.42204248046875,-0.008284209296107292,0.009073569439351559,0.005628323182463646
1772642707089085000,8.4320849609375,-0.0085073821246624,0.01353249978274107,0.004788096062839031
1772642707099125800,8.442125732421875,-0.008976302109658718,0.015245292335748672,0.0038964806590229273
1772642707109167900,8.45216796875,-0.009460465051233768,0.014426902867853642,0.004891171120107174
1772642707119208700,8.462208740234376,-0.010932703502476215,0.01330049429088831,0.004544032271951437
1772642707129250800,8.472250732421875,-0.011738043278455734,0.011537215672433376,0.001598842442035675
1772642707139291600,8.482291748046874,-0.012641203589737415,0.009108075872063637,0.001681239460594952
1772642707149332700,8.492332763671875,-0.013958136551082134,0.006640656851232052,0.00038188323378562927
1772642707159374600,8.50237451171875,-0.013303019106388092,0.006912074983119965,-0.0018084542825818062
1772642707169416700,8.512416748046874,-0.013927530497312546,0.009412250481545925,-0.0032761222682893276
1772642707179457800,8.522457763671875,-0.012700208462774754,0.01257641427218914,-0.006094927899539471
1772642707189498600,8.53249853515625,-0.016842754557728767,0.013449132442474365,-0.00810428336262703
1772642707199540700,8.542540771484376,-0.014760143123567104,0.01270873099565506,-0.0067600347101688385
1772642707209581800,8.552581787109375,-0.014923128299415112,0.011864242143929005,-0.007309977896511555
1772642707219623700,8.562623779296874,-0.015396589413285255,0.011242673732340336,-0.007879476062953472
1772642707229664800,8.572664794921875,-0.014126794412732124,0.009237313643097878,-0.009122638963162899
1772642707239707000,8.582706787109375,-0.012344934977591038,0.007763673085719347,-0.008169237524271011
1772642707249747700,8.592747802734374,-0.010166469030082226,0.003772393800318241,-0.006067737005650997
1772642707259789800,8.602789794921875,-0.008615889586508274,0.0006237865891307592,-0.00763687863945961
1772642707269830700,8.61283056640625,-0.009688344784080982,-0.00006117846351116896,-0.009370064362883568
1772642707279872800,8.622872802734374,-0.006458636373281479,-0.00011427182471379638,-0.008412109687924385
1772642707289913600,8.63291357421875,-0.006457038223743439,0.0008750925189815462,-0.008250988088548183
1772642707299956000,8.6429560546875,-0.006853398401290178,0.0016010005492717028,-0.004189294762909412
1772642707309996800,8.652996826171876,-0.00758550176396966,0.0023131296038627625,-0.0024217546451836824
1772642707320039000,8.663038818359375,-0.007744128815829754,0.003941533155739307,-0.0017832855228334665
1772642707330079700,8.673079833984374,-0.008584089577198029,0.005354073829948902,-0.002134289825335145
1772642707340121900,8.683121826171876,-0.010097426362335682,0.005159459076821804,0.00017801648937165737
1772642707350162700,8.69316259765625,-0.01105030532926321,0.005916063208132982,0.0017990826163440943
1772642707360204800,8.703204833984374,-0.012903951108455658,0.005849703215062618,0.002145303413271904
1772642707370245600,8.71324560546875,-0.01508454792201519,0.0071575818583369255,0.000016638776287436485
1772642707380287700,8.723287841796875,-0.01546010933816433,0.007244675885885954,-0.0020310513209551573
1772642707390328600,8.73332861328125,-0.01863965578377247,0.01003433670848608,-0.0047474754974246025
1772642707400371000,8.743370849609375,-0.018421927466988564,0.015026859939098358,-0.0070066326297819614
1772642707410411800,8.753411865234375,-0.019217146560549736,0.017218641936779022,-0.00812276266515255
1772642707420454000,8.763453857421876,-0.021652916446328163,0.01771143637597561,-0.008204120211303234
1772642707430494700,8.77349462890625,-0.021674755960702896,0.018692810088396072,-0.01070962194353342
1772642707440536800,8.783536865234375,-0.021492889150977135,0.017173396423459053,-0.013078682124614716
1772642707450577700,8.79357763671875,-0.020054781809449196,0.0197348240762949,-0.013979895040392876
1772642707460619800,8.803619873046875,-0.017992200329899788,0.021992620080709457,-0.015048452652990818
1772642707470660600,8.81366064453125,-0.018343204632401466,0.02832961268723011,-0.013144292868673801
1772642707480703000,8.823702880859376,-0.01866510510444641,0.029329044744372368,-0.013088765554130077
1772642707490743800,8.833743896484375,-0.014909780584275723,0.02999962866306305,-0.009087897837162018
1772642707500786000,8.843785888671874,-0.01927173137664795,0.028750229626893997,0.03484559804201126
1772642707510826800,8.85382666015625,-0.020588930696249008,0.021586060523986816,0.06069610267877579
1772642707520868900,8.863868896484375,-0.01824967749416828,0.016727294772863388,0.0434751957654953
1772642707530909700,8.87390966796875,-0.012236258946359158,0.021173443645238876,0.004293437115848064
1772642707540951800,8.883951904296875,-0.005694860592484474,0.02466914989054203,-0.0310113076120615
1772642707550992600,8.89399267578125,-0.0019235583022236824,0.026446277275681496,-0.04868883639574051
1772642707561034800,8.90403466796875,-0.004852459765970707,0.02384239435195923,-0.046782419085502625
1772642707571075600,8.91407568359375,-0.01546142902225256,0.017810333520174026,-0.03140266612172127
1772642707581118000,8.924117919921875,-0.012385210953652859,0.013637694530189037,-0.013916616328060627
1772642707591158800,8.93415869140625,-0.009084489196538925,0.007762228138744831,0.0011664633639156818
1772642707601201000,8.944200927734375,-0.009814685210585594,0.0038411468267440796,0.003469427116215229
