time,seconds_elapsed,z,y,x
1772648211219726000,0.02972607421875,-0.3334808439821005,0.37452947820723054,-0.30757161896079777
1772648211229766100,0.03976611328125,-0.3889937646284699,0.4140495876908302,-0.3758664258994162
1772648211239807200,0.04980712890625,-0.49161622697412966,0.42408582853674887,-0.41160643232241273
1772648211249847300,0.059847412109375,-0.6114286013126373,0.39606735627651213,-0.43528000724613664
1772648211259888000,0.06988818359375,-0.5361278611347079,0.3603589140355587,-0.4567895360037684
1772648211269928200,0.07992822265625,-0.35124124933928247,0.17240882301628588,-0.42596126701980824
1772648211279969300,0.08996923828125,-0.257747557605803,-0.15701660809516907,-0.3886227393589914
1772648211290009000,0.100009033203125,-0.23710838194191455,-0.47595220937430854,-0.4118517853856086
1772648211300050000,0.1100498046875,-0.20413637892752884,-0.7564338690966367,-0.3934302857711911
1772648211310090000,0.120090087890625,-0.26825024691969157,-0.9822942963153123,-0.3157544870249927
1772648211320131000,0.130131103515625,-0.42935412432849407,-1.0940642339736222,-0.25133637538924813
1772648211330171100,0.140171142578125,-0.5172434201836585,-1.0913427000552416,-0.11009338274821638
1772648211340212200,0.150212158203125,-0.5385188479244709,-1.1250737047433852,0.13077040620446204
1772648211350252000,0.160251953125,-0.5225219451084733,-1.0987041687339543,0.34922786369025705
1772648211360293000,0.170293212890625,-0.5433867462217807,-0.9926800812512636,0.4813308336727321
1772648211370333200,0.180333251953125,-0.589114478173852,-0.7675614123106003,0.5239449636489153
1772648211380374300,0.190374267578125,-0.6343406903445721,-0.41770752567648883,0.46486397525742645
1772648211390414000,0.2004140625,-0.42936552250534293,-0.14672493118345736,0.4974582310006022
1772648211400455000,0.210454833984375,-0.2526367904633283,-0.04652618885338306,0.4508890797883272
1772648211410495000,0.220494873046875,-0.13597352780550717,0.016226327657699584,0.39425358485281464
1772648211420536000,0.2305361328125,-0.16697452300786972,0.1311199502944946,0.2906282290749252
1772648211430576000,0.240576171875,-0.14606588275283575,0.24604922876656055,0.10764131342098117
1772648211440617000,0.250616943359375,-0.0668134823396802,0.21309037749469278,0.022192980977147815
1772648211450657000,0.260656982421875,0.04120382478684187,0.05642448253333568,-0.04598915936723351
1772648211460698000,0.270697998046875,0.030830314810574053,-0.06509586476683617,-0.12632234075441956
1772648211470738200,0.28073828125,-0.05172901819348335,-0.10044657961130142,-0.24062983406633137
1772648211480779300,0.290779296875,-0.20511516083180903,-0.05405132366120815,-0.3717641051471233
1772648211490819300,0.3008193359375,-0.05237637618631124,-0.08413198914825916,-0.43112449500188227
1772648211500860200,0.310860107421875,0.08825783690661192,-0.23455519032776354,-0.47373657915145156
1772648211510900000,0.32089990234375,0.18857903657257555,-0.36695290547311304,-0.5059114404387772
1772648211520941000,0.330941162109375,0.2103711816638708,-0.4886258129864931,-0.5230341324143112
1772648211530981000,0.340981201171875,0.24302198989987372,-0.5911515369594097,-0.43381782573908567
1772648211541022000,0.35102197265625,0.3139522599086165,-0.6514356175303458,-0.20675518312379718
1772648211551062000,0.36106201171875,0.47895431379973885,-0.6722586253285407,0.18121698337197303
1772648211561103000,0.37110302734375,0.43256899472177024,-0.5817062477439642,0.7382942551635205
1772648211571143200,0.38114306640625,0.4531047100111842,-0.3407370987206697,1.0886163438312708
1772648211581184300,0.391184326171875,0.4930588269978761,-0.04393324975073337,1.2326339157521724
1772648211591224300,0.401224365234375,0.45694881821870803,0.2477279756337404,1.252656566952914
1772648211601265200,0.41126513671875,0.383978566814959,0.4949778123617172,1.1646845612503587
1772648211611305000,0.421304931640625,0.2730234526708722,0.6283370660156011,0.9979298184730112
1772648211621346000,0.431345947265625,0.1531669469296932,0.5963257247269154,0.7479695537425577
1772648211631386000,0.44138623046875,-0.06169394736886024,0.48372108981013295,0.4619865201249718
1772648211641427000,0.451427001953125,-0.2819584542766213,0.2698591434210539,0.216615775141865
1772648211651467000,0.461467041015625,-0.5308651183009148,-0.0016208792001008987,0.047423137693107124
1772648211661508000,0.471508056640625,-0.7753589343190193,-0.19585633409917352,-0.07343713826313615
1772648211671548200,0.481548095703125,-0.7954054047867656,-0.27674890293478965,-0.18868965734019874
1772648211681589200,0.49158935546875,-0.5440691755279898,-0.4132558069646358,-0.22187705667093394
1772648211691629000,0.501629150390625,-0.33399580776691434,-0.5623199947506189,-0.15203911194354294
1772648211701670100,0.511670166015625,-0.27105653651207684,-0.6460258674412965,0.02430880408734083
1772648211711710200,0.521710205078125,-0.24238866043239832,-0.6475777730584145,0.2684768952824175
1772648211721751300,0.531751220703125,-0.1994920602530241,-0.6010790567338467,0.4964791568353772
1772648211731791000,0.541791015625,-0.16817717679589986,-0.5580892253130674,0.6576962853603064
1772648211741832000,0.55183203125,-0.08548544958382845,-0.5007604874163866,0.6860482273586094
1772648211751872000,0.5618720703125,0.03329290553182363,-0.4182622369498014,0.6190899297207594
1772648211761913000,0.5719130859375,0.02853518961071968,-0.32752105879485605,0.6059957626089454
1772648211771953200,0.581953125,-0.06519727931469678,-0.2446691725850105,0.6229686708502471
1772648211781994000,0.591993896484375,-0.02575841837376356,-0.23893325928151607,0.5258788543209433
1772648211792034000,0.602033935546875,-0.016396131266653537,-0.25393150644898416,0.3991583080291748
1772648211802075100,0.6120751953125,0.007144611057639121,-0.24488427664041518,0.3826819511331618
1772648211812115200,0.622115234375,0.030334055726230144,-0.27359832994937894,0.5276043629392981
1772648211822155000,0.632155029296875,-0.05513941115885972,-0.2931985179543495,0.6873197085991501
1772648211832196000,0.642196044921875,-0.058543958905339234,-0.2813555199474096,0.8399038872048258
1772648211842237000,0.65223681640625,-0.1157864798232913,-0.22340426623821258,0.930850524803996
1772648211852277000,0.662277099609375,-0.13603694843053818,-0.1717635108500719,0.9852481776848435
1772648211862317000,0.672317138671875,-0.16172551643848418,-0.21968495345413683,1.0185399141728877
1772648211872358100,0.682358154296875,-0.2082864843443036,-0.3481359768003225,0.9797115863457322
1772648211882398500,0.6923984375,-0.2277498942270875,-0.5128127442598343,0.8823859152339398
1772648211892439300,0.702439208984375,-0.16181991672366858,-0.6674123543411493,0.7648100677758455
1772648211902479400,0.712479248046875,-0.1356172617137432,-0.7692237925648688,0.6551100682593882
1772648211912520400,0.7225205078125,-0.19480010304450987,-0.8029483675122261,0.5903979421131312
1772648211922560500,0.732560546875,-0.22157792759388684,-0.7669698761582374,0.571563770044595
1772648211932601300,0.742601318359375,-0.16096140019819138,-0.7620780124634504,0.589088174688816
1772648211942641400,0.752641357421875,-0.21161212163567542,-0.7747691517323255,0.6360800813578069
1772648211952682500,0.7626826171875,-0.18515373829901216,-0.6535755521684885,0.5995968553520739
1772648211962722300,0.772722412109375,-0.17011749720871447,-0.3768488610655069,0.48469709523543714
1772648211972763400,0.782763427734375,-0.29191885340735313,-0.3413344800919294,0.5104536139130592
1772648211982803500,0.792803466796875,-0.3047223670095205,-0.36765725435018537,0.5956852348662912
1772648211992844300,0.80284423828125,-0.26813860323876143,-0.47521688083708286,0.725611299201101
1772648212002884400,0.81288427734375,-0.30532617812156676,-0.6980372097074985,0.8576951260916889
1772648212012925400,0.822925537109375,-0.15816402456462383,-0.5685159267812967,0.8255654191203415
1772648212022965500,0.832965576171875,-0.2152642144024372,-0.6697884358227253,0.9278909443460405
1772648212033006300,0.84300634765625,-0.33632074358314273,-0.7395704125791788,1.1419101271234453
1772648212043046400,0.85304638671875,-0.4522076150409877,-0.7038514489442109,1.2995356608971953
1772648212053087500,0.86308740234375,-0.3562485561072826,-0.6772521958321333,1.3425187703162431
1772648212063127300,0.873127197265625,-0.2938162114612758,-0.5884972230583428,1.3037652612909674
1772648212073168400,0.88316845703125,-0.1597315661422908,-0.41792262973189354,1.3252566698700188
1772648212083208400,0.89320849609375,-0.09762333888411522,-0.2846457936644554,1.3990700940996408
1772648212093249300,0.903249267578125,-0.06045037704855203,-0.2265659451395273,1.4534931736826895
1772648212103289300,0.913289306640625,-0.11320070111379027,-0.18369477166235446,1.4840703905150294
1772648212113330400,0.923330322265625,-0.1702513527214527,-0.1189081189751625,1.4696576881505548
1772648212123370500,0.93337060546875,-0.22801833590492604,-0.03718611357808113,1.4694533977501094
1772648212133411300,0.943411376953125,-0.2435503976881504,0.11052490603327751,1.5158004306443034
1772648212143451400,0.953451416015625,-0.23155542398989198,0.33583062197864055,1.5146597361765801
1772648212153492500,0.963492431640625,-0.24578721682950852,0.5482903003543615,1.4824272994831205
1772648212163532500,0.973532470703125,-0.32881811286807056,0.7292816582769155,1.5223108354516326
1772648212173573400,0.983573486328125,-0.2862397848576307,0.8910890077799558,1.5423745493151246
1772648212183613200,0.99361328125,-0.4129623769760132,1.0823965925335883,1.5391358596548437
1772648212193654300,1.003654296875,-0.4310603437244892,1.1697808614760636,1.549361485593021
1772648212203694300,1.0136943359375,-0.40337256472334265,1.1108546252548694,1.489001271045953
1772648212213735400,1.0237353515625,-0.46729894731938837,0.9830506676405668,1.3237956574067473
1772648212223775500,1.033775390625,-0.5322497045271098,0.9004571401059627,1.047657141455263
1772648212233816300,1.04381640625,-0.5775894600749015,0.8513233991026878,0.8290409862764179
1772648212243856400,1.0538564453125,-0.6082394498825073,0.807760151708126,0.6228488438628613
1772648212253897500,1.0638974609375,-0.5360964430831372,0.7971247759252786,0.3608995967835188
1772648212263937500,1.0739375,-0.4157987694457173,0.7882768680810928,0.158932086327672
1772648212273978400,1.083978271484375,-0.32136823525354263,0.7632733597278595,0.06628595133423805
1772648212284018200,1.09401806640625,-0.2439792906247079,0.7631780826598406,-0.030450375582277773
1772648212294059300,1.104059326171875,-0.11975859832465648,0.7179425181388854,-0.22223609924167392
1772648212304099300,1.114099365234375,0.02739727162197232,0.596492313465476,-0.4274912530660629
1772648212314139400,1.124139404296875,0.15641118954792618,0.3947738093346357,-0.5404971622601151
1772648212324180500,1.134180419921875,0.2655558932691812,0.19278525609076022,-0.6394552568793297
1772648212334220300,1.14422021484375,0.3990492946967482,0.0823439366877079,-0.7599296022579074
1772648212344261400,1.154261474609375,0.43889308317676184,-0.055818333333730694,-0.9297206439912319
1772648212354301400,1.164301513671875,0.5567576844483614,-0.2023369282901287,-1.1062827872946859
1772648212364342500,1.174342529296875,0.6888089242435992,-0.328507731744647,-1.2260238499626517
1772648212374382600,1.184382568359375,0.7688678187340497,-0.45539457451403137,-1.2752692346468568
1772648212384423400,1.19442333984375,0.7178396422863006,-0.6073632515698671,-1.3390288823738694
1772648212394463200,1.204463134765625,0.5879221996493638,-0.729334849768877,-1.4200206738002596
1772648212404504300,1.21450439453125,0.4923996324367821,-0.8257932365268469,-1.4681050518810748
1772648212414544400,1.22454443359375,0.3515257653690874,-0.8050216666549443,-1.4887179240599273
1772648212424585200,1.234585205078125,0.21880875514149664,-0.6266261704444885,-1.5331240520194171
1772648212434625300,1.244625244140625,0.030892712522298096,-0.39298575687408444,-1.4338611292347312
1772648212444666400,1.254666259765625,-0.22633359768837688,-0.04490647869706153,-1.3136657469280064
1772648212454706400,1.26470654296875,-0.49269978442713613,0.3517150043308735,-1.1308733309328556
1772648212464747500,1.27474755859375,-0.6263610897675156,0.693621731352806,-0.9773327283851801
1772648212474787600,1.28478759765625,-0.6259431566163897,0.950267172935605,-0.875714474646002
1772648212484828400,1.294828369140625,-0.5530442168831825,1.1119517728418111,-0.7176352057553828
1772648212494868200,1.3048681640625,-0.4866778937891125,1.0772101298063992,-0.5063577229015529
1772648212504909300,1.314909423828125,-0.19536592023372648,0.8134054641187191,-0.34206659375876186
1772648212514949400,1.324949462890625,-0.12207476631253956,0.46035073561668394,-0.1745813447497785
1772648212524990200,1.334990234375,-0.20774258672595022,0.11339315494596958,0.0638984716758132
1772648212535030300,1.3450302734375,-0.29451836838126183,-0.20551848093569278,0.16073679766207932
1772648212545071400,1.3550712890625,-0.22045827591419218,-0.47605683879256244,0.22374548089131713
1772648212555111400,1.365111328125,0.04546820423305034,-0.7458703895062208,0.2920817888841033
1772648212565152500,1.375152587890625,-0.08384820377081632,-1.0120037904024124,0.42060967685878276
1772648212575192600,1.385192626953125,-0.13427198458462952,-1.1611913123071194,0.34851138598397374
1772648212585233400,1.3952333984375,-0.052553194057941434,-1.1406336774468422,0.3146041479460895
1772648212595273500,1.4052734375,-0.09969839159250259,-1.052922660768032,0.33653628602996466
1772648212605314600,1.415314453125,-0.13487842604517936,-1.0105606058567762,0.3898362068019807
1772648212615354400,1.425354248046875,-0.2197407752946019,-1.0067647207051516,0.2936117749303579
1772648212625395200,1.435395263671875,-0.37951895705759525,-1.0299883599042892,0.3335216143839061
1772648212635435300,1.445435302734375,-0.3557818153783679,-0.9650304423034191,0.3197251442216337
1772648212645476400,1.455476318359375,-0.4093663983106613,-0.872852509343624,0.16198051411285996
1772648212655516400,1.465516357421875,-0.47558396058380603,-0.7882593324244022,0.1351758015565574
1772648212665557500,1.4755576171875,-0.5560831461876631,-0.7556921108186244,0.13433905847147107
1772648212675597300,1.485597412109375,-0.6031973640620708,-0.7260644497960805,0.1781470744073391
1772648212685638400,1.495638427734375,-0.5783502153143286,-0.7657967407256364,0.19327011699825525
1772648212695678500,1.505678466796875,-0.5662281081050634,-0.9588608137577772,0.21510800092741847
1772648212705718300,1.51571826171875,-0.6045435179740191,-1.1150520769447088,0.23214067653194068
1772648212715759400,1.52575927734375,-0.5905877655968069,-1.2615098816245793,0.1946140789531171
1772648212725799400,1.53579931640625,-0.5980109013348818,-1.3299334295094012,0.2294432541415095
1772648212735840300,1.54584033203125,-0.7198132804468274,-1.26732762799263,0.30570275634899735
1772648212745880300,1.55588037109375,-0.9237661195009946,-1.1290542988121508,0.4258738809973001
1772648212755921400,1.56592138671875,-1.081653372950852,-1.0181354250252246,0.5006603880427778
1772648212765961500,1.57596142578125,-1.0879051268219948,-0.943802945357561,0.524497336834669
1772648212776002300,1.586002197265625,-0.9158999161705375,-0.9691051443964243,0.38889541882053014
1772648212786042400,1.59604248046875,-0.7820134237721562,-0.9723755443692207,0.27621508831903335
1772648212796083500,1.60608349609375,-0.9465686106786131,-0.9306780908465385,0.3290558671467006
1772648212806123500,1.61612353515625,-1.1745727719277144,-0.9054191464275121,0.3718665426082909
1772648212816164600,1.62616455078125,-1.1358724543944,-0.8475327746480703,0.29633886180669067
1772648212826204400,1.636204345703125,-1.0241115768253803,-0.6242687936633825,0.231076116040349
1772648212836245200,1.646245361328125,-1.081725853665173,-0.21778291922509668,0.25447671924158927
1772648212846285300,1.656285400390625,-1.2536983310908079,0.18966507824361323,0.28855039988756176
1772648212856326400,1.666326416015625,-1.3834043229341506,0.4255804510086775,0.06744257402345538
1772648212866366500,1.676366455078125,-1.3390510942056775,0.5219289476513862,-0.15900734352096915
1772648212876407300,1.6864072265625,-1.3686667725294828,0.2446878772854805,0.07382116914466023
1772648212886447400,1.696447265625,-1.9736030892133711,-0.09020283349454403,0.6183892341054975
1772648212896488400,1.706488525390625,-2.4305253116860985,-0.24351649541854856,0.8411381051748991
1772648212906528500,1.716528564453125,-2.3827660739064216,-0.5345440990746021,1.015805520772934
1772648212916569300,1.7265693359375,-2.4093776019781825,-0.9586813655376434,1.2045695585235952
1772648212926609400,1.736609375,-2.338426873703301,-1.237121874821186,1.3402825356967747
1772648212936650500,1.746650390625,-2.2579580832377073,-1.0965981363654136,1.2437187888681889
1772648212946690600,1.756690673828125,-1.2535437250509858,0.06245090321600437,0.6412424325570464
1772648212956731600,1.766731689453125,-0.22929507784247397,1.797468523672223,-0.010632014781981705
1772648212966771500,1.776771484375,-0.6558972731143236,3.3126807791650292,-0.20762539008706807
1772648212976812300,1.786812255859375,-0.5037748668015003,4.711656180718541,-0.19469123584255574
1772648212986852400,1.796852294921875,0.12044979545921086,5.433988458248972,-0.21929697704985737
1772648212996893400,1.8068935546875,0.23173282638341186,4.890255090546607,-0.17619652486145496
1772648213006933500,1.81693359375,0.1252916825324297,3.099433165282011,-0.6741214965909719
1772648213016974300,1.826974365234375,0.1570566478446126,1.344005209481716,-1.4632003287047146
1772648213027014400,1.837014404296875,0.09065613021999597,0.193082193210721,-1.8571940935775637
1772648213037055500,1.847055419921875,0.2531763041675091,-0.579440640899539,-2.047918617746234
1772648213047095600,1.857095458984375,0.610774521318078,-1.265012921309471,-2.1279241746142503
1772648213057135600,1.867135498046875,0.801866709755361,-1.6765373744368552,-2.155739817778766
1772648213067176700,1.8771767578125,1.1480845779746771,-1.7249989152669905,-1.9362876501671968
1772648213077216500,1.887216552734375,1.5912480319470166,-1.544911228185892,-1.4768084366880356
1772648213087257300,1.89725732421875,1.8409794563576578,-1.115129818356037,-0.9061740564480424
1772648213097297400,1.90729736328125,2.2261019325107334,-0.49283144798278805,-0.3463569844290614
1772648213107338500,1.91733837890625,2.4869606078743933,0.16941665546298026,0.1195237666554749
1772648213117378600,1.927378662109375,2.6307687748283146,0.6696446434378623,0.5272793687686324
1772648213127419400,1.93741943359375,2.655123463883996,1.0253285513997077,0.7382564073711633
1772648213137459500,1.94745947265625,2.484956866836548,1.2748065855711699,0.699579616843909
1772648213147500500,1.95750048828125,2.1043810942023993,1.356599902638793,0.49489437186196444
1772648213157540600,1.96754052734375,1.7852181139081715,1.198944996640086,-0.03660173781886696
1772648213167581400,1.97758154296875,1.5953285792589187,0.8684639189958572,-0.6626466012440622
1772648213177621200,1.987621337890625,1.319413496799767,0.37865970987975595,-1.0984193604432047
1772648213187662300,1.997662353515625,0.8929691224381328,-0.16818799045085905,-1.3864097883604467
1772648213197702400,2.007702392578125,0.6537596765637398,-0.636474195241928,-1.508310221019387
1772648213207743500,2.017743408203125,0.5428106998994946,-0.9843447991043328,-1.4884323851168155
1772648213217783600,2.027783447265625,0.6962994261294603,-1.3124690844893454,-1.3282837626062334
1772648213227824400,2.037824462890625,0.771155637410283,-1.551110667347908,-1.0903060504838824
1772648213237864400,2.047864501953125,0.7871358813524246,-1.5999503938406705,-0.8798813850671052
1772648213247905500,2.057905517578125,0.732583622431755,-1.4057307210326193,-0.5502588239483535
1772648213257945600,2.067945556640625,0.7825336482539772,-1.088257008999586,-0.20969635114222765
1772648213267986400,2.077986328125,0.7305027245044707,-0.7703501662462949,0.04881473818197846
1772648213278026500,2.088026611328125,0.777756058588624,-0.48180911870896814,0.1951122377336025
1772648213288067600,2.098067626953125,0.7653948819264769,-0.2192383787304163,0.25630656501725313
1772648213298107400,2.108107421875,0.7930231858253478,-0.0405073669552803,0.28489129285812376
1772648213308148500,2.1181484375,0.723676385615766,-0.038240591067075724,0.3571772152595222
1772648213318188500,2.1281884765625,0.6141106800034641,-0.12505085951387881,0.4555617477744818
1772648213328229400,2.1382294921875,0.41084406964778897,-0.27233634718954564,0.5754119699053466
1772648213338269400,2.14826953125,0.24470161354988812,-0.3689817809522152,0.6184812963031232
1772648213348310500,2.158310546875,0.11895517298728227,-0.3940244522720575,0.6543130726628005
1772648213358350600,2.1683505859375,0.020022505070269106,-0.4106833261281252,0.7490722542874515
1772648213368390700,2.178390625,0.004545826736092567,-0.4791816928148269,0.7502392522402107
1772648213378431500,2.188431396484375,-0.00788403124809265,-0.5733265419334173,0.7075456272870302
1772648213388471300,2.19847119140625,-0.04193769201934337,-0.6680044750154018,0.6864145764529704
1772648213398512400,2.208512451171875,-0.08327332649230956,-0.7818395285099744,0.6633806146070361
1772648213408552400,2.218552490234375,-0.1413265792712569,-0.866131092134118,0.677531451164931
1772648213418593300,2.22859326171875,-0.16586539272218942,-0.9616039749860763,0.6827114841513335
1772648213428633300,2.23863330078125,-0.18589257396757602,-0.9847563025146722,0.6643424453765153
1772648213438674400,2.24867431640625,-0.07831804217249154,-0.9329477893441915,0.7223859074138105
1772648213448714500,2.258714599609375,0.014295651856064795,-0.8205944988399744,0.8440092766970395
1772648213458755600,2.268755615234375,0.07347206344604491,-0.6854658974260092,1.0333879392147063
1772648213468795600,2.278795654296875,0.17208412110656499,-0.5899865848332643,1.2491954667136071
1772648213478836500,2.28883642578125,0.14882073441892862,-0.6794096661269664,1.4650832198418675
1772648213488876500,2.29887646484375,0.342353594006598,-0.4072942682117224,1.4836084720917044
1772648213498917600,2.308917724609375,0.5214022934287786,-0.1478518893867731,1.3342537769265472
1772648213508957400,2.31895751953125,0.46537703934609886,-0.2143833399146795,1.2778595434010027
1772648213518998300,2.328998291015625,0.3321148163259029,-0.24262743762433528,1.2126058577239514
1772648213529038300,2.339038330078125,0.045511166591942306,-0.4743015195578336,1.1907580369226634
1772648213539079400,2.349079345703125,0.006840367414057255,-0.6064741937756538,1.1512142543025314
1772648213549119500,2.359119384765625,0.14404606736302375,-0.4463356542676687,0.9991688587486743
1772648213559160600,2.36916064453125,0.11000497381240129,-0.6125795249134302,0.9963760131597519
1772648213569200600,2.37920068359375,0.0727455027371645,-0.8129501215666532,1.2456952035076916
1772648213579241500,2.389241455078125,-0.0032341596156358716,-0.7417758136689663,1.4837823673538864
1772648213589281500,2.399281494140625,-0.19292875621467828,-0.4559948784947395,1.6940025962397456
1772648213599322600,2.409322509765625,-0.15095160896778106,-0.16136545095443725,1.7916446398243306
1772648213609362400,2.419362548828125,-0.1512204890370369,0.18585984074175357,1.8266491715796291
1772648213619403300,2.4294033203125,-0.23592472511529922,0.37275954592525956,1.9683317246817051
1772648213629443300,2.439443359375,-0.3236982856363058,0.44059623383283614,2.1886234118573364
1772648213639484400,2.449484375,-0.3155541421473026,0.5169985055118799,2.353732579384744
1772648213649524500,2.4595244140625,-0.07561375164985656,1.004974914678931,2.2390571295432746
1772648213659565600,2.469565673828125,-0.3921048823863268,1.592513521838188,1.7069459567040204
1772648213669605400,2.47960546875,-0.47584085795432324,2.0007342572450635,1.2355389895439146
1772648213679645400,2.4896455078125,-0.21122852914556858,2.0158552540093657,1.3561460213914514
1772648213689686500,2.4996865234375,-0.40494770508557554,1.7861854976356029,1.2260751417584717
1772648213699726600,2.5097265625,-0.5180949224464595,1.4374819500803946,0.9947760306172072
1772648213709767700,2.519767578125,-0.4375460524819791,0.9546762215495109,0.9793350081183015
1772648213719807500,2.529807373046875,-0.24582871788367627,0.7319575994879007,1.031723220872879
1772648213729848300,2.539848388671875,-0.04464914293512702,0.8023655991882085,0.9662870182357728
1772648213739888400,2.549888427734375,0.11341317482069134,0.9453916758537292,0.6872086494401097
1772648213749929500,2.559929443359375,0.25547698232531546,1.0723048221081495,0.1859614014200866
1772648213759969500,2.569969482421875,0.47414282186478374,1.1245604945242405,-0.19913199476897717
1772648213770010400,2.58001025390625,0.755497172768414,0.9490852696746587,-0.4508870339617133
1772648213780050400,2.590050537109375,0.9856903684943914,0.6676075846523046,-0.8301464633002876
1772648213790091500,2.600091552734375,1.1510264766454696,0.33045243607163427,-1.27264750784114
1772648213800131600,2.610131591796875,1.2140591252721846,0.05864274310469627,-1.671361579234153
1772648213810172700,2.620172607421875,1.1948125730104744,-0.05284077882766723,-2.087339504639059
1772648213820212500,2.63021240234375,1.1414920478418469,-0.06649637921452523,-2.4661662416487933
1772648213830253300,2.64025341796875,0.9567309621222316,-0.01179272912442684,-2.7836323548972604
1772648213840293400,2.65029345703125,0.5866508645392954,0.05053834710419178,-2.944924740615487
1772648213850334500,2.66033447265625,0.19982655290439724,0.13693185144364833,-3.03887786655426
1772648213860374500,2.67037451171875,-0.029052491483092305,0.21278642611205575,-2.906039421904087
1772648213870415400,2.680415283203125,-0.08499035954326391,0.3184171303629875,-2.633029705497622
1772648213880454700,2.69045458984375,-0.09394362745806574,0.5383680412769317,-2.3082743120238183
1772648213890495700,2.700495849609375,-0.18917291081249712,0.8909528141796589,-1.8391772292412816
1772648213900535800,2.710535888671875,-0.11204378616362809,1.2637211279332636,-1.316795861647278
1772648213910577000,2.720576904296875,-0.09619535190761089,1.4258581477820873,-0.7643418657422065
1772648213920616700,2.73061669921875,-0.09832052736803888,1.4261258588075636,-0.3812308755420148
1772648213930657500,2.740657470703125,-0.010347791013121605,1.3391349730968474,-0.2701877908535302
1772648213940697600,2.750697509765625,-0.011661503960192204,1.166205341076851,-0.2450295303300023
1772648213950738700,2.76073876953125,0.029517770907282827,0.8815367510586977,-0.43773587596565483
1772648213960778800,2.77077880859375,0.1239160102650523,0.4903460609078407,-0.544671233074367
1772648213970818800,2.78081884765625,0.10666764608323573,0.0027507600128650663,-0.6372274978272616
1772648213980859600,2.790859619140625,0.09448124146610498,-0.4176180938273668,-0.713385293225944
1772648213990899700,2.800899658203125,0.15094342566132546,-0.7620756743758916,-0.7644470796823502
1772648214000940800,2.81094091796875,0.15459727199375628,-1.0558511154353618,-0.8080790083989501
1772648214010980900,2.82098095703125,-0.006322773280739784,-1.3154174129009246,-0.6832981979981064
1772648214021022000,2.83102197265625,-0.15826836172193287,-1.4681214184939861,-0.525727317021042
1772648214031061800,2.841061767578125,-0.3711149935886264,-1.519616043409705,-0.42996772618219253
1772648214041102600,2.8511025390625,-0.45337329781949515,-1.4178478598058224,-0.35615210999548436
1772648214051142700,2.861142578125,-0.3067503657057881,-1.1840700835913418,-0.11738558558300137
1772648214061183700,2.871183837890625,-0.3283443578764796,-0.8924912757933139,-0.08532704415172337
1772648214071223800,2.881223876953125,-0.25928660374134777,-0.59577627415061,0.2536247785873711
1772648214081264600,2.8912646484375,-0.45511751113831994,-0.4494897343844175,0.16883286422565577
1772648214091304700,2.9013046875,-0.435697063614428,-0.6273597454160451,-0.041055063965916634
1772648214101345800,2.911345703125,-0.30165362708866594,-0.8372808452248572,-0.22772651335150002
1772648214111385900,2.9213857421875,-0.293281520062685,-0.9783218855530023,-0.3623898353412747
1772648214121427000,2.931427001953125,-0.31216829910129307,-1.2250175955295561,-0.43373613880500195
1772648214131466800,2.941466796875,-0.2809916550710797,-1.5599802025020122,-0.5131242944270372
1772648214141507600,2.951507568359375,-0.37684097001999617,-1.689904221010208,-0.46548678333088755
1772648214151547600,2.961547607421875,-0.483273346042633,-1.6956027249127625,-0.33448256837055085
1772648214161588700,2.971588623046875,-0.5570569596558809,-1.7525258046180008,-0.2697244111254811
1772648214171628800,2.98162890625,-0.6026046588659286,-1.6660446219950913,-0.17669950594753026
1772648214181669600,2.991669677734375,-0.6906944457292556,-1.4739584540843962,-0.1055339658781886
1772648214191709700,3.001709716796875,-0.7334989837110042,-1.250202890190482,-0.08230667341724038
1772648214201750800,3.011750732421875,-0.9068091394811868,-1.0482762962669134,-0.03655307637155056
1772648214211790800,3.021790771484375,-1.0451365369364618,-0.8788917895078658,-0.02956307135373354
1772648214221831700,3.031831787109375,-1.1592182586684823,-0.7566407898455858,0.015110475370287894
1772648214231871700,3.041871826171875,-1.160100886721909,-0.5317962616711854,0.09166793761104344
1772648214241912800,3.051912841796875,-0.9981503293558954,-0.294152457678318,0.32526290460452434
1772648214251952600,3.06195263671875,-1.0192214666962622,-0.21375907053649423,0.6671911128059029
1772648214261993700,3.07199365234375,-1.098335627682507,-0.14731938994526864,0.95767584175691
1772648214272033800,3.08203369140625,-1.075168394845724,0.05519406395554542,1.1609015355803072
1772648214282073900,3.092073974609375,-1.0527329834148287,0.16352350577116012,1.201025456175953
1772648214292114700,3.10211474609375,-1.125669332548976,0.21118717422187328,1.0809555999450384
1772648214302155800,3.11215576171875,-1.1957909165233374,0.15511808099746704,0.8534282624274492
1772648214312195800,3.12219580078125,-1.4816101378813384,0.042667759859561914,0.6622745530612766
1772648214322236000,3.13223583984375,-1.7402131432726977,-0.10569792426824569,0.39181729761660095
1772648214332276700,3.14227685546875,-1.8447265339314936,-0.32794425264298915,0.18743001266792417
1772648214342316500,3.152316650390625,-1.985153241753578,-0.4067605997264385,0.06455167488753795
1772648214352357600,3.162357666015625,-2.063445857223868,-0.022304770788550376,-0.22302096600905058
1772648214362397700,3.172397705078125,-1.1682412308186292,1.1758236487716436,-0.7248271630860865
1772648214372438800,3.182438720703125,-0.6230477274358273,2.456781742709875,-1.0217384179532527
1772648214382478600,3.192478515625,-1.2117755443796514,3.6596330991387367,-0.3518596734985709
1772648214392519700,3.202519775390625,-1.372245507799089,4.687998826277256,0.5802843982473015
1772648214402559700,3.212559814453125,-1.1058271524816752,4.632151266849041,1.0213105479300022
1772648214412600800,3.222600830078125,-0.5524497581213712,3.744451316985488,0.4402678786613047
1772648214422641000,3.232640869140625,-0.14993687896728514,2.611129423856735,-0.5324103019163012
1772648214432681700,3.242681640625,-0.24320582203418015,1.4787877739369868,-0.9994697413913906
1772648214442721800,3.2527216796875,-0.0034086393997073174,0.5808376482158899,-1.2995252856336532
1772648214452763000,3.262762939453125,0.5618225666224956,-0.09452595739066601,-1.7005473417080939
1772648214462802700,3.272802734375,0.9709358669549226,-0.6454290705919266,-1.856558279892057
1772648214472843500,3.282843505859375,1.2711182524472475,-0.9826245511829852,-1.6737676174625753
1772648214482883600,3.292883544921875,1.5501286705732344,-1.021918450695276,-1.3401594938389956
1772648214492924700,3.302924560546875,2.1480328966632483,-0.9163286629766225,-1.016373968310654
1772648214502964700,3.31296484375,2.550658296281099,-0.8035860808938741,-0.7897332043692469
1772648214513005800,3.323005859375,2.59034382545948,-0.5397089344918727,-0.6119776134975254
1772648214523046000,3.3330458984375,2.5876421652853487,-0.1495546016514301,-0.39165348535701633
1772648214533086700,3.343086669921875,2.6668536491662262,0.17708032195866108,-0.24640593324974178
1772648214543126800,3.353126708984375,2.610416014890373,0.35212066252231594,-0.31174758947119113
1772648214553168000,3.36316796875,2.4091116445183753,0.47670682713389395,-0.5407216186657547
1772648214563207700,3.373207763671875,2.0276240177363154,0.6075006142139434,-0.9399931778110563
1772648214573248500,3.38324853515625,1.5885352658569811,0.6535574319899082,-1.2997038570709525
1772648214583288600,3.39328857421875,1.1076672273904085,0.5928922431468964,-1.5374961296238003
1772648214593329700,3.40332958984375,0.8492156131684779,0.39373569845855233,-1.6750333996146916
1772648214603369700,3.41336962890625,0.657013709923625,0.008399579554796218,-1.668325280278176
1772648214613409800,3.423409912109375,0.607201046745479,-0.3858873230457306,-1.5477109419070183
1772648214623451000,3.433450927734375,0.6513251428931951,-0.6769166802674531,-1.2871652780152856
1772648214633490700,3.44349072265625,0.7204404724344611,-0.9191337835252285,-0.9050837769933044
1772648214643531800,3.45353173828125,0.7539785848990083,-1.0450094034254551,-0.5364096006855368
1772648214653571800,3.46357177734375,0.7691261774092912,-1.0349842684954405,-0.24011443189010023
1772648214663613000,3.473613037109375,0.8186214452013373,-0.97420451336205,0.07204115386009216
1772648214673652700,3.48365283203125,0.8763619787693023,-0.8818354417443275,0.30961817622706295
1772648214683693600,3.493693603515625,0.8683274331346154,-0.7117647062867879,0.4504027575761079
1772648214693733600,3.503733642578125,0.8968968172758817,-0.5705436332166195,0.5205402697719633
1772648214703774700,3.513774658203125,0.9021487464547157,-0.5026502466857433,0.5311886511668562
1772648214713814800,3.523814697265625,0.7446995921611785,-0.44718438005149364,0.4890890465840697
1772648214723855600,3.533855712890625,0.5208692094653844,-0.31281331900656223,0.44160614152774214
1772648214733895700,3.543895751953125,0.39424481702446934,-0.196760004940629,0.3915948870375752
1772648214743936800,3.553936767578125,0.3061629212066531,-0.20786708988845348,0.2498645492710173
1772648214753976800,3.563976806640625,0.23141484647542238,-0.2815793918311596,0.11098214828148484
1772648214764018000,3.574017822265625,0.12717355075627565,-0.4151303686648607,0.05627820593044162
1772648214774057700,3.5840576171875,0.04900397714376449,-0.5145423445314169,0.11155658716857432
1772648214784098600,3.5940986328125,0.05289601614624261,-0.5881921026319265,0.17243030419573188
1772648214794138600,3.604138671875,0.027586802844703197,-0.6507242543905973,0.23215178244784473
1772648214804179700,3.6141796875,0.01647299589514732,-0.6730202573508024,0.31263036365509034
1772648214814219800,3.6242197265625,-0.014840133996307849,-0.6656663874566555,0.40892128489166496
1772648214824260600,3.634260498046875,-0.04024988506287336,-0.6576566840022802,0.5376148848220705
1772648214834300700,3.64430078125,-0.08125877179950475,-0.6966115608185529,0.6465814554974436
1772648214844341800,3.654341796875,-0.07874152828156948,-0.7384954768240451,0.6807318546414375
1772648214854381800,3.6643818359375,-0.03197393188774585,-0.7377303376704454,0.7151882509946823
1772648214864423000,3.6744228515625,0.02777209628373384,-0.7148503973424434,0.7772082154475152
1772648214874462700,3.684462646484375,0.06004296529144049,-0.6388286494135856,0.8456807170405983
1772648214884503800,3.69450390625,0.03925473654568195,-0.5280284335702657,0.980994904154539
1772648214894544000,3.7045439453125,-0.05919423950761556,-0.4173837005496025,1.0236043579556047
1772648214904584000,3.714583984375,-0.010040917021036147,-0.20896716008484362,0.9223905933640897
1772648214914625000,3.724625,0.06287234349846839,-0.015303367593884468,0.8347970655851066
1772648214924665900,3.734665771484375,0.2599287010371685,0.06958733096718787,0.7619055785059928
1772648214934705700,3.74470556640625,0.2660606279209256,-0.03232289145588874,0.8177299031890928
1772648214944745700,3.754745849609375,0.24254969621300695,-0.27437691310644147,0.8441060150697827
1772648214954786800,3.764786865234375,0.3292348769754171,0.050970308780670166,0.564793837518245
1772648214964827000,3.774826904296875,0.17318506808578968,-0.18932839363515375,0.464436835886538
1772648214974867700,3.78486767578125,0.22616467086225747,-0.3662707684278488,0.3900630012951791
1772648214984907800,3.79490771484375,0.2037304284751415,-0.31162849313616753,0.3602192133039236
1772648214994948900,3.804948974609375,0.06992050844430923,-0.17513854024112224,0.4062050116702914
1772648215004989000,3.814989013671875,-0.10768471417129039,0.0790630153208971,0.5873977373838425
1772648215015030000,3.825030029296875,-0.1608952030941844,0.3896346928805113,0.7667055261336266
1772648215025070000,3.835070068359375,-0.20740385629087685,0.5908224511355161,1.0399236245937644
1772648215035111000,3.84511083984375,-0.2823094596713781,0.6149544373512268,1.4069178849905728
1772648215045150700,3.855150634765625,-0.3074327950119972,0.547110735180974,1.706163574154675
1772648215055191800,3.86519189453125,-0.31953561299890276,0.3221358586251736,2.02388176246807
1772648215065232000,3.87523193359375,-0.2827893521428108,0.26978549366295335,2.2391025761201977
1772648215075272700,3.885272705078125,-0.18572934622988105,0.2543810037821531,2.4084518654353917
1772648215085312800,3.895312744140625,-0.17440905692279338,0.43083413375318047,2.347752189800888
1772648215095353900,3.905353759765625,-0.33191885536238547,0.6783358994156122,2.100216960260272
1772648215105394000,3.915393798828125,-0.2593259128384292,0.9152063809484243,2.1478398583091796
1772648215115435000,3.92543505859375,-0.364530354501307,0.9651526073783635,2.047969617281109
1772648215125474800,3.935474853515625,-0.33004443979263304,0.9774959561228752,1.724333583226055
1772648215135516000,3.945515869140625,-0.015502689558267592,0.8098959946930409,1.6089401943735777
1772648215145555700,3.9555556640625,0.3045169075652957,0.5999503449648619,1.5813430162653326
1772648215155597000,3.96559716796875,0.39625937171727416,0.6218740074813366,1.4032527866117654
1772648215165636900,3.975636962890625,0.4572098072424531,0.8499614630997181,0.9536002628810704
1772648215175677700,3.985677734375,0.47782969368398187,1.1206781001329422,0.33260581471323963
1772648215185717800,3.9957177734375,0.41852760988771914,1.3803443508416413,-0.326279972692579
1772648215195758800,4.0057587890625,0.7999471398696303,1.5390566569387911,-0.93404172206074
1772648215205799000,4.015798828125,1.1551439949668942,1.4669845234185457,-1.3276982178032397
1772648215215839700,4.02583984375,1.220678105020523,1.2650497461885213,-1.7266984126612543
1772648215225879800,4.0358798828125,1.1313380258351564,1.070123386415839,-2.185226462895423
1772648215235921000,4.0459208984375,1.0377984491333365,0.927105493056774,-2.582164026135206
1772648215245961000,4.0559609375,0.9827747733086347,0.6775999863564968,-2.8215070352613925
1772648215256002000,4.066001953125,0.7887213969781994,0.37909167155623436,-2.939567889757454
1772648215266041900,4.076041748046875,0.5355693504691124,0.14921090278029442,-2.9222689644321798
1772648215276082000,4.08608203125,0.2707300810366869,0.06898527342081069,-2.7646523446172475
1772648215286122800,4.096122802734375,0.15928016911298035,-0.10512333925068378,-2.4859508463099598
1772648215296162800,4.106162841796875,0.11136164911836385,-0.2908709517896175,-2.213873296187073
1772648215306204000,4.116203857421875,0.018502455896139143,-0.32636370545327664,-1.7770805462904273
1772648215316244000,4.126243896484375,-0.053362172353267665,-0.04255611617863178,-1.277062109412998
1772648215326284800,4.136284912109375,-0.20692834773361682,0.23202479506731033,-0.7175530804298818
1772648215336324900,4.146324951171875,-0.22408552650064228,0.4456646231383085,-0.2933205368988216
1772648215346366000,4.156365966796875,-0.16760259177833794,0.64898471724689,-0.09236848709583281
1772648215356405800,4.16640576171875,-0.17114537895172832,0.7944634477615355,0.06974924353063106
1772648215366446800,4.17644677734375,-0.1452183260127902,0.8511965578526258,0.062337944360822434
1772648215376486700,4.186486572265625,-0.11469839232563972,0.7393500478267669,-0.11828925642445683
1772648215386527700,4.19652783203125,-0.11371756459474563,0.5411480273842811,-0.2813135805018246
1772648215396567800,4.20656787109375,0.050375557757914066,0.27094518509209153,-0.41715544475167987
1772648215406609000,4.21660888671875,0.27945874641537666,-0.07745031942725181,-0.45294396649152036
1772648215416649000,4.22664892578125,0.3278846314102411,-0.559251839351654,-0.5313600622110068
1772648215426689800,4.236689697265625,0.33013942459970713,-0.9595984803825617,-0.5997720657885074
1772648215436729900,4.246729736328125,0.32667642466425895,-1.241567748314142,-0.6386224593169987
1772648215446771000,4.25677099609375,0.3693035602524876,-1.353102708172798,-0.6309753055647015
1772648215456811000,4.26681103515625,0.31348522691875697,-1.4045745367348192,-0.4525675343945622
1772648215466851800,4.276851806640625,0.1689133821159601,-1.342213065367937,-0.25390286487638947
1772648215476891600,4.2868916015625,0.11634528274983166,-1.1070125628739595,-0.18651918143332002
1772648215486932700,4.2969326171875,-0.009593173253536223,-0.8047498639762402,-0.07225099721848964
1772648215496972800,4.306972900390625,-0.11328852552771568,-0.5425345133066177,-0.006670563805103302
1772648215507014000,4.317013916015625,-0.17500146985799073,-0.464451741194725,-0.07795841507986187
1772648215517054000,4.327053955078125,-0.22583120112419128,-0.49259062496423717,-0.19373378898724913
1772648215527094800,4.3370947265625,-0.05087181684225797,-0.5814999115169048,-0.4251635407708585
1772648215537134800,4.347134765625,0.03390957612544298,-0.7319014853864908,-0.5527274060189724
1772648215547176000,4.357176025390625,0.09590981296449899,-1.0041834720402956,-0.9352256711483001
1772648215557216000,4.367216064453125,0.10898615215867757,-1.2275047361701725,-0.9638409402579069
1772648215567256800,4.3772568359375,-0.06514817947596312,-1.3558330099195242,-0.8523033500507473
1772648215577296600,4.387296630859375,-0.09650631755292415,-1.4042939662277698,-0.8455850015811621
1772648215587338000,4.397337890625,-0.0667939008563757,-1.3560586353689432,-0.793470345070958
1772648215597377800,4.407377685546875,-0.1645744761288166,-1.2229472189962862,-0.7724455310903489
1772648215607419000,4.4174189453125,-0.27318331940770146,-0.9874860197395086,-0.7249326692871749
1772648215617459000,4.427458984375,-0.30670594204217194,-0.6762438955724239,-0.6238787714324892
1772648215627498800,4.437498779296875,-0.42979514609426256,-0.46931847044825553,-0.5119305545978248
1772648215637539800,4.447539794921875,-0.5976788929015397,-0.28711364508271214,-0.5412940117262304
1772648215647580000,4.457579833984375,-0.616960808737576,-0.05405541531443596,-0.6147720665216445
1772648215657621000,4.46762109375,-0.7192407412558793,-0.10037468341886997,-0.3844418004125357
1772648215667661000,4.4776611328125,-0.7334104286447167,-0.30071663849949837,-0.1812378800295293
1772648215677702000,4.487701904296875,-0.6156941498026252,-0.38637949047684667,-0.0018991116195917128
1772648215687741700,4.49774169921875,-0.5192065369501709,-0.41145664858818054,0.17813479944765567
1772648215697782800,4.50778271484375,-0.6779308257460593,-0.4479641322523355,0.41664077322781085
1772648215707822800,4.51782275390625,-0.9118123545959591,-0.37458851491808887,0.6133984400808811
1772648215717863700,4.52786376953125,-1.0298770084843039,-0.19245675478875635,0.6813916337244212
1772648215727903700,4.53790380859375,-1.0780404431506991,-0.15199322697520254,0.6903117300219833
1772648215737944800,4.54794482421875,-1.3129516073092817,-0.14299100535213946,0.7007809554576874
1772648215747985000,4.55798486328125,-1.64577457190454,-0.11210077704787254,0.6646468351505697
1772648215758026000,4.56802587890625,-1.7701286813259123,-0.2103057152122259,0.6540110209763049
1772648215768066000,4.578066162109375,-1.7559464267164469,-0.4543395125031471,0.6303660876251757
1772648215778107000,4.58810693359375,-1.7371756752729415,-0.7030728657871484,0.604035130060464
1772648215788146700,4.598146728515625,-1.76575967246145,-0.9222183055371046,0.6810632785528898
1772648215798188000,4.60818798828125,-1.7914432720333338,-1.0757955868333577,0.7983247993648052
1772648215808227800,4.618227783203125,-1.7825825047075747,-1.1420365299820898,0.8148449954025447
1772648215818268700,4.6282685546875,-1.7974112405270337,-1.0992927822768688,0.7173198561958968
1772648215828308700,4.638308837890625,-1.810158201636374,-0.7615601260691881,0.4486822173938155
1772648215838349800,4.648349853515625,-1.4444295772612095,0.17693243792057037,-0.15743234928920863
1772648215848390000,4.658389892578125,-0.763108232294023,1.4931471386790274,-0.8619093827858567
1772648215858431000,4.668430908203125,-0.8455196812599897,2.6586229964375496,-1.1953778056778013
1772648215868470800,4.678470703125,-1.1825602635502814,3.7703310236513614,-1.0989781633697449
1772648215878511900,4.688511962890625,-0.9946528426289558,4.339709120219946,-0.5550241386540233
1772648215888552200,4.69855224609375,-0.7605363359794021,3.7804239631205796,-0.023010727100819348
1772648215898593300,4.70859326171875,-0.39493279928863045,2.7659751176536083,-0.048223786551505325
1772648215908633300,4.71863330078125,0.05919394724667072,1.6379145060539244,-0.4718782379336655
1772648215918674200,4.728674072265625,0.0693538144722581,0.5772708956450223,-0.7560131594665348
1772648215928714000,4.7387138671875,0.22304069362282752,-0.15561550912559033,-0.9708478964105248
1772648215938755000,4.748755126953125,0.1330687462747097,-0.47262861790955063,-1.014052247364819
1772648215948795100,4.758795166015625,-0.08119652021825313,-0.3901724530190229,-1.0211924745082854
1772648215958836000,4.7688359375,0.11871230414211749,-0.15220365485548973,-1.0454027866572142
1772648215968876000,4.7788759765625,0.7742585718616842,-0.11854045470654964,-1.0582498471401631
1772648215978916000,4.788916015625,1.2628767860636114,-0.306838336250186,-1.1471877752654254
1772648215988957200,4.798957275390625,1.5580004268616436,-0.5176122534960508,-1.2921769686974585
1772648215998997200,4.808997314453125,1.8138970959037541,-0.5594722041040658,-1.3566130543813109
1772648216009038300,4.819038330078125,1.964565796276927,-0.5531657974362373,-1.2411280417226254
1772648216019078100,4.829078125,1.993891259482503,-0.5021171627223492,-1.0725248945996164
1772648216029119200,4.839119140625,2.130331528016925,-0.33276305110156534,-0.8608115045465529
1772648216039159000,4.849158935546875,2.0897323911249637,-0.11828560316264629,-0.6615498920485376
1772648216049200000,4.8592001953125,1.9948928377404809,0.1868172875970602,-0.43785219582170243
1772648216059240200,4.869240234375,1.8500272706881165,0.487891068971157,-0.24859862098842858
1772648216069281000,4.879281005859375,1.724474306870997,0.6201420691221952,-0.2537903444126248
1772648216079321000,4.889321044921875,1.546599035142362,0.5608733030736446,-0.41338951634690163
1772648216089362200,4.899362060546875,1.415718446561694,0.39949966881275173,-0.6022431320771575
1772648216099402200,4.90940234375,1.191673544332385,0.254260007750988,-0.5942692305885255
1772648216109443000,4.919443115234375,0.9814595990568399,0.06595803455412387,-0.46960722426176066
1772648216119483100,4.929483154296875,0.8085773133099079,-0.16065408781468868,-0.32691885511800645
1772648216129524200,4.939524169921875,0.5985431085154413,-0.40159401074349876,-0.14980594606399536
1772648216139564000,4.94956396484375,0.531875464387238,-0.6053074880838394,0.07157718961015343
1772648216149605000,4.959605224609375,0.5059840672835707,-0.6825105547517538,0.2482489307679236
1772648216159645200,4.969645263671875,0.6041255848228931,-0.7632306896299124,0.36075419696345923
1772648216169686000,4.97968603515625,0.751118227031827,-0.8677244988054037,0.3894323021762073
1772648216179726000,4.98972607421875,0.7663283633843064,-0.8872866928875446,0.3077985595844686
1772648216189767200,4.99976708984375,0.7153142154619098,-0.7362450675487517,0.24707944859713316
1772648216199807200,5.00980712890625,0.6046785425305367,-0.5745464391171932,0.2354042083725333
1772648216209848000,5.01984814453125,0.5628977946385741,-0.4513678032159805,0.17214067359939217
1772648216219888000,5.02988818359375,0.530168952730298,-0.38216976382732387,0.12934344214126467
1772648216229929200,5.03992919921875,0.4688566981554031,-0.35967619246840477,0.09826163678765297
1772648216239969300,5.04996923828125,0.4645961181014776,-0.30541736353635784,0.05550020729526877
1772648216250010400,5.06001025390625,0.49768064157962794,-0.3356044120073318,0.008102934695780276
1772648216260050200,5.07005029296875,0.41533524358719587,-0.4393903651744127,-0.06206774911731481
1772648216270091000,5.080091064453125,0.4609630222961306,-0.49431496453881263,-0.13501973421201108
1772648216280131000,5.090131103515625,0.42052755153328175,-0.4844079030305147,-0.07910875415876507
1772648216290172200,5.100172119140625,0.26856705778390166,-0.44717035152614115,0.051981385519355536
1772648216300212200,5.110212158203125,0.1775754119992256,-0.4119540767163038,0.15737579679638147
1772648216310252300,5.120252197265625,0.061795361916720866,-0.40419688671827314,0.37692455665022134
1772648216320293000,5.130293212890625,-0.0969946855917573,-0.41833939383924007,0.6568412759661674
1772648216330333200,5.140333251953125,-0.13328385033011436,-0.4851432315677404,0.8343963758297264
1772648216340374300,5.150374267578125,-0.07132160741388797,-0.5956061782807112,0.9149293175727129
1772648216350414000,5.1604140625,-0.09223083219081163,-0.7074532728284597,0.9501521682538091
1772648216360455000,5.170454833984375,-0.10657996779978275,-0.7524936070382595,0.9341345149107276
1772648216370495000,5.180494873046875,-0.0794376938521862,-0.777787622770667,0.9422972169697285
1772648216380536000,5.1905361328125,-0.06340922685414552,-0.816506937265396,0.9595002807050943
1772648216390576000,5.200576171875,-0.08886427836716175,-0.7610065838396549,0.9873844590611756
1772648216400617200,5.2106171875,-0.09432371281683444,-0.6826134306043387,0.9876346344299614
1772648216410657300,5.2206572265625,-0.010656418570876122,-0.5880389578968286,0.8528859722442924
1772648216420698000,5.230697998046875,0.13755904343128203,-0.5039706816345453,0.6624428953655064
1772648216430738200,5.24073828125,0.25965514479279517,-0.4728770397126674,0.6013480829335749
1772648216440779300,5.250779296875,0.2278162374615669,-0.3266606425732374,0.6594919366054236
1772648216450819300,5.2608193359375,0.13717793515920637,-0.12551847702562807,0.7164972877666353
1772648216460860200,5.270860107421875,0.06342530120611191,0.06422492715120315,0.706180768674612
1772648216470900000,5.28089990234375,-0.040753450670838354,0.2634393395066261,0.6600501550100744
1772648216480941000,5.290941162109375,-0.18309008376747368,0.3456529278129339,0.6541271947018802
1772648216490981000,5.300981201171875,-0.37879824156761166,0.26841654339730736,0.7684411177545786
1772648216501022200,5.311022216796875,-0.4478334916099906,0.17282792521119117,0.9498074464693665
1772648216511062300,5.321062255859375,-0.500141332604736,0.1348030227214098,1.0375753079019487
1772648216521103000,5.33110302734375,-0.5594304107889533,0.16592705978155134,1.163643966156244
1772648216531143200,5.34114306640625,-0.5728089478000998,0.18256313728392123,1.391431415914744
1772648216541184300,5.351184326171875,-0.6980506537109613,0.16407997061014173,1.6359114956684409
1772648216551224300,5.361224365234375,-0.7178676993370056,0.16356617586910724,1.961488580788672
1772648216561265200,5.37126513671875,-0.48642976424694057,0.33500176993906494,2.2942992704242466
1772648216571305000,5.381304931640625,-0.5259332148566842,0.7985428260296583,2.2950502349220216
1772648216581346000,5.391345947265625,-0.621856471824646,1.4072224208950996,2.037874778115749
1772648216591386000,5.40138623046875,-0.5510381377577781,1.7958523206472397,2.241263115154952
1772648216601427200,5.41142724609375,-0.6520784454785287,1.985033999288082,2.2390993612498042
1772648216611467000,5.421467041015625,-0.5766540789209306,1.9161311434537172,2.042179489572346
1772648216621508000,5.431508056640625,-0.23183482545316217,1.6977946819990872,2.0207846732355654
1772648216631548200,5.441548095703125,0.035152123532444235,1.5812626445055007,1.9960779558718202
1772648216641589200,5.45158935546875,0.1387077750749886,1.6199270139425992,1.7206893815048039
1772648216651629300,5.46162939453125,0.3290519216239452,1.7020301276117562,1.2857616948276758
1772648216661670100,5.471670166015625,0.5990276771619916,1.6262082861691713,0.8756474007591605
1772648216671710200,5.481710205078125,0.9019371495306492,1.2659849812120199,0.4935660458676517
1772648216681751300,5.491751220703125,1.1310302750602363,0.6949164473384618,0.025411796893179416
1772648216691791000,5.501791015625,1.2998676693305373,0.09358253906071186,-0.5623657335884868
1772648216701831200,5.5118310546875,1.4313836332052945,-0.3358312065005302,-1.187528553482145
1772648216711872000,5.5218720703125,1.370781280465424,-0.5585480749964714,-1.6988243173077702
1772648216721912000,5.531912109375,1.1937000817239283,-0.6056500179111958,-2.0828724422276017
1772648216731953200,5.541953125,1.0038783516138792,-0.6096516547679901,-2.3895105797305702
1772648216741993200,5.5519931640625,0.7699830864995717,-0.47115854535698887,-2.594834707137942
1772648216752034300,5.562034423828125,0.6228346692070365,-0.22927403505444524,-2.646044377632439
1772648216762074000,5.57207421875,0.4775529225692153,0.0024789573341608044,-2.4630823041588066
1772648216772115200,5.582115234375,0.42632016346007584,0.15524258415997028,-2.1332835096903144
1772648216782155000,5.592155029296875,0.4070253881424665,0.36529637043774127,-1.662216295878589
1772648216792196000,5.602196044921875,0.32569296658486124,0.6080383743524551,-1.0870762747824192
1772648216802236200,5.612236083984375,0.23262743713557718,0.8666863879293203,-0.5931963406600058
1772648216812277000,5.622277099609375,0.2852817534804344,1.032377885389328,-0.24404753355532882
1772648216822317000,5.632317138671875,0.36680151430368424,1.0347755941808223,-0.04715981058180332
1772648216832358100,5.642358154296875,0.36264381010234353,0.9448311193615198,-0.12143179223388433
1772648216842398200,5.652398193359375,0.3848112182468176,0.8160042484402656,-0.4685391566388309
1772648216852439000,5.66243896484375,0.3728551152542233,0.675208707305789,-0.6654160659573972
1772648216862479000,5.67247900390625,0.3263283418789506,0.500968577209115,-0.8492707043565809
1772648216872520200,5.682520263671875,0.33053836078941823,0.22973931447863577,-0.9972492888629436
1772648216882559700,5.692559814453125,0.34038024810701606,-0.08238894487321376,-1.088085744085908
1772648216892600800,5.702600830078125,0.3778285197526216,-0.34326749398112294,-1.1186584308736025
1772648216902641000,5.712640869140625,0.44548196004778146,-0.6145546243786811,-1.110756425577402
1772648216912681700,5.722681640625,0.5167404390975833,-0.8992565321445465,-1.0953440446510911
1772648216922721800,5.7327216796875,0.5159849445551633,-1.061608071526885,-0.8789528720453381
1772648216932763000,5.742762939453125,0.41481589588820933,-1.0985749893963337,-0.6199743113398551
1772648216942802700,5.752802734375,0.27951427599489687,-1.03226215005517,-0.36237507616356013
1772648216952843800,5.76284375,0.20354338147044182,-0.7870756755977869,-0.2840342376373708
1772648216962883600,5.772883544921875,0.17434417499303817,-0.5046557412892579,-0.19809782941564916
1772648216972924700,5.782924560546875,0.04767915828078985,-0.19879940181374547,-0.1247355099543929
1772648216982964700,5.79296484375,-0.11195698466300964,0.06668342621922492,-0.13073182775974274
1772648216993005800,5.803005859375,0.03110971627384424,-0.04965747261643409,-0.41557095203921196
1772648217003046000,5.8130458984375,0.1048696567505598,-0.30043840608000755,-0.3583659866526723
1772648217013086700,5.823086669921875,-0.017229659481346606,-0.6885398980438708,-0.2901755168713629
1772648217023126800,5.833126708984375,-0.0672206018358469,-0.9655781393140553,-0.4673439555048942
1772648217033168000,5.84316796875,-0.013902268624305724,-1.1836211707800626,-0.5933781269676983
1772648217043208000,5.8532080078125,0.12220716052055358,-1.3249322602212428,-0.6667556439980864
1772648217053248800,5.863248779296875,0.2734235579043627,-1.5228151317119598,-0.5780002328328788
1772648217063288600,5.87328857421875,0.33689328277409075,-1.679544155037403,-0.45246232045441864
1772648217073329700,5.88332958984375,0.06288228037059307,-1.5447995845049618,-0.39912762062996626
1772648217083369700,5.89336962890625,-0.1658057714894414,-1.3162135317146777,-0.5021121942862868
1772648217093410800,5.903410888671875,-0.35702918509095904,-1.0339420659661291,-0.6855652661472559
1772648217103451000,5.913450927734375,-0.5031178641974926,-0.7455407191604375,-0.8064600288949907
1772648217113491700,5.92349169921875,-0.7501718860924244,-0.5067039059907198,-0.7722704667843878
1772648217123531800,5.93353173828125,-0.7680936194911598,-0.3706184422433376,-0.7510749724119902
1772648217133572900,5.94357275390625,-0.7343269589677452,-0.2267360410094261,-0.5796906701378524
1772648217143613000,5.953613037109375,-0.7578259079769253,-0.17423136226832867,-0.3007588702060282
1772648217153653800,5.96365380859375,-0.861985078370571,-0.1780067891538143,0.047181730152666565
1772648217163693600,5.973693603515625,-0.8149450947761535,-0.05611059427857399,0.3111993079386651
1772648217173734700,5.983734619140625,-0.6658683397695422,0.0640402182340622,0.4871295830793678
1772648217183774700,5.993774658203125,-0.624042291431129,0.12718787154257297,0.5689167626671493
1772648217193815800,6.00381591796875,-0.6701137222543359,0.1476122354120016,0.5199430345311761
1772648217203856000,6.01385595703125,-0.7410498374819755,0.070862757730484,0.3946642114803195
1772648217213896700,6.023896728515625,-0.9491676872611046,-0.040378772139549254,0.39124651199132204
1772648217223936800,6.033936767578125,-1.0172016513064503,-0.2598451144069433,0.26240327445715667
1772648217233976800,6.043976806640625,-1.0918234693095088,-0.5989011281728744,0.1356388890236616
1772648217244018000,6.054017822265625,-1.2257836114659906,-0.9744067579358816,0.07940992906242608
1772648217254058000,6.06405810546875,-1.4080407515406608,-1.3134195170819758,0.1998202692940831
1772648217264098800,6.074098876953125,-1.579822382569313,-1.4639146144539117,0.3188030609406531
1772648217274138600,6.084138671875,-1.5848101078540087,-1.241501112818718,0.3016682401359081
1772648217284179700,6.0941796875,-1.0661506833925842,-0.32798867630660533,-0.11102087285667657
1772648217294219800,6.1042197265625,-0.2587912214398384,0.9792705645799636,-0.697133538866043
1772648217304260600,6.114260498046875,-0.4487722337648272,2.233336559939384,-0.9189411835625767
1772648217314300700,6.12430078125,-0.898999927034974,3.77268313973546,-0.7795389964826405
1772648217324341800,6.134341796875,-1.0019143580645322,4.923102298137545,-0.5210425202056765
1772648217334381800,6.1443818359375,-0.9808595873370766,4.706440491896868,-0.4761920094795525
1772648217344423000,6.1544228515625,-0.8065165813878178,3.3925305609494445,-0.6823899971120059
1772648217354463000,6.164462890625,-0.4306546855330467,1.9028098895877599,-1.1364392944969237
1772648217364503800,6.17450390625,-0.1623629375591874,0.7629360905975103,-1.338380647598207
1772648217374543600,6.184543701171875,-0.042915012618899344,0.0578571456849575,-1.4428988605625928
1772648217384584700,6.194584716796875,0.13095277703404426,-0.2931815668195486,-1.3461544964700936
1772648217394624800,6.204624755859375,0.18015841422975062,-0.5653326205700635,-1.0959608613751828
1772648217404665600,6.21466552734375,0.38847090979814525,-0.6418003587007522,-1.0305988930180667
1772648217414705700,6.22470556640625,0.7251829907864332,-0.5896908167570829,-0.9839350492596626
1772648217424746800,6.234746826171875,1.0149211391538382,-0.5237772058665752,-0.92486107513085
1772648217434786800,6.244786865234375,1.326526251414418,-0.4664034597843885,-0.7655442272692918
1772648217444828000,6.254827880859375,1.8026818744063375,-0.469420177257061,-0.551499033267796
1772648217454867700,6.26486767578125,2.207079252132773,-0.5395622194975614,-0.35372400606572624
1772648217464908800,6.27490869140625,2.437735096934438,-0.526755929416418,-0.16691285594850777
1772648217474948900,6.284948974609375,2.4356784566655754,-0.37979017521440983,0.03252805863916874
1772648217484990000,6.294989990234375,2.452285892595351,-0.0386602777838707,0.30318755865767594
1772648217495029800,6.30502978515625,2.2837845984116196,0.3436988711357116,0.5119228096827865
1772648217505070600,6.315070556640625,1.9484198403790591,0.6784902131944894,0.5625745540335774
1772648217515110700,6.325110595703125,1.5242621156498788,0.9861766907066106,0.4468487183563411
1772648217525151700,6.33515185546875,1.2804878460779785,1.147896361926198,0.15748217978030443
1772648217535191800,6.34519189453125,1.108807629597187,1.0479121391296387,-0.26462051211521026
1772648217545233000,6.35523291015625,0.9712152684181928,0.6857189954042434,-0.5986000993996858
1772648217555272700,6.365272705078125,0.8417091830611229,0.27458266481161114,-0.8416726504430174
1772648217565313800,6.375313720703125,0.621110329632461,-0.0764098704636097,-0.9267346139177679
1772648217575353900,6.385353759765625,0.4574105905115604,-0.28471184463799,-0.8223333053313195
1772648217585395000,6.39539501953125,0.48437926145792004,-0.38825112956762314,-0.557130463283509
1772648217595434800,6.405434814453125,0.522494472579658,-0.4072515981137752,-0.37329394506290553
1772648217605474800,6.415474853515625,0.5469795100167394,-0.4225274931788444,-0.33189211348593234
1772648217615515600,6.425515625,0.6583072568655014,-0.4296960696339607,-0.2911785564340651
1772648217625556700,6.435556640625,0.7853682871580123,-0.4399111741781234,-0.25813816435858605
1772648217635596800,6.4455966796875,0.69866849334836,-0.39772973653078075,-0.21956395742297172
1772648217645636900,6.455636962890625,0.5313502714693547,-0.2947609449654817,-0.11547332222089171
1772648217655677700,6.465677734375,0.455999554669857,-0.29033026904165743,-0.06671338296607136
1772648217665717800,6.4757177734375,0.4786018471002578,-0.31201135497391225,-0.05413695611804723
1772648217675758800,6.4857587890625,0.4400082048118114,-0.31815351099073885,-0.010187778145819901
1772648217685799000,6.495798828125,0.40724984454810614,-0.29943770460486413,-0.012768734549731016
1772648217695840000,6.505840087890625,0.2606464939177036,-0.2738654564529657,0.025103899987787007
1772648217705879800,6.5158798828125,0.2339467030405998,-0.3053419602125883,0.036317660180479286
1772648217715920600,6.525920654296875,0.2954071339145303,-0.38499417359828947,0.03668853931948542
1772648217725960700,6.535960693359375,0.3415101289197802,-0.41104105352461334,0.06321896497905254
1772648217736001800,6.546001708984375,0.41133536029607054,-0.37651159193515776,0.06878390562981367
1772648217746041900,6.556041748046875,0.32749387852698564,-0.27487375671267505,0.17785028341785072
1772648217756082700,6.566082763671875,0.18060323538780212,-0.08653378959298133,0.3565352640941739
1772648217766122800,6.576122802734375,0.14639701440334318,0.007566635861992835,0.5757694050408899
1772648217776163800,6.586163818359375,0.10870002869367598,-0.06089315237998962,0.7148463056892156
1772648217786204000,6.596203857421875,0.054986266423761844,-0.18638824853003025,0.8192210185296833
1772648217796244700,6.60624462890625,0.01965805567204952,-0.30499124707877634,0.8649377906963228
1772648217806284500,6.616284423828125,0.018001812897622583,-0.45008594671189783,0.8816168305575847
1772648217816325600,6.62632568359375,0.061867550370097155,-0.549525979629159,0.8326163605451583
1772648217826365700,6.63636572265625,0.13273819914609192,-0.6351362246364355,0.744038497903943
1772648217836406800,6.64640673828125,0.11461655926108359,-0.6584563099473715,0.6678669662408531
1772648217846446800,6.65644677734375,0.09109861329048871,-0.6500222436010837,0.5972802489727735
1772648217856487700,6.66648779296875,0.031736323739588256,-0.5840577793061733,0.5177165906533598
1772648217866527700,6.67652783203125,0.07775690115839243,-0.503930349624157,0.4166055557839572
1772648217876568800,6.68656884765625,0.04900251583904028,-0.42634734372794625,0.40728213938251134
1772648217886609400,6.696609375,-0.05532412007600069,-0.3397352282017469,0.4359177206277847
1772648217896650200,6.706650146484375,-0.01555120487511158,-0.2947019082546234,0.3984961908586323
1772648217906690300,6.716690185546875,-0.01103109710216522,-0.28334873959124085,0.3463863566540181
1772648217916731400,6.7267314453125,0.07339110716432333,-0.31437633053958414,0.2907635458923876
1772648217926771200,6.736771240234375,0.09832447289079427,-0.3780816177308559,0.30085706988349553
1772648217936812300,6.746812255859375,0.04975099611878395,-0.430458286178112,0.26601985751911994
1772648217946852000,6.75685205078125,-0.009887187764048577,-0.4850649056345224,0.2345494912393391
1772648217956893200,6.76689306640625,-0.025561142235994337,-0.5032371066629886,0.25290333244502544
1772648217966933200,6.776933349609375,-0.0015957447588443754,-0.44891748745441434,0.30129180803894995
1772648217976974300,6.786974365234375,0.023038930281996727,-0.3759223938703537,0.3319749694637954
1772648217987014400,6.797014404296875,0.03553659280538559,-0.33122283592224117,0.39905952382981774
1772648217997054500,6.807054443359375,-0.0780152598336339,-0.24980478190779684,0.4782395896591246
1772648218007095300,6.81709521484375,-0.1457753753736615,-0.14338789571523666,0.6022314416393637
1772648218017135400,6.82713525390625,-0.15724983232915402,-0.07302607324421405,0.720301794616133
1772648218027176400,6.837176513671875,-0.17976181612759828,0.017187866166234016,0.8469913612477481
1772648218037216300,6.84721630859375,-0.21145634655207393,0.06039572425186634,1.0234959291450678
1772648218047257000,6.857257080078125,-0.27068127345889803,0.08019464969933032,1.2032998308487235
1772648218057297200,6.867297119140625,-0.2747296720668673,0.1380699155628681,1.3811938072778285
1772648218067338200,6.877338134765625,-0.27900194255858657,0.2090548383682966,1.5290132556997238
1772648218077378300,6.88737841796875,-0.21646511462479828,0.3429524366825819,1.7029853825099766
1772648218087419400,6.89741943359375,-0.18495441633462906,0.4428273538857698,1.910565179889649
1772648218097459200,6.907459228515625,-0.27214170140028,0.5752192238122225,1.9501443260841071
1772648218107500300,6.917500244140625,-0.2182433763436973,0.7758587005347013,1.84146957796216
1772648218117540400,6.927540283203125,-0.23836072009056805,0.9496025715470313,1.7704267874896524
1772648218127581400,6.93758154296875,-0.2519654670730233,1.1678554463714361,1.5940438001453876
1772648218137621200,6.947621337890625,-0.27920155678391456,1.3493518312066792,1.3102743509240449
1772648218147662000,6.957662109375,-0.26434008773863316,1.4554361244440077,1.0851096508845686
1772648218157702100,6.9677021484375,-0.14720570043772457,1.4392559740155935,1.0339616474494338
1772648218167743200,6.9777431640625,-0.2211199546933174,1.3485627266556024,0.9794590728893876
1772648218177783300,6.987783203125,-0.19046967262476683,1.2066022333949804,0.9289362156152725
1772648218187824000,6.99782421875,-0.09892156200110912,0.9947557184815407,1.0135887215062975
1772648218197864200,7.0078642578125,-0.17394786915183066,0.7632102313637733,1.0413742617934942
1772648218207905300,7.0179052734375,-0.11475333738327026,0.543804094851017,0.8130933294296264
1772648218217945300,7.0279453125,0.06734642017260194,0.2919260138005018,0.5411784225225448
1772648218227986400,7.037986328125,0.2845528546839952,0.05292261189222335,0.1778695726402104
1772648218238026500,7.048026611328125,0.36622371441572904,-0.0703138916760683,-0.28957418997734785
1772648218248067300,7.0580673828125,0.3678878482356667,-0.08914192626476287,-0.8978495879560708
1772648218258107100,7.068107177734375,0.5257482136785984,-0.030364743125438687,-1.4856081214763224
1772648218268148200,7.078148193359375,0.6112666887491941,0.0826788677304983,-1.9820254651218652
1772648218278188300,7.088188232421875,0.8023688140586018,0.26552140647768974,-2.5017025421932337
1772648218288229000,7.09822900390625,0.924608415544033,0.4333253660470247,-2.8519395829260348
1772648218298269200,7.108269287109375,0.9967518607348204,0.5469207655668258,-2.9508605604052542
1772648218308310300,7.118310302734375,0.9748819742321968,0.5248679237127304,-2.9040824426174163
1772648218318350300,7.128350341796875,0.6968731343641876,0.38787060581743715,-2.7142577898979185
1772648218328391400,7.138391357421875,0.47661505719721314,0.15739596280157564,-2.4733511847168206
1772648218338431200,7.14843115234375,0.21511808393001555,-0.05935118363499641,-2.236361606848985
1772648218348472300,7.158472412109375,0.11746055051535367,-0.31045009700655934,-2.053971488044411
1772648218358512000,7.16851220703125,0.14087766645997762,-0.31412381708323955,-1.9262490712337195
1772648218368553200,7.17855322265625,0.16501900502592323,-0.12595686844289303,-1.688227812230587
1772648218378593300,7.18859326171875,0.006116729314625263,0.22187866410613058,-1.397817025298625
1772648218388634000,7.198634033203125,-0.11280512592494488,0.6258002410143614,-1.0976077517993748
1772648218398674200,7.208674072265625,-0.19653905566632746,0.8707002997457981,-0.7958572402074933
1772648218408714200,7.21871435546875,-0.32193945927023887,1.0393985778063535,-0.5565088242538273
1772648218418755300,7.22875537109375,-0.21700141345858573,1.0798188510000706,-0.41178982606530184
1772648218428795400,7.23879541015625,-0.21430676754713057,0.9168225839734077,-0.341805312474072
1772648218438836200,7.248836181640625,-0.21197540199011564,0.6423468866676092,-0.32712256099656223
1772648218448876300,7.258876220703125,-0.12174597274959087,0.28753274727761746,-0.16348595023974774
1772648218458917400,7.26891748046875,-0.18798048615753649,-0.12061258480548857,-0.04086874761357903
1772648218468957200,7.278957275390625,-0.023049743936955927,-0.5561930363029242,-0.04796060557067394
1772648218478998300,7.288998291015625,0.011868424709141253,-1.008548681512475,-0.0580367400355637
1772648218489038300,7.299038330078125,-0.10127426260709763,-1.3387930277913809,-0.043932080706954
1772648218499079200,7.3090791015625,-0.34197043990790843,-1.475740076804161,0.04710398874133825
1772648218509119200,7.319119140625,-0.5746399626195431,-1.4014678028911352,0.26713424850180745
1772648218519160300,7.329160400390625,-0.673332392039895,-1.2264525967687367,0.3432989120326936
1772648218529200400,7.339200439453125,-0.5712751623615622,-1.1487836661547421,0.45041780901476736
1772648218539241200,7.3492412109375,-0.5330100213751197,-1.1324106235027314,0.48978608893752096
1772648218549281300,7.35928125,-0.47364948538988827,-1.1494751555502414,0.4848211600065231
1772648218559322400,7.369322265625,-0.42882425523549317,-1.1800538336873054,0.47984527129009363
1772648218569362200,7.379362060546875,-0.4477452288046479,-1.2434563385397195,0.44793066837415096
1772648218579403300,7.3894033203125,-0.4877133743166923,-1.3967179780155419,0.40225203626081346
1772648218589443300,7.399443359375,-0.5197247156053781,-1.5051526337713002,0.4108279952958226
1772648218599484200,7.409484130859375,-0.4600087903112173,-1.6336568486094474,0.3157828363366425
1772648218609524200,7.419524169921875,-0.500847288917005,-1.5934896733939647,0.2696383402772248
1772648218619565300,7.4295654296875,-0.747350691191852,-1.4623708921432494,0.25392887610048054
1772648218629605400,7.43960546875,-0.9349158745467663,-1.4014666338473558,0.14876915036216376
1772648218639646200,7.449646240234375,-0.9768725635275244,-1.2774948017418384,0.021577187166363
1772648218649686300,7.459686279296875,-1.0026204605072737,-1.21721481282413,-0.12225012287944555
1772648218659727400,7.469727294921875,-1.0054989385530353,-1.2339672101825474,-0.21071298083886503
1772648218669767400,7.479767333984375,-1.1110407954767345,-1.1624702462017535,-0.35940073652788995
1772648218679808300,7.489808349609375,-1.3004291026055812,-0.777442754855752,-0.4364293234117329
1772648218689848000,7.49984814453125,-1.226332477520406,-0.2865238624960184,-0.1656020656108856
1772648218699889200,7.50988916015625,-1.231951778706908,-0.010450082343816756,0.14213409626185894
1772648218709929200,7.51992919921875,-1.2284233123198152,0.23736089539825914,0.27836116043701764
1772648218719970300,7.52997021484375,-1.309795481365919,0.3914093013375997,0.34117139848470684
1772648218730010400,7.54001025390625,-1.2687497697502375,0.37974341346323487,0.22500410265028475
1772648218740051200,7.55005126953125,-1.0967565417975187,0.13706044625937938,-0.018304595236480235
1772648218750091300,7.56009130859375,-1.158957561905682,-0.23051614407002924,-0.14293299155458808
1772648218760132400,7.57013232421875,-1.3032467903748153,-0.5114478856474161,-0.2735959918618202
1772648218770172400,7.58017236328125,-1.001295641644299,-0.5245446831077337,-0.6494289538830519
1772648218780213200,7.590213134765625,-0.7493129311755299,-0.03533610179722309,-1.075488274449855
1772648218790253000,7.600253173828125,-0.3846782395169139,1.0399947901338338,-1.1927939266644418
1772648218800294100,7.610294189453125,-0.19874299545139074,2.021226425653696,-1.0776681027069688
1772648218810334200,7.620334228515625,-0.32083588194251056,2.8178111033529043,-0.5984491466216743
1772648218820374300,7.630374267578125,-0.3127691876038909,3.317573811903596,-0.14615239199250935
1772648218830415400,7.640415283203125,-0.35609219650179147,3.120263187342882,0.05272065957933664
1772648218840455200,7.650455078125,-0.5822331942275166,2.4820406871289014,0.1173385315708816
1772648218850496300,7.660496337890625,-0.5259843605220318,1.6635253326505421,-0.14419541270583866
1772648218860537300,7.670537353515625,-0.2624839384779334,0.7571265275359154,-0.41621626420542596
1772648218870577400,7.680577392578125,-0.25789164225161076,-0.08894260430037974,-0.6006133389182389
1772648218880617500,7.690617431640625,-0.27474107024371625,-0.45425767943859097,-0.5933689207479358
1772648218890658300,7.700658203125,-0.18391279832720756,-0.3568301553875208,-0.42063656486570833
1772648218900698400,7.710698486328125,0.01364975516796112,-0.14553952079117297,-0.4803386077649891
1772648218910739500,7.720739501953125,0.3470616255670786,0.05082710091769695,-0.6225117208629847
1772648218920779500,7.730779541015625,0.7160717558309435,0.174212073045969,-0.7661135515898466
1772648218930820400,7.7408203125,0.9520350593909621,0.3552168749719858,-0.9404226552695035
1772648218940860400,7.7508603515625,1.3530989087805152,0.6297767434298992,-0.9576565525345504
1772648218950901500,7.760901611328125,1.8824486540824175,0.598047726213932,-0.9010032296814023
1772648218960941600,7.770941650390625,1.9982561766937375,0.3763841661632061,-0.8139043535515665
1772648218970982700,7.780982666015625,1.822295506414771,0.2691080327928066,-0.6940095616266131
1772648218981022700,7.791022705078125,1.8516566254556177,0.23214520657658574,-0.48103243524804706
1772648218991063600,7.8010634765625,1.9871447078317404,0.09222001853585243,-0.20779797017499804
1772648219001103400,7.811103271484375,1.9834484836623072,-0.17056231836676597,0.043347266556322574
1772648219011144400,7.82114453125,1.8216335353747009,-0.39861061101853845,0.16344664114266633
1772648219021184500,7.8311845703125,1.5471066924035548,-0.43750703564584253,0.2697020531632006
1772648219031225300,7.841225341796875,1.5080430945158003,-0.3941682446569204,0.35395386929884554
1772648219041265400,7.851265380859375,1.4489777420848606,-0.32028876945376394,0.3641279111802578
1772648219051306500,7.861306396484375,1.3017524601638317,-0.21542612696588037,0.30058176007345316
1772648219061346600,7.8713466796875,1.0731041557922958,-0.050531332841515536,0.205131089053303
1772648219071387600,7.8813876953125,0.9268094327196478,0.10309680185914039,0.053611470939218996
1772648219081427500,7.891427490234375,0.8206602575525641,0.18302374053299425,-0.060498600104451176
1772648219091468500,7.901468505859375,0.6685740915969014,0.19869243430793285,-0.1675612368546426
1772648219101508400,7.91150830078125,0.5875497130751609,0.17390403001010418,-0.1345465637423098
1772648219111549400,7.921549560546875,0.5870785884320736,0.10846621993780135,-0.0883516526699066
1772648219121589500,7.931589599609375,0.5624380681723355,0.03296235840320587,-0.09833426363244652
1772648219131630300,7.94163037109375,0.5647790783405303,-0.09891454773843288,-0.08217164886072277
1772648219141670400,7.95167041015625,0.6601210282891988,-0.306017667517066,-0.0946669732965529
1772648219151711500,7.96171142578125,0.795449243928492,-0.49565001253485674,-0.0904186682023108
1772648219161751600,7.97175146484375,0.8342322713091969,-0.6856202112048864,0.0699817371122539
1772648219171792400,7.98179248046875,0.8753568933799862,-0.7976607824981212,0.18432503238990902
1772648219181832400,7.99183251953125,0.8585212016522884,-0.8054553818970919,0.27030849462375045
1772648219191873500,8.00187353515625,0.7078647762387991,-0.7081430086582898,0.37645898496508595
1772648219201913600,8.01191357421875,0.5484384766533971,-0.5035591782242059,0.4320575380682945
1772648219211954700,8.02195458984375,0.44266281097382304,-0.28718028057813644,0.4445701058998704
1772648219221994500,8.031994384765625,0.4579574107393622,-0.10521803179681301,0.3934750016957521
1772648219232035300,8.042035400390626,0.41769612749963997,0.012737316498160362,0.3500397645950317
1772648219242075400,8.052075439453125,0.3647229544639587,0.010059621721506118,0.2542399878762662
1772648219252116500,8.062116455078124,0.3268549961015582,-0.09501812482178211,0.16715280218422413
1772648219262156500,8.072156494140625,0.3473784364312887,-0.22727380114793777,0.12127747845500707
1772648219272197400,8.082197265625,0.36225042687058445,-0.31108781038820743,0.04141381427571177
1772648219282237400,8.092237548828125,0.3180778154060244,-0.3498614854186773,0.06423983245939016
1772648219292278500,8.102278564453124,0.24798019682914016,-0.36254151877164836,0.13540814900770784
1772648219302318600,8.112318603515625,0.2275797983571887,-0.32557752351164815,0.21791282921507954
1772648219312359700,8.122359619140624,0.26617782455980776,-0.31625439937114713,0.38313013329207896
1772648219322399500,8.1323994140625,0.17619097190350294,-0.3011486001759767,0.5867566630013287
1772648219332439300,8.142439208984374,0.13355156135559082,-0.24098726920187472,0.677261109790951
1772648219342480400,8.15248046875,0.10472644888758659,-0.18650515290796757,0.711660076868534
1772648219352520400,8.1625205078125,0.12201368377506733,-0.16118600273430347,0.746490128839761
1772648219362561500,8.1725615234375,0.14126257412433624,-0.21586276481747627,0.796712834123522
1772648219372601600,8.1826015625,0.14326748420596122,-0.32562662335038184,0.8748014514543115
1772648219382642400,8.192642333984375,0.14254443062841893,-0.4098281706035137,0.8808347402691841
1772648219392682500,8.2026826171875,0.18578122254759072,-0.48717327609062194,0.8793483011037111
1772648219402723600,8.2127236328125,0.14319354218691588,-0.5724217020481824,0.8107284999944269
1772648219412763600,8.222763671875,0.041622050198912616,-0.6698229226142167,0.7429441267959773
1772648219422804500,8.232804443359376,-0.0036810266003012653,-0.7883353202700615,0.6195689454093575
1772648219432844300,8.24284423828125,-0.009304419440031051,-0.8898965831249952,0.5219629960514605
1772648219442885400,8.252885498046876,-0.019878420424461363,-0.9644657941579818,0.5310387213021517
1772648219452925400,8.262925537109375,-0.01388940914273262,-1.0320780256599187,0.5897198967210948
1772648219462966500,8.272966552734376,0.07970832748711108,-1.0788047055214642,0.6849822055622935
1772648219473006600,8.283006591796875,0.07542144394814967,-1.091488830527663,0.8169395565290003
1772648219483047400,8.29304736328125,0.10534516530781984,-1.0533195511311293,1.0305702514454722
1772648219493087500,8.30308740234375,0.18829378989040851,-0.9379735085517168,1.1757391122933476
1772648219503128600,8.313128662109374,0.23271014698296785,-0.74296239310503,1.2678585199989378
1772648219513168600,8.323168701171875,0.16546587201058863,-0.4731009115964174,1.3660560055091977
1772648219523209500,8.33320947265625,0.14690934783965348,-0.20448621527850627,1.4167790615305305
1772648219533249300,8.343249267578125,0.04892535894960165,-0.015900748965144155,1.4936881136879323
1772648219543290400,8.353290283203124,0.02448796004652977,0.17035247500836848,1.5608090545415878
1772648219553330400,8.363330322265625,0.0030009353816509246,0.4311562053143978,1.3068046289868651
1772648219563371500,8.37337158203125,0.29840865381807086,0.6917033305108546,0.9326201648250222
1772648219573411600,8.38341162109375,0.33797552505284545,0.8340262273430824,1.0571392555497585
1772648219583452400,8.393452392578125,0.12260171279609203,0.9880565131038427,1.2393044795572756
1772648219593492500,8.403492431640625,-0.18664763011857866,1.273269293001294,1.1906279808022082
1772648219603533600,8.413533447265625,-0.35094971904680133,1.6681383794039486,1.189627717718482
1772648219613573600,8.42357373046875,-0.28035891012549397,2.159641209131479,1.2654383071146904
1772648219623614500,8.433614501953125,-0.2766775912642479,2.599483994248509,1.3232181497797368
1772648219633654500,8.443654541015626,-0.26155074928104877,2.8585499409765003,1.3262640933468937
1772648219643695600,8.453695556640625,-0.27408859768435356,2.815829574146867,1.115350913760811
1772648219653735400,8.4637353515625,-0.20662965704798697,2.5309645847737787,0.9107856418967246
1772648219663776500,8.473776611328125,0.06121113228797912,2.0137650037318466,0.7837835021845996
1772648219673816300,8.48381640625,0.3647287996828556,1.4389181203633545,0.5279128443665803
1772648219683857400,8.493857421875,0.591242430113256,0.9460457558482884,0.12307181452587246
1772648219693897500,8.5038974609375,0.5618380564525723,0.5060884044408798,-0.28896935595199463
1772648219703938600,8.5139384765625,0.6140180332839489,0.22602818500101565,-0.7518018253818154
1772648219713978600,8.523978515625,0.6927715442642569,0.0800216312199831,-1.3420216344490647
1772648219724019500,8.53401953125,0.661749652404338,0.02515489952266216,-1.8405664916425943
1772648219734059500,8.5440595703125,0.561421000084281,0.057098436272144316,-2.234988564930111
1772648219744100600,8.5541005859375,0.3887389130845666,0.13170154957473276,-2.467480831378698
1772648219754140400,8.564140380859374,0.291608618414402,0.12510463552773,-2.550980952364206
1772648219764181200,8.57418115234375,0.1884200466185808,0.10252689301669597,-2.561285488757491
1772648219774221300,8.58422119140625,0.04068389256596565,0.00511339749097824,-2.437820144869387
1772648219784261400,8.594261474609375,-0.07070961299538613,0.04379179545342922,-2.1979932977490124
1772648219794302500,8.604302490234375,-0.21805150703340767,0.14077391382455826,-1.82990174363479
1772648219804342500,8.614342529296875,-0.34787761812508106,0.24063655606806278,-1.4336464635707438
1772648219814383600,8.624383544921875,-0.5420949528455734,0.39326515833735465,-1.107358307571709
1772648219824423400,8.63442333984375,-0.4792158873453736,0.5556026691943406,-0.8929417960397898
1772648219834464500,8.644464599609375,-0.31222470546364783,0.6790338185518979,-0.7273107965953648
1772648219844504600,8.654504638671876,-0.13580781584978102,0.7438041046261787,-0.5401138620309531
1772648219854545700,8.664545654296875,-0.1410910169497132,0.7019809788972139,-0.34471769278943537
1772648219864585500,8.67458544921875,-0.12177812145352362,0.7104822652608156,-0.30094474816694855
1772648219874626300,8.684626220703125,0.0848641028150916,0.5848632504701614,-0.24523703560084104
1772648219884665600,8.69466552734375,0.21585633507668972,0.29691432360708714,-0.18404855353608726
1772648219894706400,8.70470654296875,0.21093378398269413,-0.025686229920387268,-0.10644625841751694
1772648219904746500,8.71474658203125,0.059362289550900456,-0.23223989912271498,-0.1020747653350234
1772648219914787600,8.72478759765625,0.10386427910029887,-0.44453766493499275,-0.095071462444216
1772648219924827600,8.73482763671875,0.14864391654729842,-0.7852928838342428,0.07285977676659822
1772648219934868500,8.744868408203125,0.06859276697188615,-1.1992559622853993,-0.11388050007149576
1772648219944908500,8.754908447265626,-0.03952537018060684,-1.3898498458117245,-0.286158097923547
1772648219954949600,8.76494970703125,-0.24988456914573906,-1.3393734580278396,-0.34277138102725146
1772648219964989700,8.77498974609375,-0.36815409795641896,-1.1934697800993919,-0.3813058404743671
1772648219975030800,8.78503076171875,-0.45173955913782116,-1.1632090818703174,-0.44389235276877875
1772648219985070600,8.795070556640624,-0.39973318530768154,-1.1389853257179259,-0.41094226932525635
1772648219995111700,8.805111572265625,-0.38765725532770157,-1.042618708896637,-0.2953513120740652
1772648220005151500,8.8151513671875,-0.3629904315829277,-0.9949521178364753,-0.18089257372319698
1772648220015192600,8.825192626953125,-0.38316812721490856,-0.8955547550171613,-0.07105608834549784
1772648220025232600,8.835232666015624,-0.3645195408463478,-0.8029606424719095,0.04831234161779284
1772648220035273500,8.8452734375,-0.3453109825074672,-0.7758733135819434,0.1421824654482305
1772648220045313500,8.8553134765625,-0.3417793012499809,-0.817982270514965,0.16634455454126
1772648220055354600,8.865354736328126,-0.3417565048962831,-1.0520026233136652,0.12513430001363157
1772648220065394700,8.875394775390625,-0.390116338917613,-1.130022267061472,0.1988292124301195
1772648220075435500,8.885435546875,-0.49667467940747734,-1.1195564026266336,0.24831512787193058
1772648220085475600,8.8954755859375,-0.5636334154367446,-1.1008949567764996,0.2145101811647415
1772648220095516700,8.9055166015625,-0.6131938574194907,-0.9832137492477894,0.17512962628230452
1772648220105556500,8.915556396484375,-0.7299959440261126,-0.9180407275915146,0.14828955015167594
1772648220115597600,8.92559765625,-0.809500273373723,-0.8591565769463777,0.09847834827825426
1772648220125637600,8.9356376953125,-0.9212275409340858,-0.8867354887455702,0.028577421317249534
1772648220135678500,8.945678466796876,-1.0635182890623807,-0.9383692298710345,-0.03884966287612915
1772648220145718500,8.955718505859375,-1.145589254027605,-0.9419681311458349,-0.08098989173024893
1772648220155759600,8.965759521484374,-1.1243307774215936,-0.8622592191368341,-0.13698811167553065
1772648220165799700,8.975799560546875,-1.0483192586258052,-0.7042611987888813,-0.05024842424690723
1772648220175840500,8.985840576171874,-0.9174261028245091,-0.6144020641654729,0.14172361576482653
1772648220185880600,8.995880615234375,-0.8485977735310792,-0.6129103643029928,0.25990678146630525
1772648220195921700,9.005921630859374,-0.8857336182266473,-0.544438301101327,0.3847828689351678
1772648220205961700,9.015961669921875,-0.9201803699687123,-0.3576555002957582,0.44039735025987026
1772648220216002800,9.0260029296875,-0.9224857243016361,-0.1995049197345972,0.31231004565954207
1772648220226042600,9.036042724609375,-0.9570870820835232,-0.1637684204429388,0.09095321347042917
1772648220236083500,9.04608349609375,-0.9763821496620774,-0.20864684208929538,-0.057862844773381945
1772648220246123500,9.05612353515625,-1.0331523768931627,-0.3534872747004032,-0.15227262843847275
1772648220256164600,9.06616455078125,-1.1210080627396701,-0.4467530028969049,-0.23638459771201012
1772648220266204700,9.07620458984375,-1.455784499490261,-0.31488954075872894,-0.20434213063269852
1772648220276244700,9.08624462890625,-1.5137851452991367,0.17769816159605978,-0.2854647088319063
1772648220286285600,9.09628564453125,-0.9914970089465379,1.024983098962903,-0.5708906930886208
1772648220296325600,9.10632568359375,-0.6953872797206044,1.8130922092616557,-0.8238267587594688
1772648220306366700,9.11636669921875,-0.8671896612763405,2.4254969621300697,-0.6966207670383155
1772648220316406500,9.126406494140625,-1.209141396483779,2.9151082790225744,-0.20470672616139052
1772648220326447400,9.136447265625,-1.2230965643391012,3.0277824720442292,0.14926701688170432
1772648220336487400,9.1464873046875,-0.9190385064572095,2.6492291451483965,0.05704217604026198
1772648220346528500,9.156528564453126,-0.78157737044245,1.8575807548075913,-0.1568771996244788
1772648220356568600,9.166568603515625,-1.0040691980108618,0.96579324336946,-0.24753391436636446
1772648220366609700,9.176609619140624,-0.7643380663499235,0.19987784470021724,-0.3040297085702419
1772648220376649700,9.186649658203125,-0.3559127482816577,-0.44344110186994073,-0.4863925009764731
1772648220386690600,9.196690673828124,-0.08750409592986107,-0.7435971838772296,-0.6048525839231907
1772648220396730600,9.206730712890625,0.10597849477529525,-0.6426520070940256,-0.748379303587228
1772648220406771700,9.216771728515624,0.3091927904218435,-0.43993280148804187,-0.8288042549110949
1772648220416811800,9.226811767578125,0.4256406567633152,-0.21674247026145457,-0.8820740728057921
1772648220426852600,9.2368525390625,0.648610038715601,0.02062543939948082,-0.9690114747636019
1772648220436892400,9.246892333984375,0.960401613458991,0.22548516416549683,-1.1947728255219756
1772648220446933500,9.25693359375,1.2775307498380541,0.354244815069437,-1.305892044186592
1772648220465759500,9.275759521484375,1.7082012174621224,0.04381634537279606,-1.1836544885277747
1772648220475799600,9.285799560546875,1.7632783770397304,-0.052421676632761954,-1.1065906842000781
1772648220485840600,9.295840576171875,1.7176044211015105,0.00018470891714096068,-0.9603164193935692
1772648220495880700,9.305880615234376,1.8159779938310383,0.03604688041508198,-0.7418767898254096
1772648220505921500,9.315921630859375,1.709757214732468,0.029356442865729332,-0.49784576901346445
1772648220515961600,9.325961669921876,1.7645996887713669,0.06476327181160449,-0.24992723924368618
1772648220526002700,9.336002685546875,1.8643936496928333,0.032898060995340345,-0.07218845337629318
1772648220536042800,9.346042724609376,1.8972189377129076,-0.01754968521595001,0.037831864135712386
1772648220546083600,9.35608349609375,1.7750509401589631,-0.07864742025732993,0.0740140613682568
1772648220556123400,9.366123291015626,1.5406652611792087,-0.05968669919967651,0.08472045656070112
1772648220566163500,9.37616357421875,1.2129653386861086,0.040347207957506175,0.06772898974940181
1772648220576204500,9.38620458984375,0.9431997187674045,0.17994272565245628,-0.004193213906139135
1772648220586244600,9.39624462890625,0.7993871678993105,0.2860708580315113,-0.09358999171480537
1772648220596285700,9.40628564453125,0.6922545346528292,0.3314934695571661,-0.16579057392030955
1772648220606325500,9.416325439453125,0.5414928952991962,0.3329009982675314,-0.1657742073073983
1772648220616366600,9.42636669921875,0.4989157363325357,0.2074865661382675,-0.06877732975855469
1772648220626406700,9.43640673828125,0.6231660931184888,0.027628011637926102,-0.04916296709775925
1772648220636447700,9.44644775390625,0.7341121471732854,-0.14963994184732438,-0.08958265576958656
1772648220646487800,9.45648779296875,0.8325631690531968,-0.3182663237154484,-0.0664374886341393
1772648220656528600,9.466528564453125,0.9128729695647955,-0.4682254145145416,-0.08718143984675407
1772648220666568400,9.476568359375,0.9450240115851163,-0.5684107128411531,-0.03331365605890751
1772648220676609500,9.486609619140625,0.8142492214664816,-0.5769985084444285,0.04656739764660597
1772648220686649600,9.496649658203125,0.6878156754225492,-0.5275041174352169,0.061792147046327586
1772648220696690400,9.5066904296875,0.6165221250593662,-0.450218048658967,0.06890548618286847
1772648220706730500,9.51673046875,0.5817138465285301,-0.356083720934391,0.016922493228316307
1772648220716771600,9.526771484375,0.5109378902986645,-0.20494097330868244,-0.0449636157117784
1772648220726811600,9.536811767578126,0.4054328582540154,-0.07999298964738845,-0.04925839029625058
1772648220736852700,9.546852783203125,0.4068821802794933,-0.03122399030327797,-0.05477423110827803
1772648220746892800,9.556892822265626,0.44064854854196306,-0.0033580782562494275,-0.0376645447447896
1772648220756933600,9.56693359375,0.44180210249125956,0.008608253869414328,-0.02141469008103013
1772648220766973400,9.576973388671876,0.4738111056923866,-0.015516133561730384,-0.01534443025663495
1772648220777014500,9.5870146484375,0.4753469369575381,-0.0824134947925806,0.02478445877507329
1772648220787054600,9.5970546875,0.46702539107501506,-0.16180033524036405,0.08934212501198052
1772648220797095400,9.607095458984375,0.44837066722661256,-0.22062895630598067,0.13497443376556037
1772648220807135500,9.617135498046874,0.44011780266612766,-0.261850609010458,0.173470753159374
1772648220817176600,9.627176513671875,0.4086401298627257,-0.2625777542412281,0.18339695775955914
1772648220827216600,9.637216552734374,0.41762393904626366,-0.2150637233942747,0.1554797539167106
1772648220837257700,9.6472578125,0.4760273204371333,-0.1672925029158592,0.1554838455699384
1772648220847298600,9.657298583984375,0.43951632964164017,-0.14279635956287384,0.18851430077329276
1772648220857338600,9.667338623046875,0.3289312178537249,-0.13525836527347565,0.28803119831904767
1772648220867378700,9.677378662109374,0.27455110062956806,-0.1337087977439165,0.3557515663705766
1772648220877419800,9.687419677734376,0.24143588975220917,-0.14378478607833384,0.3511263907879591
1772648220887460000,9.697460205078125,0.23020576294660566,-0.12183306651115416,0.353072702550143
1772648220897501000,9.7075009765625,0.29169951156824825,-0.17430442750453948,0.4085860615879297
1772648220907541000,9.717541015625,0.287912101984024,-0.2453402037143707,0.49194706636369223
1772648220917582000,9.72758203125,0.2606660754010081,-0.2333633501946926,0.5299548715882003
1772648220927622100,9.7376220703125,0.22385171774476764,-0.23784780213236809,0.4793070727601647
1772648220937663000,9.7476630859375,0.1893590810343623,-0.24090426709353924,0.46361163710877296
1772648220947702800,9.757702880859375,0.1666983364149928,-0.2418815876930952,0.49076253275424236
1772648220957743900,9.767743896484374,0.10650836386829614,-0.22100129674971103,0.5992774141393602
1772648220967784000,9.777783935546875,0.08024608762562274,-0.21066811878383157,0.6419143404692411
1772648220977825000,9.787824951171874,0.060382280248403544,-0.16621406002938746,0.6944093745991587
1772648220987865000,9.797864990234375,0.07119359712004661,-0.11658230637609958,0.7072387532949447
1772648220997906000,9.807906005859374,0.1893622959047556,-0.08674889364838599,0.6798023187063634
1772648221007946000,9.817946044921875,0.21618074472546575,-0.09730068280100822,0.7702081274271011
1772648221017987000,9.827987060546874,0.15748860952109098,-0.1497206058681011,0.8898568356364965
1772648221028027100,9.838027099609375,0.14702186830341815,-0.2054255419552326,0.9610875498965382
1772648221038068000,9.84806787109375,0.18904022434353826,0.1069657522469759,1.0229863721877337
1772648221048107800,9.858107666015625,0.07365852592885494,0.494726467949152,1.0548201649524271
1772648221058148900,9.86814892578125,-0.06417816540002823,0.553157029607892,1.0052755050607025
1772648221068189000,9.87818896484375,-0.15002017333656548,0.48893677863180635,1.0055918775334953
1772648221078230000,9.88822998046875,-0.18623919544816017,0.5492600221693515,1.033882006341964
1772648221088269800,9.898269775390625,-0.0977826210990548,0.6082938104182481,1.0743670153349638
1772648221098311000,9.908310791015625,0.01973988873660564,0.5290525159209967,1.1277407319955528
1772648221108351000,9.91835107421875,0.043993747766315934,0.4659294125318527,1.112829286328703
1772648221118392000,9.92839208984375,-0.002065408097207546,0.3896925605475902,1.1584485894702374
1772648221128432000,9.93843212890625,-0.04905950672328472,0.49816053405106064,1.2331018255248665
1772648221138473000,9.948472900390625,-0.028347558084130284,0.8314706976413726,1.1473596247009932
