time,seconds_elapsed,z,y,x
1772648211219726000,0.02972607421875,-0.08404949307441711,-0.021114448085427284,0.045532576739788055
1772648211229766100,0.03976611328125,-0.09480264037847519,-0.006311388220638037,0.08444248884916306
1772648211239807200,0.04980712890625,-0.10156254470348358,0.006978850811719894,0.12975244224071503
1772648211249847300,0.059847412109375,-0.10490338504314423,0.02446586638689041,0.16842864453792572
1772648211259888000,0.06988818359375,-0.09837198257446289,0.07267307490110397,0.17789937555789948
1772648211269928200,0.07992822265625,-0.08624544739723206,0.12424817681312561,0.17471157014369965
1772648211279969300,0.08996923828125,-0.07447240501642227,0.16238225996494293,0.16454628109931946
1772648211290009000,0.100009033203125,-0.05724461004137993,0.19523589313030243,0.13147464394569397
1772648211300050000,0.1100498046875,-0.047125399112701416,0.21629564464092255,0.10072924941778183
1772648211310090000,0.120090087890625,-0.03701239451766014,0.21020521223545074,0.08868212252855301
1772648211320131000,0.130131103515625,-0.015379006043076515,0.20097842812538147,0.08169105648994446
1772648211330171100,0.140171142578125,0.013259819708764553,0.20086964964866638,0.07080686837434769
1772648211340212200,0.150212158203125,0.040146563202142715,0.21123839914798737,0.052070196717977524
1772648211350252000,0.160251953125,0.05751596763730049,0.21482627093791962,0.039687223732471466
1772648211360293000,0.170293212890625,0.0625820979475975,0.18807615339756012,0.04499490186572075
1772648211370333200,0.180333251953125,0.06951717287302017,0.13921110332012177,0.05699262022972107
1772648211380374300,0.190374267578125,0.07089962065219879,0.10034279525279999,0.04442702606320381
1772648211390414000,0.2004140625,0.0666474997997284,0.06437130272388458,0.01594998501241207
1772648211400455000,0.210454833984375,0.055362358689308167,0.043317683041095734,-0.011366059072315693
1772648211410495000,0.220494873046875,0.04084049165248871,0.01079191081225872,-0.02027871459722519
1772648211420536000,0.2305361328125,0.02966160699725151,-0.01609882526099682,-0.01270495168864727
1772648211430576000,0.240576171875,0.01633640192449093,-0.005641648545861244,-0.01678077131509781
1772648211440617000,0.250616943359375,0.009658525697886944,0.04251176863908768,-0.02315930835902691
1772648211450657000,0.260656982421875,0.015070071443915367,0.10579982399940491,-0.013402188196778297
1772648211460698000,0.270697998046875,0.028247125446796417,0.15918581187725067,0.023621609434485435
1772648211470738200,0.28073828125,0.04756888747215271,0.18909330666065216,0.08325731009244919
1772648211480779300,0.290779296875,0.07672011107206345,0.23200349509716034,0.10796079784631729
1772648211490819300,0.3008193359375,0.09711700677871704,0.2751231789588928,0.10719656944274902
1772648211500860200,0.310860107421875,0.11707793176174164,0.308848112821579,0.10122975707054138
1772648211510900000,0.32089990234375,0.12803949415683746,0.32242149114608765,0.10059110075235367
1772648211520941000,0.330941162109375,0.1269015222787857,0.3206997513771057,0.1013980358839035
1772648211530981000,0.340981201171875,0.11658630520105362,0.30972281098365784,0.09092108905315399
1772648211541022000,0.35102197265625,0.09681819379329681,0.2976618707180023,0.07580392062664032
1772648211551062000,0.36106201171875,0.06403787434101105,0.2776271402835846,0.07720881700515747
1772648211561103000,0.37110302734375,0.02299802377820015,0.21585030853748322,0.07481889426708221
1772648211571143200,0.38114306640625,-0.01861058548092842,0.1235627681016922,0.06358066946268082
1772648211581184300,0.391184326171875,-0.04520304873585701,0.02722318470478058,0.06143602356314659
1772648211591224300,0.401224365234375,-0.04489438235759735,-0.0543975830078125,0.07898298650979996
1772648211601265200,0.41126513671875,-0.023922521620988846,-0.10825255513191223,0.08369225263595581
1772648211611305000,0.421304931640625,0.02112467959523201,-0.1249806135892868,0.07900882512331009
1772648211621346000,0.431345947265625,0.07373116165399551,-0.10127181559801102,0.06625068187713623
1772648211631386000,0.44138623046875,0.13640783727169037,-0.04050121456384659,0.05510839819908142
1772648211641427000,0.451427001953125,0.1932293176651001,0.05340397357940674,0.04244906082749367
1772648211651467000,0.461467041015625,0.23480135202407837,0.1776563674211502,0.021494880318641663
1772648211661508000,0.471508056640625,0.26635849475860596,0.29331400990486145,-0.011811144649982452
1772648211671548200,0.481548095703125,0.2819819152355194,0.3891828954219818,-0.07415005564689636
1772648211681589200,0.49158935546875,0.2833382487297058,0.45298051834106445,-0.12529660761356354
1772648211691629000,0.501629150390625,0.2744823694229126,0.48665863275527954,-0.15039490163326263
1772648211701670100,0.511670166015625,0.2594565451145172,0.5071825385093689,-0.1525840163230896
1772648211711710200,0.521710205078125,0.2365022450685501,0.5233315229415894,-0.14226782321929932
1772648211721751300,0.531751220703125,0.2002536803483963,0.5373967289924622,-0.12480016052722931
1772648211731791000,0.541791015625,0.15296146273612976,0.537325382232666,-0.10473629087209702
1772648211741832000,0.55183203125,0.09726516902446747,0.5244021415710449,-0.08058221638202667
1772648211751872000,0.5618720703125,0.05399029329419136,0.5317590832710266,-0.054439324885606766
1772648211761913000,0.5719130859375,0.01589084416627884,0.547791600227356,-0.03621158376336098
1772648211771953200,0.581953125,-0.022935014218091965,0.5472458600997925,-0.03939129784703255
1772648211781994000,0.591993896484375,-0.06225765496492386,0.5122064352035522,-0.04926310479640961
1772648211792034000,0.602033935546875,-0.09628354758024216,0.47229906916618347,-0.07243161648511887
1772648211802075100,0.6120751953125,-0.1221843883395195,0.4437747597694397,-0.09916256368160248
1772648211812115200,0.622115234375,-0.1449570655822754,0.41026008129119873,-0.11630208790302277
1772648211822155000,0.632155029296875,-0.1603996753692627,0.3637272119522095,-0.12019269913434982
1772648211832196000,0.642196044921875,-0.17180120944976807,0.2917643189430237,-0.11075571179389954
1772648211842237000,0.65223681640625,-0.18265756964683533,0.22410881519317627,-0.1121610626578331
1772648211852277000,0.662277099609375,-0.18972589075565338,0.17928184568881989,-0.11057820171117783
1772648211862317000,0.672317138671875,-0.19570228457450867,0.14892154932022095,-0.1067752093076706
1772648211872358100,0.682358154296875,-0.2033306211233139,0.12720829248428345,-0.10423970222473145
1772648211882398500,0.6923984375,-0.2125832438468933,0.10610592365264893,-0.10821527242660522
1772648211892439300,0.702439208984375,-0.2244451493024826,0.10178717225790024,-0.12118803709745407
1772648211902479400,0.712479248046875,-0.2340996414422989,0.11849238723516464,-0.13236746191978455
1772648211912520400,0.7225205078125,-0.2427566796541214,0.14484600722789764,-0.14571703970432281
1772648211922560500,0.732560546875,-0.24916398525238037,0.1849984973669052,-0.15966960787773132
1772648211932601300,0.742601318359375,-0.27721115946769714,0.2441500723361969,-0.1581297218799591
1772648211942641400,0.752641357421875,-0.26298242807388306,0.2538019120693207,-0.15172427892684937
1772648211952682500,0.7626826171875,-0.251108855009079,0.25975289940834045,-0.1284925639629364
1772648211962722300,0.772722412109375,-0.24982018768787384,0.2691722512245178,-0.10083429515361786
1772648211972763400,0.782763427734375,-0.24615249037742615,0.2889794409275055,-0.08594662696123123
1772648211982803500,0.792803466796875,-0.2489147186279297,0.31123656034469604,-0.07300978899002075
1772648211992844300,0.80284423828125,-0.25883355736732483,0.30537307262420654,-0.06512031704187393
1772648212002884400,0.81288427734375,-0.2135092318058014,0.2361721396446228,-0.07145065069198608
1772648212012925400,0.822925537109375,-0.20620861649513245,0.19654536247253418,-0.07067559659481049
1772648212022965500,0.832965576171875,-0.1992042362689972,0.17494367063045502,-0.07275152951478958
1772648212033006300,0.84300634765625,-0.19238895177841187,0.16817040741443634,-0.07158739864826202
1772648212043046400,0.85304638671875,-0.19213782250881195,0.15380451083183289,-0.06507676839828491
1772648212053087500,0.86308740234375,-0.1947856992483139,0.12230954319238663,-0.06023808941245079
1772648212063127300,0.873127197265625,-0.18816374242305756,0.09427312016487122,-0.06815513968467712
1772648212073168400,0.88316845703125,-0.17761629819869995,0.07228674739599228,-0.07935868948698044
1772648212083208400,0.89320849609375,-0.170141339302063,0.06372761726379395,-0.08943476527929306
1772648212093249300,0.903249267578125,-0.1578664779663086,0.07449892908334732,-0.09673800319433212
1772648212103289300,0.913289306640625,-0.15256039798259735,0.08453372120857239,-0.10076283663511276
1772648212113330400,0.923330322265625,-0.15408407151699066,0.0911126360297203,-0.11048412322998047
1772648212123370500,0.93337060546875,-0.1528390496969223,0.09549006819725037,-0.12663432955741882
1772648212133411300,0.943411376953125,-0.15257462859153748,0.08675994724035263,-0.14323638379573822
1772648212143451400,0.953451416015625,-0.14711087942123413,0.07318448275327682,-0.1522921919822693
1772648212153492500,0.963492431640625,-0.14171139895915985,0.05943123996257782,-0.15980443358421326
1772648212163532500,0.973532470703125,-0.1390996277332306,0.03387714549899101,-0.16412301361560822
1772648212173573400,0.983573486328125,-0.13306580483913422,-0.010954941622912884,-0.1601681262254715
1772648212183613200,0.99361328125,-0.12649179995059967,-0.06194622069597244,-0.16582335531711578
1772648212193654300,1.003654296875,-0.11573882400989532,-0.08841536939144135,-0.17039185762405396
1772648212203694300,1.0136943359375,-0.10322143137454987,-0.09399975091218948,-0.15759111940860748
1772648212213735400,1.0237353515625,-0.10166888684034348,-0.1024404764175415,-0.134927898645401
1772648212223775500,1.033775390625,-0.10241803526878357,-0.09581159800291061,-0.11275201290845871
1772648212233816300,1.04381640625,-0.09437724947929382,-0.07894159853458405,-0.08866426348686218
1772648212243856400,1.0538564453125,-0.08550067245960236,-0.06652221828699112,-0.06725431233644485
1772648212253897500,1.0638974609375,-0.0693175196647644,-0.06229656934738159,-0.03439714387059212
1772648212263937500,1.0739375,-0.04174448177218437,-0.072969451546669,0.00974474847316742
1772648212273978400,1.083978271484375,-0.013662602752447128,-0.09660059213638306,0.052316199988126755
1772648212284018200,1.09401806640625,0.013558631762862206,-0.13156336545944214,0.08546563237905502
1772648212294059300,1.104059326171875,0.04882464185357094,-0.1631835699081421,0.10770931839942932
1772648212304099300,1.114099365234375,0.089060477912426,-0.17705677449703217,0.1316061168909073
1772648212314139400,1.124139404296875,0.12022719532251358,-0.19070082902908325,0.1553022712469101
1772648212324180500,1.134180419921875,0.15100641548633575,-0.20781749486923218,0.18306171894073486
1772648212334220300,1.14422021484375,0.17246891558170319,-0.24452167749404907,0.21332459151744843
1772648212344261400,1.154261474609375,0.17952470481395721,-0.3002251386642456,0.23260746896266937
1772648212354301400,1.164301513671875,0.16690051555633545,-0.3632771670818329,0.24398273229599
1772648212364342500,1.174342529296875,0.14228305220603943,-0.4036794602870941,0.2582074999809265
1772648212374382600,1.184382568359375,0.10939477384090424,-0.40725791454315186,0.28214573860168457
1772648212384423400,1.19442333984375,0.074826680123806,-0.3745998442173004,0.30854007601737976
1772648212394463200,1.204463134765625,0.047289345413446426,-0.3151710629463196,0.3155006468296051
1772648212404504300,1.21450439453125,0.02836279198527336,-0.24171096086502075,0.3136260509490967
1772648212414544400,1.22454443359375,0.010461892932653427,-0.14611291885375977,0.28547272086143494
1772648212424585200,1.234585205078125,-0.000599280116148293,-0.035032741725444794,0.2265515923500061
1772648212434625300,1.244625244140625,-0.00437918771058321,0.04374713823199272,0.2128310352563858
1772648212444666400,1.254666259765625,-0.004874802194535732,0.113217294216156,0.21606411039829254
1772648212454706400,1.26470654296875,-0.0115461815148592,0.1490165889263153,0.2202487736940384
1772648212464747500,1.27474755859375,-0.02803247980773449,0.15248242020606995,0.22137795388698578
1772648212474787600,1.28478759765625,-0.03575238585472107,0.11757005751132965,0.23876260221004486
1772648212484828400,1.294828369140625,-0.04623911529779434,0.06341042369604111,0.251691997051239
1772648212494868200,1.3048681640625,-0.05970289930701256,0.016126371920108795,0.23379231989383698
1772648212504909300,1.314909423828125,-0.07035421580076218,-0.03860638290643692,0.2292681485414505
1772648212514949400,1.324949462890625,-0.06909994781017303,-0.10813368111848831,0.2523724436759949
1772648212524990200,1.334990234375,-0.07657118141651154,-0.2020748257637024,0.29086044430732727
1772648212535030300,1.3450302734375,-0.08949629962444305,-0.3066871166229248,0.31193840503692627
1772648212545071400,1.3550712890625,-0.08069268614053726,-0.35962754487991333,0.2966129779815674
1772648212555111400,1.365111328125,-0.0670454204082489,-0.37500259280204773,0.2850346863269806
1772648212565152500,1.375152587890625,-0.08138574659824371,-0.3809979259967804,0.2600260078907013
1772648212575192600,1.385192626953125,-0.09988760948181152,-0.3966127336025238,0.22143791615962982
1772648212585233400,1.3952333984375,-0.1172221228480339,-0.4027281403541565,0.19312559068202972
1772648212595273500,1.4052734375,-0.11521054804325104,-0.3806506097316742,0.16949549317359924
1772648212605314600,1.415314453125,-0.10717792063951492,-0.38459181785583496,0.16468262672424316
1772648212615354400,1.425354248046875,-0.08170618861913681,-0.37389931082725525,0.16544295847415924
1772648212625395200,1.435395263671875,-0.06248136982321739,-0.37073227763175964,0.14782321453094482
1772648212635435300,1.445435302734375,-0.05096178501844406,-0.35596171021461487,0.12152524292469025
1772648212645476400,1.455476318359375,-0.03983216732740402,-0.3174808919429779,0.09157133847475052
1772648212655516400,1.465516357421875,-0.030458198860287666,-0.2685530483722687,0.07265935838222504
1772648212665557500,1.4755576171875,-0.024679670110344887,-0.21732711791992188,0.06567788124084473
1772648212675597300,1.485597412109375,-0.02738473191857338,-0.16785502433776855,0.06606938689947128
1772648212685638400,1.495638427734375,-0.026337310671806335,-0.1109299585223198,0.07824642956256866
1772648212695678500,1.505678466796875,-0.021242769435048103,-0.05712349712848663,0.0944991186261177
1772648212705718300,1.51571826171875,-0.013482053764164448,-0.028692390769720078,0.11923455446958542
1772648212715759400,1.52575927734375,0.0060427431017160416,-0.020083125680685043,0.14853119850158691
1772648212725799400,1.53579931640625,0.03962733596563339,-0.008884001523256302,0.17759880423545837
1772648212735840300,1.54584033203125,0.08599270135164261,0.012474017217755318,0.21190804243087769
1772648212745880300,1.55588037109375,0.1424083113670349,0.036899734288454056,0.23691405355930328
1772648212755921400,1.56592138671875,0.19880321621894836,0.03899024426937103,0.2397822141647339
1772648212765961500,1.57596142578125,0.23275958001613617,0.0064232489094138145,0.20855797827243805
1772648212776002300,1.586002197265625,0.2600606381893158,-0.031043853610754013,0.14858923852443695
1772648212786042400,1.59604248046875,0.2737932503223419,-0.04358973726630211,0.0917605608701706
1772648212796083500,1.60608349609375,0.26097577810287476,-0.06675083190202713,0.04173809662461281
1772648212806123500,1.61612353515625,0.20904599130153656,-0.131606787443161,-0.005203314125537872
1772648212816164600,1.62616455078125,0.13826388120651245,-0.19921322166919708,-0.056550804525613785
1772648212826204400,1.636204345703125,0.06656413525342941,-0.2379225343465805,-0.10622674971818924
1772648212836245200,1.646245361328125,0.007274548523128033,-0.26815417408943176,-0.14371338486671448
1772648212846285300,1.656285400390625,-0.04553806409239769,-0.3059540092945099,-0.15229275822639465
1772648212856326400,1.666326416015625,-0.08895381540060043,-0.3337363004684448,-0.18123269081115723
1772648212866366500,1.676366455078125,-0.05651598051190376,-0.24330970644950867,-0.19817999005317688
1772648212876407300,1.6864072265625,0.013957299292087555,-0.10895468294620514,-0.16351065039634705
1772648212886447400,1.696447265625,0.06580238789319992,-0.010752479545772076,-0.139977365732193
1772648212896488400,1.706488525390625,0.11369197070598602,0.04366367310285568,-0.14794869720935822
1772648212906528500,1.716528564453125,0.17238111793994904,0.050808135420084,-0.15035246312618256
1772648212916569300,1.7265693359375,0.21989946067333221,0.021518869325518608,-0.15489009022712708
1772648212926609400,1.736609375,0.2244127243757248,-0.05224243551492691,-0.12646058201789856
1772648212936650500,1.746650390625,0.1848330795764923,-0.21107164025306702,-0.11602533608675003
1772648212946690600,1.756690673828125,0.15434575080871582,-0.32714736461639404,-0.07505473494529724
1772648212956731600,1.766731689453125,0.11625472456216812,-0.35892948508262634,0.04257534444332123
1772648212966771500,1.776771484375,0.061586685478687286,-0.3736304044723511,0.15854668617248535
1772648212976812300,1.786812255859375,0.008363503031432629,-0.3283775746822357,0.23845215141773224
1772648212986852400,1.796852294921875,0.006710745394229889,-0.17767728865146637,0.321054607629776
1772648212996893400,1.8068935546875,-0.008917565457522869,-0.04494522884488106,0.386565238237381
1772648213006933500,1.81693359375,-0.044488079845905304,0.04934185743331909,0.4230467975139618
1772648213016974300,1.826974365234375,-0.05851246416568756,0.120893694460392,0.4371918737888336
1772648213027014400,1.837014404296875,-0.07250791043043137,0.21005338430404663,0.41825997829437256
1772648213037055500,1.847055419921875,-0.09078606963157654,0.31002455949783325,0.36591827869415283
1772648213047095600,1.857095458984375,-0.11394757777452469,0.3959847390651703,0.3236570954322815
1772648213057135600,1.867135498046875,-0.12506112456321716,0.4770609438419342,0.2602311372756958
1772648213067176700,1.8771767578125,-0.12874561548233032,0.5310234427452087,0.19127577543258667
1772648213077216500,1.887216552734375,-0.13617689907550812,0.5275344252586365,0.13963449001312256
1772648213087257300,1.89725732421875,-0.16259066760540009,0.42528581619262695,0.09481136500835419
1772648213097297400,1.90729736328125,-0.19778016209602356,0.24402698874473572,0.05918756499886513
1772648213107338500,1.91733837890625,-0.23580290377140045,0.035308122634887695,0.041950523853302
1772648213117378600,1.927378662109375,-0.27164366841316223,-0.16680574417114258,0.029155652970075607
1772648213127419400,1.93741943359375,-0.2964288890361786,-0.3071034550666809,0.03212640807032585
1772648213137459500,1.94745947265625,-0.306429922580719,-0.35932570695877075,0.03965538740158081
1772648213147500500,1.95750048828125,-0.3082273006439209,-0.3210912346839905,0.03262064605951309
1772648213157540600,1.96754052734375,-0.2767946422100067,-0.20806047320365906,0.008676506578922272
1772648213167581400,1.97758154296875,-0.21190111339092255,-0.059792980551719666,-0.01067295577377081
1772648213177621200,1.987621337890625,-0.13481612503528595,0.11456030607223511,-0.022719193249940872
1772648213187662300,1.997662353515625,-0.047845810651779175,0.30518272519111633,-0.04027368128299713
1772648213197702400,2.007702392578125,0.03634747117757797,0.46629831194877625,-0.07479984313249588
1772648213207743500,2.017743408203125,0.10225937515497208,0.5967585444450378,-0.13961851596832275
1772648213217783600,2.027783447265625,0.1356399655342102,0.6808891296386719,-0.212355837225914
1772648213227824400,2.037824462890625,0.1439085602760315,0.71479731798172,-0.26021498441696167
1772648213237864400,2.047864501953125,0.13411539793014526,0.7158551812171936,-0.27483436465263367
1772648213247905500,2.057905517578125,0.10364297032356262,0.6990136504173279,-0.2732948064804077
1772648213257945600,2.067945556640625,0.06477971374988556,0.6834926605224609,-0.2553141415119171
1772648213267986400,2.077986328125,0.021519597619771957,0.6643794178962708,-0.23655402660369873
1772648213278026500,2.088026611328125,-0.025317417457699776,0.6466407775878906,-0.2161252796649933
1772648213288067600,2.098067626953125,-0.059321191161870956,0.6259485483169556,-0.2076399177312851
1772648213298107400,2.108107421875,-0.07356137037277222,0.6147006154060364,-0.20726808905601501
1772648213308148500,2.1181484375,-0.06474284082651138,0.6148755550384521,-0.21974313259124756
1772648213318188500,2.1281884765625,-0.04645279422402382,0.6132703423500061,-0.22069959342479706
1772648213328229400,2.1382294921875,-0.036264337599277496,0.5868163704872131,-0.22151824831962585
1772648213338269400,2.14826953125,-0.03852029889822006,0.5522435903549194,-0.22563007473945618
1772648213348310500,2.158310546875,-0.04674920067191124,0.5054164528846741,-0.22769296169281006
1772648213358350600,2.1683505859375,-0.05439087003469467,0.43706998229026794,-0.2393169403076172
1772648213368390700,2.178390625,-0.05762607976794243,0.35982367396354675,-0.24873095750808716
1772648213378431500,2.188431396484375,-0.04359236732125282,0.2818431258201599,-0.24683915078639984
1772648213388471300,2.19847119140625,-0.02377578429877758,0.22709092497825623,-0.23528794944286346
1772648213398512400,2.208512451171875,0.0021044444292783737,0.20540717244148254,-0.22182197868824005
1772648213408552400,2.218552490234375,0.020703960210084915,0.21341370046138763,-0.20629842579364777
1772648213418593300,2.22859326171875,0.0325598306953907,0.2432691901922226,-0.18799597024917603
1772648213428633300,2.23863330078125,0.03678387030959129,0.265890896320343,-0.171221524477005
1772648213438674400,2.24867431640625,0.03437734395265579,0.2894431948661804,-0.14978724718093872
1772648213448714500,2.258714599609375,0.02900920994579792,0.30440428853034973,-0.11563513427972794
1772648213458755600,2.268755615234375,0.01994319260120392,0.3144304156303406,-0.07961662858724594
1772648213468795600,2.278795654296875,-0.0423705130815506,0.3456093668937683,-0.04568183794617653
1772648213478836500,2.28883642578125,-0.021778251975774765,0.28063109517097473,-0.028380345553159714
1772648213488876500,2.29887646484375,-0.03023671731352806,0.23660904169082642,-0.012723088264465332
1772648213498917600,2.308917724609375,-0.06498963385820389,0.20037323236465454,0.007110296748578548
1772648213508957400,2.31895751953125,-0.09830790758132935,0.1884760856628418,0.023121753707528114
1772648213518998300,2.328998291015625,-0.17770402133464813,0.24592070281505585,0.02994765341281891
1772648213529038300,2.339038330078125,-0.17578600347042084,0.25677385926246643,0.0095222732052207
1772648213539079400,2.349079345703125,-0.13102447986602783,0.24547433853149414,-0.025562549009919167
1772648213549119500,2.359119384765625,-0.1281200349330902,0.24055549502372742,-0.05920173600316048
1772648213559160600,2.36916064453125,-0.1379215121269226,0.2280104160308838,-0.1150381937623024
1772648213569200600,2.37920068359375,-0.15597641468048096,0.22729535400867462,-0.15926849842071533
1772648213579241500,2.389241455078125,-0.17570647597312927,0.2171168476343155,-0.19225016236305237
1772648213589281500,2.399281494140625,-0.19626501202583313,0.1961737424135208,-0.23498298227787018
1772648213599322600,2.409322509765625,-0.1886119544506073,0.17928682267665863,-0.2629640996456146
1772648213609362400,2.419362548828125,-0.2049347311258316,0.21951332688331604,-0.27765968441963196
1772648213619403300,2.4294033203125,-0.2571626305580139,0.31087440252304077,-0.2825131118297577
1772648213629443300,2.439443359375,-0.2851924002170563,0.383256196975708,-0.2903137803077698
1772648213639484400,2.449484375,-0.2120235413312912,0.38876888155937195,-0.3111339509487152
1772648213649524500,2.4595244140625,-0.1507367491722107,0.3305758833885193,-0.2742704749107361
1772648213659565600,2.469565673828125,-0.10262187570333481,0.20197880268096924,-0.25775212049484253
1772648213669605400,2.47960546875,-0.010302862152457237,0.08866555243730545,-0.27154114842414856
1772648213679645400,2.4896455078125,0.09668343514204025,-0.02226978912949562,-0.2822876572608948
1772648213689686500,2.4996865234375,0.2001054286956787,-0.12799996137619019,-0.2983989715576172
1772648213699726600,2.5097265625,0.29617059230804443,-0.21776330471038818,-0.3377124071121216
1772648213709767700,2.519767578125,0.35982146859169006,-0.2882441282272339,-0.3889489769935608
1772648213719807500,2.529807373046875,0.37928733229637146,-0.34801968932151794,-0.42064017057418823
1772648213729848300,2.539848388671875,0.35850510001182556,-0.40907159447669983,-0.4095339775085449
1772648213739888400,2.549888427734375,0.3190050721168518,-0.48597317934036255,-0.354529470205307
1772648213749929500,2.559929443359375,0.2935226261615753,-0.5554657578468323,-0.26889288425445557
1772648213759969500,2.569969482421875,0.2892014682292938,-0.6110371947288513,-0.1740121990442276
1772648213770010400,2.58001025390625,0.29772117733955383,-0.6665089726448059,-0.06628388166427612
1772648213780050400,2.590050537109375,0.3174201250076294,-0.6971995234489441,0.02719982899725437
1772648213790091500,2.600091552734375,0.3321804404258728,-0.6840632557868958,0.09909692406654358
1772648213800131600,2.610131591796875,0.33283567428588867,-0.6381070017814636,0.14690613746643066
1772648213810172700,2.620172607421875,0.3210490345954895,-0.5760513544082642,0.18335922062397003
1772648213820212500,2.63021240234375,0.30482766032218933,-0.48578590154647827,0.21932992339134216
1772648213830253300,2.64025341796875,0.2844470143318176,-0.3492099344730377,0.24432049691677094
1772648213840293400,2.65029345703125,0.259391725063324,-0.18924328684806824,0.24773956835269928
1772648213850334500,2.66033447265625,0.23350980877876282,-0.017766347154974937,0.20851945877075195
1772648213860374500,2.67037451171875,0.20882052183151245,0.10097137093544006,0.16741511225700378
1772648213870415400,2.680415283203125,0.18434473872184753,0.1624448597431183,0.16372530162334442
1772648213880454700,2.69045458984375,0.13953030109405518,0.17513923346996307,0.1563558280467987
1772648213890495700,2.700495849609375,0.0890389010310173,0.1402616798877716,0.1400783210992813
1772648213900535800,2.710535888671875,0.053359732031822205,0.04913582280278206,0.1427358239889145
1772648213910577000,2.720576904296875,0.011498305015265942,-0.08170394599437714,0.1615222841501236
1772648213920616700,2.73061669921875,-0.01981203258037567,-0.20574578642845154,0.19278109073638916
1772648213930657500,2.740657470703125,-0.034102022647857666,-0.3114064335823059,0.24924437701702118
1772648213940697600,2.750697509765625,-0.038745515048503876,-0.4160309135913849,0.3108779788017273
1772648213950738700,2.76073876953125,-0.032899074256420135,-0.49023669958114624,0.3662749230861664
1772648213960778800,2.77077880859375,-0.03088323585689068,-0.5369840264320374,0.4048192799091339
1772648213970818800,2.78081884765625,-0.031146088615059853,-0.5545073747634888,0.4161888659000397
1772648213980859600,2.790859619140625,-0.03651467338204384,-0.5707669258117676,0.3974452018737793
1772648213990899700,2.800899658203125,-0.04549857974052429,-0.5551445484161377,0.3615945279598236
1772648214000940800,2.81094091796875,-0.055407751351594925,-0.5249844789505005,0.32520154118537903
1772648214010980900,2.82098095703125,-0.06444758921861649,-0.49168139696121216,0.29540103673934937
1772648214021022000,2.83102197265625,-0.07270106673240662,-0.49581024050712585,0.29097622632980347
1772648214031061800,2.841061767578125,-0.09273257106542587,-0.5039403438568115,0.27347713708877563
1772648214041102600,2.8511025390625,-0.119560107588768,-0.48555848002433777,0.23660026490688324
1772648214051142700,2.861142578125,-0.14415468275547028,-0.5201843976974487,0.17792870104312897
1772648214061183700,2.871183837890625,-0.13514110445976257,-0.5154397487640381,0.13994917273521423
1772648214071223800,2.881223876953125,-0.131583109498024,-0.5189814567565918,0.13439835608005524
1772648214081264600,2.8912646484375,-0.1305730640888214,-0.5096304416656494,0.1451738029718399
1772648214091304700,2.9013046875,-0.13270094990730286,-0.5064980387687683,0.13840004801750183
1772648214101345800,2.911345703125,-0.11962810158729553,-0.45914310216903687,0.11209602653980255
1772648214111385900,2.9213857421875,-0.10697995126247406,-0.4041900932788849,0.09944281727075577
1772648214121427000,2.931427001953125,-0.08678281307220459,-0.3285757899284363,0.08086651563644409
1772648214131466800,2.941466796875,-0.0643712505698204,-0.2363864779472351,0.06332320719957352
1772648214141507600,2.951507568359375,-0.03261225298047066,-0.13650526106357574,0.05625474452972412
1772648214151547600,2.961547607421875,-0.0007802894106134772,-0.03869160637259483,0.06328655779361725
1772648214161588700,2.971588623046875,0.03316036984324455,0.04891287162899971,0.06655444949865341
1772648214171628800,2.98162890625,0.06695907562971115,0.11193657666444778,0.07807209342718124
1772648214181669600,2.991669677734375,0.09930184483528137,0.159589484333992,0.0944942981004715
1772648214191709700,3.001709716796875,0.12994550168514252,0.19753099977970123,0.11560571193695068
1772648214201750800,3.011750732421875,0.157385915517807,0.22477424144744873,0.13831084966659546
1772648214211790800,3.021790771484375,0.17307299375534058,0.23242363333702087,0.15322348475456238
1772648214221831700,3.031831787109375,0.16827604174613953,0.20092211663722992,0.14502942562103271
1772648214231871700,3.041871826171875,0.16449089348316193,0.14744476974010468,0.10352060198783875
1772648214241912800,3.051912841796875,0.15349939465522766,0.07441477477550507,0.07149681448936462
1772648214251952600,3.06195263671875,0.13611853122711182,-0.02449849434196949,0.05229596048593521
1772648214261993700,3.07199365234375,0.10429492592811584,-0.1585191935300827,0.033852335065603256
1772648214272033800,3.08203369140625,0.07049381732940674,-0.27535179257392883,0.020074205473065376
1772648214282073900,3.092073974609375,0.041615016758441925,-0.35805314779281616,0.008808883838355541
1772648214292114700,3.10211474609375,0.022609103471040726,-0.38710451126098633,-0.0024823860730975866
1772648214302155800,3.11215576171875,0.018433550372719765,-0.3728940486907959,0.002849412616342306
1772648214312195800,3.12219580078125,0.009828876703977585,-0.38000816106796265,0.02352859079837799
1772648214322236000,3.13223583984375,0.016262438148260117,-0.37872064113616943,0.032687537372112274
1772648214332276700,3.14227685546875,0.023064684122800827,-0.3426782190799713,0.02972237393260002
1772648214342316500,3.152316650390625,0.011294846422970295,-0.32238104939460754,0.047923579812049866
1772648214352357600,3.162357666015625,-0.025327078998088837,-0.3961023986339569,0.06246763467788696
1772648214362397700,3.172397705078125,-0.050501324236392975,-0.39992091059684753,0.09619325399398804
1772648214372438800,3.182438720703125,-0.03531278297305107,-0.32226020097732544,0.2143675684928894
1772648214382478600,3.192478515625,0.006691033020615578,-0.2105063945055008,0.36223354935646057
1772648214392519700,3.202519775390625,0.05111175775527954,-0.09292171895503998,0.4685400128364563
1772648214402559700,3.212559814453125,0.06939011067152023,-0.07084372639656067,0.5081163048744202
1772648214412600800,3.222600830078125,0.10014216601848602,-0.08962833136320114,0.5274487137794495
1772648214422641000,3.232640869140625,0.14037230610847473,-0.08158675581216812,0.5656123757362366
1772648214432681700,3.242681640625,0.1506102979183197,-0.058809541165828705,0.5537053942680359
1772648214442721800,3.2527216796875,0.1355726718902588,-0.019459592178463936,0.5008156299591064
1772648214452763000,3.262762939453125,0.11151526123285294,0.04261736199259758,0.42102357745170593
1772648214462802700,3.272802734375,0.09013959765434265,0.10422156006097794,0.3437159061431885
1772648214472843500,3.282843505859375,0.057306017726659775,0.1412821114063263,0.26240456104278564
1772648214482883600,3.292883544921875,0.017962610349059105,0.14600235223770142,0.16734828054904938
1772648214492924700,3.302924560546875,-0.04411141574382782,0.09774135053157806,0.09012991189956665
1772648214502964700,3.31296484375,-0.11693590879440308,-0.010984494350850582,0.06102459132671356
1772648214513005800,3.323005859375,-0.18026003241539001,-0.1622789353132248,0.05059272050857544
1772648214523046000,3.3330458984375,-0.23320332169532776,-0.2854189872741699,0.03447725251317024
1772648214533086700,3.343086669921875,-0.26976531744003296,-0.3485260605812073,0.012604977935552597
1772648214543126800,3.353126708984375,-0.2769167125225067,-0.3257870376110077,0.001889801467768848
1772648214553168000,3.36316796875,-0.25716695189476013,-0.2188541740179062,-0.0012748327571898699
1772648214563207700,3.373207763671875,-0.20646518468856812,-0.054526060819625854,0.004008755087852478
1772648214573248500,3.38324853515625,-0.1366586685180664,0.13703244924545288,0.008386459201574326
1772648214583288600,3.39328857421875,-0.06818833947181702,0.33542731404304504,-0.002065767766907811
1772648214593329700,3.40332958984375,0.004389985464513302,0.5371026396751404,-0.021452516317367554
1772648214603369700,3.41336962890625,0.06313976645469666,0.7111798524856567,-0.056000955402851105
1772648214613409800,3.423409912109375,0.1037985160946846,0.8415165543556213,-0.09804481267929077
1772648214623451000,3.433450927734375,0.11651048809289932,0.920097291469574,-0.14141754806041718
1772648214633490700,3.44349072265625,0.10970903933048248,0.9494551420211792,-0.1695898026227951
1772648214643531800,3.45353173828125,0.08728032559156418,0.9239364862442017,-0.18850894272327423
1772648214653571800,3.46357177734375,0.05761484429240227,0.8663661479949951,-0.2071465402841568
1772648214663613000,3.473613037109375,0.022676048800349236,0.7888198494911194,-0.21469014883041382
1772648214673652700,3.48365283203125,-0.021436817944049835,0.6960361003875732,-0.21157053112983704
1772648214683693600,3.493693603515625,-0.059337589889764786,0.6025899648666382,-0.22463323175907135
1772648214693733600,3.503733642578125,-0.09500104933977127,0.5245246887207031,-0.24882164597511292
1772648214703774700,3.513774658203125,-0.12582999467849731,0.4698916971683502,-0.2598096430301666
1772648214713814800,3.523814697265625,-0.15075397491455078,0.4303749203681946,-0.2664414346218109
1772648214723855600,3.533855712890625,-0.16885824501514435,0.40632936358451843,-0.2767975926399231
1772648214733895700,3.543895751953125,-0.17931167781352997,0.39188599586486816,-0.2946535646915436
1772648214743936800,3.553936767578125,-0.19020666182041168,0.3927939236164093,-0.3020024001598358
1772648214753976800,3.563976806640625,-0.20146997272968292,0.42083701491355896,-0.30250468850135803
1772648214764018000,3.574017822265625,-0.20214109122753143,0.45714181661605835,-0.2909354269504547
1772648214774057700,3.5840576171875,-0.20798060297966003,0.4841710329055786,-0.27746355533599854
1772648214784098600,3.5940986328125,-0.20820917189121246,0.49894288182258606,-0.2522319555282593
1772648214794138600,3.604138671875,-0.2120095044374466,0.49470633268356323,-0.21830832958221436
1772648214804179700,3.6141796875,-0.21481578052043915,0.47919175028800964,-0.18308350443840027
1772648214814219800,3.6242197265625,-0.2155689150094986,0.45769739151000977,-0.1506752371788025
1772648214824260600,3.634260498046875,-0.21497584879398346,0.4373666048049927,-0.12488308548927307
1772648214834300700,3.64430078125,-0.22434137761592865,0.4018717110157013,-0.11640890687704086
1772648214844341800,3.654341796875,-0.2317468374967575,0.36173760890960693,-0.11054271459579468
1772648214854381800,3.6643818359375,-0.24476277828216553,0.3246970474720001,-0.11306419968605042
1772648214864423000,3.6744228515625,-0.26242873072624207,0.3026057183742523,-0.11657724529504776
1772648214874462700,3.684462646484375,-0.27981120347976685,0.3179175555706024,-0.1250293105840683
1772648214884503800,3.69450390625,-0.31087973713874817,0.3396608829498291,-0.128142848610878
1772648214894544000,3.7045439453125,-0.3394152522087097,0.32694828510284424,-0.13087338209152222
1772648214904584000,3.714583984375,-0.37429898977279663,0.2985142469406128,-0.13884112238883972
1772648214914625000,3.724625,-0.40589794516563416,0.27456042170524597,-0.16045640408992767
1772648214924665900,3.734665771484375,-0.4753134250640869,0.3198421001434326,-0.1706721931695938
1772648214934705700,3.74470556640625,-0.4608364701271057,0.280811607837677,-0.1809389442205429
1772648214944745700,3.754745849609375,-0.3839481770992279,0.23541522026062012,-0.17132164537906647
1772648214954786800,3.764786865234375,-0.38218435645103455,0.24129602313041687,-0.16201947629451752
1772648214964827000,3.774826904296875,-0.38219279050827026,0.2548225522041321,-0.17302173376083374
1772648214974867700,3.78486767578125,-0.3705694377422333,0.29498356580734253,-0.17487528920173645
1772648214984907800,3.79490771484375,-0.3512965738773346,0.3737371861934662,-0.1636105626821518
1772648214994948900,3.804948974609375,-0.3366473317146301,0.4813970625400543,-0.15971142053604126
1772648215004989000,3.814989013671875,-0.3259793221950531,0.5850375294685364,-0.15755178034305573
1772648215015030000,3.825030029296875,-0.32842037081718445,0.6848429441452026,-0.15237246453762054
1772648215025070000,3.835070068359375,-0.3283761441707611,0.75754314661026,-0.13807202875614166
1772648215035111000,3.84511083984375,-0.3178177773952484,0.7924899458885193,-0.11821895837783813
1772648215045150700,3.855150634765625,-0.3091174364089966,0.7905056476593018,-0.09793487191200256
1772648215055191800,3.86519189453125,-0.2671894431114197,0.7382200360298157,-0.08615890145301819
1772648215065232000,3.87523193359375,-0.22452132403850555,0.6874496340751648,-0.10766240209341049
1772648215075272700,3.885272705078125,-0.18123669922351837,0.5664110779762268,-0.12847819924354553
1772648215085312800,3.895312744140625,-0.14644142985343933,0.39266732335090637,-0.13911281526088715
1772648215095353900,3.905353759765625,-0.04935881868004799,0.22135867178440094,-0.15497514605522156
1772648215105394000,3.915393798828125,0.04166295751929283,0.06473636627197266,-0.1543796807527542
1772648215115435000,3.92543505859375,0.14140713214874268,-0.08507150411605835,-0.1547783464193344
1772648215125474800,3.935474853515625,0.2353508472442627,-0.2233688235282898,-0.1561698019504547
1772648215135516000,3.945515869140625,0.30617842078208923,-0.3333190083503723,-0.1546560674905777
1772648215145555700,3.9555556640625,0.3486649692058563,-0.4042358994483948,-0.1447049379348755
1772648215155597000,3.96559716796875,0.3599165380001068,-0.4751034379005432,-0.12566867470741272
1772648215165636900,3.975636962890625,0.3465327322483063,-0.5401622653007507,-0.05820375308394432
1772648215175677700,3.985677734375,0.324656218290329,-0.595507800579071,0.04310928285121918
1772648215185717800,3.9957177734375,0.31997376680374146,-0.6480451226234436,0.1395457535982132
1772648215195758800,4.0057587890625,0.33340543508529663,-0.6592216491699219,0.2359202355146408
1772648215205799000,4.015798828125,0.34837043285369873,-0.6446768045425415,0.33136868476867676
1772648215215839700,4.02583984375,0.346445232629776,-0.6150835156440735,0.4124717712402344
1772648215225879800,4.0358798828125,0.3286793529987335,-0.5726558566093445,0.46450182795524597
1772648215235921000,4.0459208984375,0.3090484142303467,-0.49665963649749756,0.4994984269142151
1772648215245961000,4.0559609375,0.2806161344051361,-0.3905045688152313,0.518476128578186
1772648215256002000,4.066001953125,0.24474577605724335,-0.27565041184425354,0.5245124101638794
1772648215266041900,4.076041748046875,0.21736466884613037,-0.1558801680803299,0.49719130992889404
1772648215276082000,4.08608203125,0.19006779789924622,-0.055371131747961044,0.42936378717422485
1772648215286122800,4.096122802734375,0.16422048211097717,0.02883855625987053,0.339389443397522
1772648215296162800,4.106162841796875,0.11470299959182739,0.08383602648973465,0.25042521953582764
1772648215306204000,4.116203857421875,0.07875368744134903,0.09599707275629044,0.1795336902141571
1772648215316244000,4.126243896484375,0.06979134678840637,0.06677686423063278,0.13899771869182587
1772648215326284800,4.136284912109375,0.06694585084915161,-0.011806517839431763,0.12289703637361526
1772648215336324900,4.146324951171875,0.057885508984327316,-0.1293531209230423,0.13195736706256866
1772648215346366000,4.156365966796875,0.051712747663259506,-0.27300530672073364,0.17330652475357056
1772648215356405800,4.16640576171875,0.04541197419166565,-0.396072655916214,0.22154010832309723
1772648215366446800,4.17644677734375,0.05746135488152504,-0.4898848831653595,0.2807362377643585
1772648215376486700,4.186486572265625,0.0671272948384285,-0.5984593033790588,0.35278111696243286
1772648215386527700,4.19652783203125,0.07047028094530106,-0.6809372901916504,0.3902156949043274
1772648215396567800,4.20656787109375,0.08031944930553436,-0.7036551237106323,0.3694677948951721
1772648215406609000,4.21660888671875,0.08340667188167572,-0.7140561938285828,0.3462528586387634
1772648215416649000,4.22664892578125,0.08582935482263565,-0.7062435150146484,0.32764774560928345
1772648215426689800,4.236689697265625,0.07200471311807632,-0.6922760009765625,0.2828483581542969
1772648215436729900,4.246729736328125,0.04528975114226341,-0.7030231952667236,0.22487427294254303
1772648215446771000,4.25677099609375,0.040097564458847046,-0.6949854493141174,0.17808984220027924
1772648215456811000,4.26681103515625,0.028577527031302452,-0.6704976558685303,0.13305339217185974
1772648215466851800,4.276851806640625,0.004964510444551706,-0.6551617980003357,0.08310144394636154
1772648215476891600,4.2868916015625,-0.009016552940011024,-0.6480607390403748,0.04789391905069351
1772648215486932700,4.2969326171875,-0.009516061283648014,-0.6506443023681641,0.0355132520198822
1772648215496972800,4.306972900390625,-0.011386399157345295,-0.649903416633606,0.041964225471019745
1772648215507014000,4.317013916015625,-0.013233316130936146,-0.6163116097450256,0.05492178350687027
1772648215517054000,4.327053955078125,0.0047813705168664455,-0.6225212812423706,0.04926230013370514
1772648215527094800,4.3370947265625,0.018210912123322487,-0.6081655621528625,0.04301423951983452
1772648215537134800,4.347134765625,0.016093432903289795,-0.5957408547401428,0.016508597880601883
1772648215547176000,4.357176025390625,0.02987225539982319,-0.5251955389976501,-0.011822406202554703
1772648215557216000,4.367216064453125,0.05074504762887955,-0.424148827791214,-0.034590572118759155
1772648215567256800,4.3772568359375,0.07044560462236404,-0.3170103132724762,-0.0569763258099556
1772648215577296600,4.387296630859375,0.09168298542499542,-0.2112780064344406,-0.0701933279633522
1772648215587338000,4.397337890625,0.11395811289548874,-0.11876794695854187,-0.06337904930114746
1772648215597377800,4.407377685546875,0.13700218498706818,-0.03520620986819267,-0.04623334854841232
1772648215607419000,4.4174189453125,0.1609593629837036,0.04329248517751694,-0.02124408632516861
1772648215617459000,4.427458984375,0.1828545331954956,0.10937350988388062,0.024747906252741814
1772648215627498800,4.437498779296875,0.1865900754928589,0.12542028725147247,0.09916059672832489
1772648215637539800,4.447539794921875,0.18691284954547882,0.13457517325878143,0.1502445638179779
1772648215647580000,4.457579833984375,0.1995791643857956,0.15936784446239471,0.19239643216133118
1772648215657621000,4.46762109375,0.20012111961841583,0.17394597828388214,0.19550994038581848
1772648215667661000,4.4776611328125,0.1910821944475174,0.16691893339157104,0.15371891856193542
1772648215677702000,4.487701904296875,0.17421852052211761,0.1376017928123474,0.09303160011768341
1772648215687741700,4.49774169921875,0.15756505727767944,0.10902883112430573,0.051283907145261765
1772648215697782800,4.50778271484375,0.1379239857196808,0.08136072009801865,0.031007396057248116
1772648215707822800,4.51782275390625,0.1127796545624733,0.034798428416252136,0.015137643553316593
1772648215717863700,4.52786376953125,0.09628430008888245,-0.02600925974547863,0.006519654765725136
1772648215727903700,4.53790380859375,0.09177333861589432,-0.06692863255739212,0.006589525379240513
1772648215737944800,4.54794482421875,0.10046030580997467,-0.09401404112577438,0.02235996723175049
1772648215747985000,4.55798486328125,0.11272011697292328,-0.1122535765171051,0.020689254626631737
1772648215758026000,4.56802587890625,0.11669249087572098,-0.14475184679031372,-0.0019851645920425653
1772648215768066000,4.578066162109375,0.1090451031923294,-0.18292146921157837,-0.05080638825893402
1772648215778107000,4.58810693359375,0.09420543909072876,-0.21128520369529724,-0.11940275877714157
1772648215788146700,4.598146728515625,0.07086052745580673,-0.23595966398715973,-0.18157364428043365
1772648215798188000,4.60818798828125,0.04233220964670181,-0.24921075999736786,-0.23507681488990784
1772648215808227800,4.618227783203125,0.007234410382807255,-0.24796748161315918,-0.26531046628952026
1772648215818268700,4.6282685546875,-0.043768055737018585,-0.25026366114616394,-0.26222172379493713
1772648215828308700,4.638308837890625,-0.11554112285375595,-0.2848172187805176,-0.22349829971790314
1772648215838349800,4.648349853515625,-0.1862563043832779,-0.30548280477523804,-0.17209742963314056
1772648215848390000,4.658389892578125,-0.2434755563735962,-0.24505259096622467,-0.08599034696817398
1772648215858431000,4.668430908203125,-0.2712917625904083,-0.13920791447162628,0.03038925863802433
1772648215868470800,4.678470703125,-0.24448427557945251,0.004992398899048567,0.1424831598997116
1772648215878511900,4.688511962890625,-0.1716686636209488,0.1644371896982193,0.2470252811908722
1772648215888552200,4.69855224609375,-0.09750895947217941,0.2705629765987396,0.2738538384437561
1772648215898593300,4.70859326171875,-0.06770046800374985,0.30244341492652893,0.24097178876399994
1772648215908633300,4.71863330078125,-0.07522007822990417,0.2934056520462036,0.21048833429813385
1772648215918674200,4.728674072265625,-0.09409017115831375,0.267563134431839,0.20115795731544495
1772648215928714000,4.7387138671875,-0.0907718688249588,0.28447291254997253,0.21670673787593842
1772648215938755000,4.748755126953125,-0.082744300365448,0.3292995095252991,0.25890347361564636
1772648215948795100,4.758795166015625,-0.06481482833623886,0.3846657872200012,0.2718381881713867
1772648215958836000,4.7688359375,-0.0372532419860363,0.43426424264907837,0.23294885456562042
1772648215968876000,4.7788759765625,-0.01469022873789072,0.4596679210662842,0.16652734577655792
1772648215978916000,4.788916015625,-0.018003467470407486,0.4401906132698059,0.10391136258840561
1772648215988957200,4.798957275390625,-0.050193995237350464,0.3843155801296234,0.03736881539225578
1772648215998997200,4.808997314453125,-0.09584909677505493,0.32362160086631775,-0.023440204560756683
1772648216009038300,4.819038330078125,-0.15221090614795685,0.2715626060962677,-0.06970562785863876
1772648216019078100,4.829078125,-0.2103402465581894,0.22404277324676514,-0.11328772455453873
1772648216029119200,4.839119140625,-0.26742544770240784,0.19957663118839264,-0.14339254796504974
1772648216039159000,4.849158935546875,-0.3107511103153229,0.20106960833072662,-0.16808484494686127
1772648216049200000,4.8592001953125,-0.34216707944869995,0.22387053072452545,-0.1758197396993637
1772648216059240200,4.869240234375,-0.3493128716945648,0.25586065649986267,-0.17403514683246613
1772648216069281000,4.879281005859375,-0.3364684283733368,0.2970581352710724,-0.17287714779376984
1772648216079321000,4.889321044921875,-0.3033967614173889,0.3488081395626068,-0.17064860463142395
1772648216089362200,4.899362060546875,-0.2552422881126404,0.40991726517677307,-0.16573691368103027
1772648216099402200,4.90940234375,-0.2013055682182312,0.4753287434577942,-0.16715797781944275
1772648216109443000,4.919443115234375,-0.15527744591236115,0.5432376861572266,-0.17598660290241241
1772648216119483100,4.929483154296875,-0.10707928240299225,0.5937895178794861,-0.1848277598619461
1772648216129524200,4.939524169921875,-0.06668154150247574,0.6200094819068909,-0.20507130026817322
1772648216139564000,4.94956396484375,-0.045226048678159714,0.6013084650039673,-0.22243112325668335
1772648216149605000,4.959605224609375,-0.03927190974354744,0.5524105429649353,-0.2615008056163788
1772648216159645200,4.969645263671875,-0.047541290521621704,0.47998854517936707,-0.31907087564468384
1772648216169686000,4.97968603515625,-0.07487872987985611,0.40850695967674255,-0.3693491220474243
1772648216179726000,4.98972607421875,-0.10965162515640259,0.35291588306427,-0.40493959188461304
1772648216189767200,4.99976708984375,-0.1415727436542511,0.3300068974494934,-0.4207858741283417
1772648216199807200,5.00980712890625,-0.17724019289016724,0.3284071385860443,-0.4191347360610962
1772648216209848000,5.01984814453125,-0.20984099805355072,0.3440890610218048,-0.41481974720954895
1772648216219888000,5.02988818359375,-0.24075177311897278,0.3669264614582062,-0.3971254527568817
1772648216229929200,5.03992919921875,-0.26062455773353577,0.38459324836730957,-0.37183335423469543
1772648216239969300,5.04996923828125,-0.2718745470046997,0.3991865813732147,-0.3409140706062317
1772648216250010400,5.06001025390625,-0.2824479043483734,0.4129522442817688,-0.3158671259880066
1772648216260050200,5.07005029296875,-0.2937588691711426,0.4115737974643707,-0.31952738761901855
1772648216270091000,5.080091064453125,-0.2851124107837677,0.4100489616394043,-0.324765145778656
1772648216280131000,5.090131103515625,-0.26596108078956604,0.4057988226413727,-0.32020795345306396
1772648216290172200,5.100172119140625,-0.24256068468093872,0.40235355496406555,-0.3069491684436798
1772648216300212200,5.110212158203125,-0.21295832097530365,0.4006986618041992,-0.2887214124202728
1772648216310252300,5.120252197265625,-0.18267986178398132,0.39586544036865234,-0.266182541847229
1772648216320293000,5.130293212890625,-0.16284650564193726,0.3686327636241913,-0.24875400960445404
1772648216330333200,5.140333251953125,-0.15778543055057526,0.3260366916656494,-0.2370556890964508
1772648216340374300,5.150374267578125,-0.1553819179534912,0.28121620416641235,-0.22152680158615112
1772648216350414000,5.1604140625,-0.15936380624771118,0.2352149933576584,-0.21041180193424225
1772648216360455000,5.170454833984375,-0.1753249317407608,0.19262492656707764,-0.20946425199508667
1772648216370495000,5.180494873046875,-0.1884407103061676,0.17173823714256287,-0.21343126893043518
1772648216380536000,5.1905361328125,-0.2037549614906311,0.1695195585489273,-0.21700070798397064
1772648216390576000,5.200576171875,-0.21847212314605713,0.16442318260669708,-0.20903795957565308
1772648216400617200,5.2106171875,-0.2327067106962204,0.1556302160024643,-0.19615811109542847
1772648216410657300,5.2206572265625,-0.2450515329837799,0.13699491322040558,-0.18892326951026917
1772648216420698000,5.230697998046875,-0.24209462106227875,0.14511701464653015,-0.18587954342365265
1772648216430738200,5.24073828125,-0.2244628220796585,0.17405879497528076,-0.16825160384178162
1772648216440779300,5.250779296875,-0.19667699933052063,0.21020695567131042,-0.13624653220176697
1772648216450819300,5.2608193359375,-0.15914763510227203,0.24006514251232147,-0.09371455758810043
1772648216460860200,5.270860107421875,-0.11665717512369156,0.26792311668395996,-0.04046891629695892
1772648216470900000,5.28089990234375,-0.0697920173406601,0.3156425654888153,0.012193012051284313
1772648216480941000,5.290941162109375,-0.020613284781575203,0.39565005898475647,0.06628207862377167
1772648216490981000,5.300981201171875,0.022270534187555313,0.4928992688655853,0.0928698480129242
1772648216501022200,5.311022216796875,0.043947868049144745,0.5962911248207092,0.10255656391382217
1772648216511062300,5.321062255859375,0.05059289559721947,0.6754093170166016,0.09694850444793701
1772648216521103000,5.33110302734375,0.05901780351996422,0.7367605566978455,0.08385720103979111
1772648216531143200,5.34114306640625,0.06258493661880493,0.7759671807289124,0.06631439924240112
1772648216541184300,5.351184326171875,0.07398858666419983,0.7944572567939758,0.023423127830028534
1772648216551224300,5.361224365234375,0.10281871259212494,0.7753280401229858,-0.05771317705512047
1772648216561265200,5.37126513671875,0.1359841227531433,0.6875092387199402,-0.127053901553154
1772648216571305000,5.381304931640625,0.15652349591255188,0.4989418685436249,-0.15714137256145477
1772648216581346000,5.391345947265625,0.20213626325130463,0.30157262086868286,-0.1626834124326706
1772648216591386000,5.40138623046875,0.2670927345752716,0.12330451607704163,-0.1555659919977188
1772648216601427200,5.41142724609375,0.33369600772857666,-0.019068079069256783,-0.15655481815338135
1772648216611467000,5.421467041015625,0.40537887811660767,-0.09929316490888596,-0.17787930369377136
1772648216621508000,5.431508056640625,0.4575752317905426,-0.15707442164421082,-0.19346065819263458
1772648216631548200,5.441548095703125,0.4598182439804077,-0.2479633092880249,-0.16600105166435242
1772648216641589200,5.45158935546875,0.42805445194244385,-0.3834713399410248,-0.10163111239671707
1772648216651629300,5.46162939453125,0.40000981092453003,-0.5255786776542664,-0.013787650503218174
1772648216661670100,5.471670166015625,0.40278881788253784,-0.6537801027297974,0.08007359504699707
1772648216671710200,5.481710205078125,0.4275589883327484,-0.7807282209396362,0.17860163748264313
1772648216681751300,5.491751220703125,0.45530804991722107,-0.8869529366493225,0.27959564328193665
1772648216691791000,5.501791015625,0.48243626952171326,-0.9496039152145386,0.3617296814918518
1772648216701831200,5.5118310546875,0.508713960647583,-0.9364314079284668,0.42044705152511597
1772648216711872000,5.5218720703125,0.5235530138015747,-0.8655856847763062,0.45434629917144775
1772648216721912000,5.531912109375,0.5188666582107544,-0.7644302845001221,0.46452969312667847
1772648216731953200,5.541953125,0.49485448002815247,-0.6563472747802734,0.4528728425502777
1772648216741993200,5.5519931640625,0.4602019786834717,-0.5432007312774658,0.41058558225631714
1772648216752034300,5.562034423828125,0.4322330057621002,-0.435628205537796,0.3488157391548157
1772648216762074000,5.57207421875,0.4049031138420105,-0.3529743254184723,0.27290287613868713
1772648216772115200,5.582115234375,0.3744564652442932,-0.3102829158306122,0.19932959973812103
1772648216782155000,5.592155029296875,0.34783950448036194,-0.3059837818145752,0.1355024129152298
1772648216792196000,5.602196044921875,0.3111801743507385,-0.35358259081840515,0.09089399874210358
1772648216802236200,5.612236083984375,0.27262452244758606,-0.4553031027317047,0.06934502720832825
1772648216812277000,5.622277099609375,0.2404182255268097,-0.5941380262374878,0.07482758164405823
1772648216822317000,5.632317138671875,0.2003970444202423,-0.7252382636070251,0.11499816924333572
1772648216832358100,5.642358154296875,0.16834978759288788,-0.8374501466751099,0.17219309508800507
1772648216842398200,5.652398193359375,0.15496207773685455,-0.9241639971733093,0.23818622529506683
1772648216852439000,5.66243896484375,0.15722373127937317,-0.9857774972915649,0.303438663482666
1772648216862479000,5.67247900390625,0.17249643802642822,-1.0175164937973022,0.3522179424762726
1772648216872520200,5.682520263671875,0.19051271677017212,-1.0163902044296265,0.3761701285839081
1772648216882559700,5.692559814453125,0.2020529955625534,-1.0024336576461792,0.38224905729293823
1772648216892600800,5.702600830078125,0.21222616732120514,-0.9868452548980713,0.3733977973461151
1772648216902641000,5.712640869140625,0.2026747465133667,-0.9735347628593445,0.3439432382583618
1772648216912681700,5.722681640625,0.19715075194835663,-0.9488652944564819,0.29379066824913025
1772648216922721800,5.7327216796875,0.19113333523273468,-0.9294830560684204,0.250072717666626
1772648216932763000,5.742762939453125,0.1928286850452423,-0.9176509380340576,0.21564370393753052
1772648216942802700,5.752802734375,0.17155110836029053,-0.9363042712211609,0.19545987248420715
1772648216952843800,5.76284375,0.1469724327325821,-0.9554281234741211,0.1807037591934204
1772648216962883600,5.772883544921875,0.11368957161903381,-1.0050976276397705,0.18567028641700745
1772648216972924700,5.782924560546875,0.09441947191953659,-1.078909158706665,0.20318704843521118
1772648216982964700,5.79296484375,0.06035684421658516,-1.13761568069458,0.18953515589237213
1772648216993005800,5.803005859375,0.07044179737567902,-1.1013814210891724,0.15431733429431915
1772648217003046000,5.8130458984375,0.10320187360048294,-1.0002659559249878,0.13445627689361572
1772648217013086700,5.823086669921875,0.11586412787437439,-0.8980128765106201,0.11662274599075317
1772648217023126800,5.833126708984375,0.11024672538042068,-0.8105027675628662,0.08483579009771347
1772648217033168000,5.84316796875,0.09847386926412582,-0.735950767993927,0.028108183294534683
1772648217043208000,5.8532080078125,0.09345860779285431,-0.647416889667511,-0.051419395953416824
1772648217053248800,5.863248779296875,0.10334993153810501,-0.5460428595542908,-0.13996802270412445
1772648217063288600,5.87328857421875,0.12383709847927094,-0.4296973943710327,-0.1883520781993866
1772648217073329700,5.88332958984375,0.12197022885084152,-0.32721003890037537,-0.1906432956457138
1772648217083369700,5.89336962890625,0.11528702080249786,-0.2555084228515625,-0.15523496270179749
1772648217093410800,5.903410888671875,0.11153995990753174,-0.18698976933956146,-0.10560648888349533
1772648217103451000,5.913450927734375,0.1148766353726387,-0.10522593557834625,-0.04653571546077728
1772648217113491700,5.92349169921875,0.1060110554099083,-0.038258831948041916,0.0060364617966115475
1772648217123531800,5.93353173828125,0.1111895740032196,0.017582591623067856,0.027023237198591232
1772648217133572900,5.94357275390625,0.12349605560302734,0.07507438957691193,0.033305324614048004
1772648217143613000,5.953613037109375,0.1419810652732849,0.11975238472223282,0.03663773834705353
1772648217153653800,5.96365380859375,0.1409507393836975,0.09591041505336761,0.028406601399183273
1772648217163693600,5.973693603515625,0.12371796369552612,0.022810902446508408,0.013446294702589512
1772648217173734700,5.983734619140625,0.09575025737285614,-0.06295842677354813,0.003911430947482586
1772648217183774700,5.993774658203125,0.06661660969257355,-0.15149573981761932,0.01636810041964054
1772648217193815800,6.00381591796875,0.04122433066368103,-0.2256210595369339,0.03693399578332901
1772648217203856000,6.01385595703125,0.04392477869987488,-0.2370135337114334,0.06347186118364334
1772648217213896700,6.023896728515625,0.05295715108513832,-0.2190764993429184,0.07363305985927582
1772648217223936800,6.033936767578125,0.06418318301439285,-0.1874711811542511,0.06775865703821182
1772648217233976800,6.043976806640625,0.07350639253854752,-0.1569022834300995,0.04752011224627495
1772648217244018000,6.054017822265625,0.09096261113882065,-0.11618920415639877,0.01780589297413826
1772648217254058000,6.06405810546875,0.10446936637163162,-0.08453454822301865,-0.010930216871201992
1772648217264098800,6.074098876953125,0.10341795533895493,-0.08819053322076797,-0.028171256184577942
1772648217274138600,6.084138671875,0.057861652225255966,-0.18588966131210327,-0.019161514937877655
1772648217284179700,6.0941796875,-0.011193315498530865,-0.32858210802078247,-0.011091871187090874
1772648217294219800,6.1042197265625,-0.08036476373672485,-0.3621600270271301,0.020667893812060356
1772648217304260600,6.114260498046875,-0.1246587336063385,-0.2791575789451599,0.10503017902374268
1772648217314300700,6.12430078125,-0.1332388073205948,-0.1404322236776352,0.2091851681470871
1772648217324341800,6.134341796875,-0.10476641356945038,0.03553987294435501,0.3178490698337555
1772648217334381800,6.1443818359375,-0.06092723086476326,0.2142154425382614,0.4056188464164734
1772648217344423000,6.1544228515625,-0.04522256925702095,0.35040366649627686,0.42336001992225647
1772648217354463000,6.164462890625,-0.03088384121656418,0.45653343200683594,0.3911111056804657
1772648217364503800,6.17450390625,-0.02764703519642353,0.47920599579811096,0.3723291754722595
1772648217374543600,6.184543701171875,-0.01697337068617344,0.49289920926094055,0.34169885516166687
1772648217384584700,6.194584716796875,-0.006533780135214329,0.5306817293167114,0.29312998056411743
1772648217394624800,6.204624755859375,-0.0010422396007925272,0.5664020776748657,0.25180137157440186
1772648217404665600,6.21466552734375,0.002920277649536729,0.6010245084762573,0.20016027987003326
1772648217414705700,6.22470556640625,0.0014078684616833925,0.6186903119087219,0.15583862364292145
1772648217424746800,6.234746826171875,-0.0075573972426354885,0.6067478656768799,0.11227383464574814
1772648217434786800,6.244786865234375,-0.028378702700138092,0.5621564984321594,0.04037385806441307
1772648217444828000,6.254827880859375,-0.06916555017232895,0.4652402997016907,-0.042875759303569794
1772648217454867700,6.26486767578125,-0.12146177887916565,0.32446956634521484,-0.12534259259700775
1772648217464908800,6.27490869140625,-0.17505070567131042,0.16616807878017426,-0.18781210482120514
1772648217474948900,6.284948974609375,-0.21736077964305878,0.02711900696158409,-0.24781908094882965
1772648217484990000,6.294989990234375,-0.2396666258573532,-0.0779472291469574,-0.28642958402633667
1772648217495029800,6.30502978515625,-0.245689257979393,-0.13762742280960083,-0.29922908544540405
1772648217505070600,6.315070556640625,-0.2325737178325653,-0.1644398719072342,-0.2735881805419922
1772648217515110700,6.325110595703125,-0.19821202754974365,-0.165980726480484,-0.24464151263237
1772648217525151700,6.33515185546875,-0.15375003218650818,-0.12685756385326385,-0.21748365461826324
1772648217535191800,6.34519189453125,-0.09477148205041885,-0.06206999346613884,-0.19794100522994995
1772648217545233000,6.35523291015625,-0.039793454110622406,0.002313259057700634,-0.18861860036849976
1772648217555272700,6.365272705078125,0.005637945607304573,0.07231833785772324,-0.1777283102273941
1772648217565313800,6.375313720703125,0.03319127857685089,0.14031364023685455,-0.17781192064285278
1772648217575353900,6.385353759765625,0.052865371108055115,0.1915075182914734,-0.2042195051908493
1772648217585395000,6.39539501953125,0.05282276123762131,0.21410071849822998,-0.2366783767938614
1772648217595434800,6.405434814453125,0.038070883601903915,0.20533698797225952,-0.2603820860385895
1772648217605474800,6.415474853515625,0.00831139087677002,0.18687649071216583,-0.2870776355266571
1772648217615515600,6.425515625,-0.033623624593019485,0.18169239163398743,-0.32738229632377625
1772648217625556700,6.435556640625,-0.08448946475982666,0.19587717950344086,-0.34619566798210144
1772648217635596800,6.4455966796875,-0.12675346434116364,0.2212180197238922,-0.3471059501171112
1772648217645636900,6.455636962890625,-0.16647611558437347,0.2502667307853699,-0.3356058895587921
1772648217655677700,6.465677734375,-0.19865447282791138,0.2746977210044861,-0.33111298084259033
1772648217665717800,6.4757177734375,-0.21652935445308685,0.299144983291626,-0.32044488191604614
1772648217675758800,6.4857587890625,-0.22768354415893555,0.3067382872104645,-0.304899662733078
1772648217685799000,6.495798828125,-0.23257790505886078,0.3087276816368103,-0.27418968081474304
1772648217695840000,6.505840087890625,-0.2311001420021057,0.30681338906288147,-0.25199830532073975
1772648217705879800,6.5158798828125,-0.23200242221355438,0.29993975162506104,-0.2447206825017929
1772648217715920600,6.525920654296875,-0.23304927349090576,0.289590060710907,-0.24738961458206177
1772648217725960700,6.535960693359375,-0.23964698612689972,0.26824426651000977,-0.2606028914451599
1772648217736001800,6.546001708984375,-0.24690523743629456,0.23989100754261017,-0.2567761242389679
1772648217746041900,6.556041748046875,-0.24682986736297607,0.21491268277168274,-0.24342170357704163
1772648217756082700,6.566082763671875,-0.24705290794372559,0.19194598495960236,-0.2371695637702942
1772648217766122800,6.576122802734375,-0.24703213572502136,0.16868913173675537,-0.22738777101039886
1772648217776163800,6.586163818359375,-0.24505482614040375,0.14209569990634918,-0.20786456763744354
1772648217786204000,6.596203857421875,-0.24089708924293518,0.11061287671327591,-0.18319357931613922
1772648217796244700,6.60624462890625,-0.2379065304994583,0.08109564334154129,-0.1693897545337677
1772648217806284500,6.616284423828125,-0.23970869183540344,0.04494429752230644,-0.16805897653102875
1772648217816325600,6.62632568359375,-0.24482692778110504,0.007493436336517334,-0.180025115609169
1772648217826365700,6.63636572265625,-0.24974657595157623,-0.0226221214979887,-0.19266074895858765
1772648217836406800,6.64640673828125,-0.2549007833003998,-0.041922591626644135,-0.2098342925310135
1772648217846446800,6.65644677734375,-0.2600787878036499,-0.06185128912329674,-0.21965070068836212
1772648217856487700,6.66648779296875,-0.2746119201183319,-0.07519388943910599,-0.22754254937171936
1772648217866527700,6.67652783203125,-0.2764257788658142,-0.050325557589530945,-0.2295018434524536
1772648217876568800,6.68656884765625,-0.27117881178855896,-0.003972233738750219,-0.21805442869663239
1772648217886609400,6.696609375,-0.2673364281654358,0.037560563534498215,-0.19774702191352844
1772648217896650200,6.706650146484375,-0.26151156425476074,0.06805776059627533,-0.17485879361629486
1772648217906690300,6.716690185546875,-0.24723540246486664,0.08278024941682816,-0.16306285560131073
1772648217916731400,6.7267314453125,-0.22124332189559937,0.10078694671392441,-0.15712593495845795
1772648217926771200,6.736771240234375,-0.18308767676353455,0.12962844967842102,-0.14958493411540985
1772648217936812300,6.746812255859375,-0.139772430062294,0.17188379168510437,-0.14674976468086243
1772648217946852000,6.75685205078125,-0.09937654435634613,0.22528763115406036,-0.14699850976467133
1772648217956893200,6.76689306640625,-0.0651545524597168,0.2821005880832672,-0.14401119947433472
1772648217966933200,6.776933349609375,-0.038178056478500366,0.33097225427627563,-0.13940100371837616
1772648217976974300,6.786974365234375,-0.012987217865884304,0.3825656771659851,-0.1278090626001358
1772648217987014400,6.797014404296875,0.006927368231117725,0.4392702281475067,-0.10972806811332703
1772648217997054500,6.807054443359375,0.016141453757882118,0.48839810490608215,-0.09344751387834549
1772648218007095300,6.81709521484375,0.009418834932148457,0.5244978070259094,-0.08919497579336166
1772648218017135400,6.82713525390625,-0.002969742752611637,0.5546417832374573,-0.09625426679849625
1772648218027176400,6.837176513671875,-0.02300390414893627,0.5892676711082458,-0.09936084598302841
1772648218037216300,6.84721630859375,-0.044105641543865204,0.6334640383720398,-0.10150474309921265
1772648218047257000,6.857257080078125,-0.06327374279499054,0.6717017292976379,-0.10680975764989853
1772648218057297200,6.867297119140625,-0.08023443073034286,0.6818459630012512,-0.11289573460817337
1772648218067338200,6.877338134765625,-0.0881139263510704,0.6606674790382385,-0.13254426419734955
1772648218077378300,6.88737841796875,-0.08383432775735855,0.620638370513916,-0.1525879204273224
1772648218087419400,6.89741943359375,-0.0688154324889183,0.5546194314956665,-0.16316412389278412
1772648218097459200,6.907459228515625,-0.04367635026574135,0.45569759607315063,-0.17507511377334595
1772648218107500300,6.917500244140625,-0.0057678502053022385,0.3580000400543213,-0.17560668289661407
1772648218117540400,6.927540283203125,0.038845885545015335,0.2618825137615204,-0.16148217022418976
1772648218127581400,6.93758154296875,0.08614122867584229,0.16992489993572235,-0.12851622700691223
1772648218137621200,6.947621337890625,0.13466639816761017,0.09361360967159271,-0.0968562662601471
1772648218147662000,6.957662109375,0.19499552249908447,0.06437129527330399,-0.07993081212043762
1772648218157702100,6.9677021484375,0.2502090632915497,0.05083228275179863,-0.05097522586584091
1772648218167743200,6.9777431640625,0.2849060595035553,0.023232875391840935,-0.015872899442911148
1772648218177783300,6.987783203125,0.31717726588249207,0.011186370626091957,0.0068242489360272884
1772648218187824000,6.99782421875,0.34634339809417725,0.007566868793219328,0.04046822711825371
1772648218197864200,7.0078642578125,0.3611118197441101,-0.021844252943992615,0.08329477906227112
1772648218207905300,7.0179052734375,0.369599848985672,-0.06696299463510513,0.12780152261257172
1772648218217945300,7.0279453125,0.36844339966773987,-0.13154855370521545,0.16966256499290466
1772648218227986400,7.037986328125,0.3611713647842407,-0.20243364572525024,0.2222546637058258
1772648218238026500,7.048026611328125,0.3478250205516815,-0.25443384051322937,0.26559972763061523
1772648218248067300,7.0580673828125,0.33631616830825806,-0.2684710919857025,0.2938832938671112
1772648218258107100,7.068107177734375,0.32352516055107117,-0.24982702732086182,0.3145974278450012
1772648218268148200,7.078148193359375,0.2997841536998749,-0.2376539707183838,0.33632588386535645
1772648218278188300,7.088188232421875,0.27456822991371155,-0.2164573222398758,0.3512258231639862
1772648218288229000,7.09822900390625,0.25312340259552,-0.17402410507202148,0.34838318824768066
1772648218298269200,7.108269287109375,0.22281667590141296,-0.12033378332853317,0.32856518030166626
1772648218308310300,7.118310302734375,0.18469059467315674,-0.04582811892032623,0.3122999370098114
1772648218318350300,7.128350341796875,0.14589634537696838,0.044534534215927124,0.29494011402130127
1772648218328391400,7.138391357421875,0.10916735231876373,0.1378202736377716,0.2816919684410095
1772648218338431200,7.14843115234375,0.07479481399059296,0.220289409160614,0.25988948345184326
1772648218348472300,7.158472412109375,0.020245278254151344,0.25572916865348816,0.23467521369457245
1772648218358512000,7.16851220703125,-0.0331961028277874,0.2602057158946991,0.2110198736190796
1772648218368553200,7.17855322265625,-0.08889398723840714,0.23458504676818848,0.20185592770576477
1772648218378593300,7.18859326171875,-0.13338147103786469,0.19518662989139557,0.1920972466468811
1772648218388634000,7.198634033203125,-0.16370847821235657,0.16125927865505219,0.19544617831707
1772648218398674200,7.208674072265625,-0.17271298170089722,0.12209499627351761,0.23542587459087372
1772648218408714200,7.21871435546875,-0.17505230009555817,0.07209334522485733,0.28407755494117737
1772648218418755300,7.22875537109375,-0.1707950383424759,0.021681543439626694,0.3439522385597229
1772648218428795400,7.23879541015625,-0.16092748939990997,-0.028546206653118134,0.40263497829437256
1772648218438836200,7.248836181640625,-0.13770678639411926,-0.05278626084327698,0.43265500664711
1772648218448876300,7.258876220703125,-0.10146009922027588,-0.07745326310396194,0.4568881690502167
1772648218458917400,7.26891748046875,-0.07315247505903244,-0.11639422178268433,0.4471626579761505
1772648218468957200,7.278957275390625,-0.04642792046070099,-0.14440427720546722,0.42143356800079346
1772648218478998300,7.288998291015625,-0.04027575999498367,-0.1578972488641739,0.3831784129142761
1772648218489038300,7.299038330078125,-0.05481502041220665,-0.15318264067173004,0.34341713786125183
1772648218499079200,7.3090791015625,-0.06742960214614868,-0.15243056416511536,0.3088146448135376
1772648218509119200,7.319119140625,-0.09988101571798325,-0.16845373809337616,0.2689327299594879
1772648218519160300,7.329160400390625,-0.12226417660713196,-0.18200305104255676,0.21965453028678894
1772648218529200400,7.339200439453125,-0.14038431644439697,-0.19645868241786957,0.1798706352710724
1772648218539241200,7.3492412109375,-0.1513979285955429,-0.20182138681411743,0.14459076523780823
1772648218549281300,7.35928125,-0.14908656477928162,-0.20502357184886932,0.11171802878379822
1772648218559322400,7.369322265625,-0.1409136801958084,-0.218027263879776,0.07868809998035431
1772648218569362200,7.379362060546875,-0.1253879815340042,-0.2194613665342331,0.044186852872371674
1772648218579403300,7.3894033203125,-0.09785018861293793,-0.21063224971294403,0.010906610637903214
1772648218589443300,7.399443359375,-0.08442945033311844,-0.19234699010849,-0.015184644609689713
1772648218599484200,7.409484130859375,-0.060995057225227356,-0.1617921143770218,-0.03438121825456619
1772648218609524200,7.419524169921875,-0.02714548259973526,-0.11327118426561356,-0.03755969926714897
1772648218619565300,7.4295654296875,0.0003210203140042722,-0.07339472323656082,-0.009892510250210762
1772648218629605400,7.43960546875,0.028749199584126472,-0.044892508536577225,0.013332384638488293
1772648218639646200,7.449646240234375,0.06058889627456665,-0.02543639950454235,0.0276067852973938
1772648218649686300,7.459686279296875,0.09350264072418213,-0.0019750166684389114,0.02858230099081993
1772648218659727400,7.469727294921875,0.1168498545885086,-0.017664551734924316,0.03219076246023178
1772648218669767400,7.479767333984375,0.12213969230651855,-0.08262970298528671,0.05466997250914574
1772648218679808300,7.489808349609375,0.1316690891981125,-0.12746979296207428,0.05841812863945961
1772648218689848000,7.49984814453125,0.13646811246871948,-0.1448671519756317,0.05427265167236328
1772648218699889200,7.50988916015625,0.11716075241565704,-0.15907977521419525,0.05204898864030838
1772648218709929200,7.51992919921875,0.09607703983783722,-0.16072028875350952,0.08240476995706558
1772648218719970300,7.52997021484375,0.06254231929779053,-0.16389153897762299,0.11416038870811462
1772648218730010400,7.54001025390625,0.037142157554626465,-0.16657228767871857,0.12664929032325745
1772648218740051200,7.55005126953125,0.03143119812011719,-0.13557595014572144,0.1342947632074356
1772648218750091300,7.56009130859375,0.031010419130325317,-0.09300824254751205,0.14504407346248627
1772648218760132400,7.57013232421875,0.007569091394543648,-0.10313316434621811,0.14211829006671906
1772648218770172400,7.58017236328125,-0.03235675394535065,-0.1488521844148636,0.1547722965478897
1772648218780213200,7.590213134765625,-0.06355675309896469,-0.20108316838741302,0.1946968138217926
1772648218790253000,7.600253173828125,-0.08425510674715042,-0.2266891896724701,0.2441306710243225
1772648218800294100,7.610294189453125,-0.09816798567771912,-0.19516918063163757,0.3104093670845032
1772648218810334200,7.620334228515625,-0.1078009083867073,-0.16062985360622406,0.38979101181030273
1772648218820374300,7.630374267578125,-0.1001221239566803,-0.1218486875295639,0.46655917167663574
1772648218830415400,7.640415283203125,-0.07362180948257446,-0.06412866711616516,0.5276151299476624
1772648218840455200,7.650455078125,-0.05013033002614975,-0.05173122137784958,0.5268596410751343
1772648218850496300,7.660496337890625,-0.024237746372818947,-0.04207620024681091,0.4516655504703522
1772648218860537300,7.670537353515625,-0.014753976836800575,-0.033916547894477844,0.35239920020103455
1772648218870577400,7.680577392578125,0.0007480177446268499,-0.00841252226382494,0.2601422369480133
1772648218880617500,7.690617431640625,0.027874356135725975,0.05042102187871933,0.1731315553188324
1772648218890658300,7.700658203125,0.03590085729956627,0.11503224074840546,0.10403984040021896
1772648218900698400,7.710698486328125,0.035095520317554474,0.1922362744808197,0.047794077545404434
1772648218910739500,7.720739501953125,0.02190515026450157,0.25845789909362793,0.003011960070580244
1772648218920779500,7.730779541015625,-0.006945944391191006,0.27272558212280273,-0.009827431291341782
1772648218930820400,7.7408203125,-0.03716376796364784,0.263035386800766,-0.025354726240038872
1772648218940860400,7.7508603515625,-0.06475933641195297,0.26268163323402405,-0.07409550994634628
1772648218950901500,7.760901611328125,-0.09072036296129227,0.2830449342727661,-0.10686942934989929
1772648218960941600,7.770941650390625,-0.12146914005279541,0.30967167019844055,-0.10041424632072449
1772648218970982700,7.780982666015625,-0.1394292414188385,0.33438608050346375,-0.0966101884841919
1772648218981022700,7.791022705078125,-0.14149218797683716,0.350902795791626,-0.11637365072965622
1772648218991063600,7.8010634765625,-0.13568250834941864,0.34627822041511536,-0.146438866853714
1772648219001103400,7.811103271484375,-0.1327047497034073,0.3008559048175812,-0.1667289137840271
1772648219011144400,7.82114453125,-0.13161738216876984,0.21566832065582275,-0.1670769900083542
1772648219021184500,7.8311845703125,-0.12609754502773285,0.11472481489181519,-0.17949476838111877
1772648219031225300,7.841225341796875,-0.1143665760755539,0.020226268097758293,-0.20482541620731354
1772648219041265400,7.851265380859375,-0.09411288052797318,-0.055421143770217896,-0.23229578137397766
1772648219051306500,7.861306396484375,-0.06599709391593933,-0.10054201632738113,-0.2461596578359604
1772648219061346600,7.8713466796875,-0.03639774024486542,-0.11471418291330338,-0.25946104526519775
1772648219071387600,7.8813876953125,-0.012131549417972565,-0.09976852685213089,-0.2676153779029846
1772648219081427500,7.891427490234375,0.011156630702316761,-0.06457597762346268,-0.260608047246933
1772648219091468500,7.901468505859375,0.034500569105148315,-0.013012916781008244,-0.24917057156562805
1772648219101508400,7.91150830078125,0.061380479484796524,0.03631266579031944,-0.2391832321882248
1772648219111549400,7.921549560546875,0.07908596843481064,0.0828964114189148,-0.23333945870399475
1772648219121589500,7.931589599609375,0.08568263053894043,0.11932910233736038,-0.2338908612728119
1772648219131630300,7.94163037109375,0.07766439020633698,0.13258817791938782,-0.24106594920158386
1772648219141670400,7.95167041015625,0.04926487058401108,0.12551583349704742,-0.2599557638168335
1772648219151711500,7.96171142578125,0.024081485345959663,0.11467596143484116,-0.2811867594718933
1772648219161751600,7.97175146484375,-0.0015577494632452726,0.09379837661981583,-0.3040027320384979
1772648219171792400,7.98179248046875,-0.02514723129570484,0.07218468934297562,-0.318234384059906
1772648219181832400,7.99183251953125,-0.03695008158683777,0.06101050600409508,-0.31254345178604126
1772648219191873500,8.00187353515625,-0.04289718717336655,0.048296574503183365,-0.301243394613266
1772648219201913600,8.01191357421875,-0.04525560885667801,0.03550545126199722,-0.2807433307170868
1772648219211954700,8.02195458984375,-0.0464087575674057,0.01421560812741518,-0.27118417620658875
1772648219221994500,8.031994384765625,-0.051374394446611404,-0.0020567302126437426,-0.26263174414634705
1772648219232035300,8.042035400390626,-0.05924510210752487,-0.011107217520475388,-0.25502148270606995
1772648219242075400,8.052075439453125,-0.07182017713785172,-0.007422450929880142,-0.25091883540153503
1772648219252116500,8.062116455078124,-0.09343838691711426,0.006378316320478916,-0.2554430067539215
1772648219262156500,8.072156494140625,-0.12466680258512497,0.015076933428645134,-0.2610653042793274
1772648219272197400,8.082197265625,-0.1554955691099167,0.02870805561542511,-0.2589060068130493
1772648219282237400,8.092237548828125,-0.18381765484809875,0.04038858041167259,-0.25542640686035156
1772648219292278500,8.102278564453124,-0.20735999941825867,0.04644594341516495,-0.24449653923511505
1772648219302318600,8.112318603515625,-0.21594282984733582,0.06445448845624924,-0.23510724306106567
1772648219312359700,8.122359619140624,-0.21520434319972992,0.0958036258816719,-0.21675273776054382
1772648219322399500,8.1323994140625,-0.20919498801231384,0.1177644431591034,-0.2025192230939865
1772648219332439300,8.142439208984374,-0.20566949248313904,0.13290344178676605,-0.19373850524425507
1772648219342480400,8.15248046875,-0.20717091858386993,0.12354779988527298,-0.18827946484088898
1772648219352520400,8.1625205078125,-0.21435239911079407,0.09991943836212158,-0.19188645482063293
1772648219362561500,8.1725615234375,-0.2325511872768402,0.08648405969142914,-0.1961958259344101
1772648219372601600,8.1826015625,-0.2507176697254181,0.08651255816221237,-0.20290780067443848
1772648219382642400,8.192642333984375,-0.2653937339782715,0.10584647208452225,-0.2197374701499939
1772648219392682500,8.2026826171875,-0.28063473105430603,0.12908628582954407,-0.23406554758548737
1772648219402723600,8.2127236328125,-0.28743883967399597,0.15983082354068756,-0.23985891044139862
1772648219412763600,8.222763671875,-0.29217103123664856,0.2037106603384018,-0.23925623297691345
1772648219422804500,8.232804443359376,-0.29625532031059265,0.23896248638629913,-0.23634611070156097
1772648219432844300,8.24284423828125,-0.2982521653175354,0.2640470862388611,-0.23002989590168
1772648219442885400,8.252885498046876,-0.30078572034835815,0.27977102994918823,-0.23058538138866425
1772648219452925400,8.262925537109375,-0.29902350902557373,0.295067697763443,-0.24232591688632965
1772648219462966500,8.272966552734376,-0.2944781184196472,0.3197343051433563,-0.246492400765419
1772648219473006600,8.283006591796875,-0.2807774841785431,0.3564646244049072,-0.2537364959716797
1772648219483047400,8.29304736328125,-0.26185342669487,0.3907804489135742,-0.261701762676239
1772648219493087500,8.30308740234375,-0.24517324566841125,0.4169295132160187,-0.2578843832015991
1772648219503128600,8.313128662109374,-0.22078560292720795,0.4439789056777954,-0.2476295530796051
1772648219513168600,8.323168701171875,-0.1854103058576584,0.47172239422798157,-0.24395306408405304
1772648219523209500,8.33320947265625,-0.12926875054836273,0.5203372836112976,-0.24164140224456787
1772648219533249300,8.343249267578125,-0.046641767024993896,0.590696394443512,-0.2505587637424469
1772648219543290400,8.353290283203124,0.03894903510808945,0.6212149858474731,-0.24935799837112427
1772648219553330400,8.363330322265625,0.09933488070964813,0.5631365180015564,-0.2360006421804428
1772648219563371500,8.37337158203125,0.1654963195323944,0.4874960780143738,-0.21955431997776031
1772648219573411600,8.38341162109375,0.253730833530426,0.4236188232898712,-0.20931632816791534
1772648219583452400,8.393452392578125,0.3502662479877472,0.3504753112792969,-0.1883094310760498
1772648219593492500,8.403492431640625,0.42787742614746094,0.27395257353782654,-0.16170550882816315
1772648219603533600,8.413533447265625,0.4826478064060211,0.19693036377429962,-0.13060088455677032
1772648219613573600,8.42357373046875,0.5110350251197815,0.12500131130218506,-0.09423835575580597
1772648219623614500,8.433614501953125,0.5218576788902283,0.0712985098361969,-0.049732692539691925
1772648219633654500,8.443654541015626,0.5104238986968994,0.01738867349922657,0.016591735184192657
1772648219643695600,8.453695556640625,0.49254414439201355,-0.056966207921504974,0.09395593404769897
1772648219653735400,8.4637353515625,0.47710925340652466,-0.14044564962387085,0.14425905048847198
1772648219663776500,8.473776611328125,0.4587704539299011,-0.23882745206356049,0.1673969179391861
1772648219673816300,8.48381640625,0.4297715425491333,-0.35014331340789795,0.1720081865787506
1772648219683857400,8.493857421875,0.39218270778656006,-0.4436843991279602,0.16196438670158386
1772648219693897500,8.5038974609375,0.34756943583488464,-0.536116361618042,0.13837090134620667
1772648219703938600,8.5139384765625,0.2921938896179199,-0.6152832508087158,0.10932411253452301
1772648219713978600,8.523978515625,0.22934356331825256,-0.6572072505950928,0.08407708257436752
1772648219724019500,8.53401953125,0.16799728572368622,-0.653412401676178,0.06318727135658264
1772648219734059500,8.5440595703125,0.12537339329719543,-0.5964436531066895,0.06399447470903397
1772648219744100600,8.5541005859375,0.10579970479011536,-0.5121587514877319,0.08657101541757584
1772648219754140400,8.564140380859374,0.0993679091334343,-0.3983171284198761,0.11574141681194305
1772648219764181200,8.57418115234375,0.08967692404985428,-0.23733443021774292,0.09633343666791916
1772648219774221300,8.58422119140625,0.09143594652414322,-0.11375442892313004,0.10391145944595337
1772648219784261400,8.594261474609375,0.09951508790254593,-0.0074632554315030575,0.12121031433343887
1772648219794302500,8.604302490234375,0.10864254087209702,0.05894745886325836,0.1459747850894928
1772648219804342500,8.614342529296875,0.09789463877677917,0.06480875611305237,0.19534540176391602
1772648219814383600,8.624383544921875,0.07382924854755402,0.01649315655231476,0.24351853132247925
1772648219824423400,8.63442333984375,0.044948164373636246,-0.04502100870013237,0.26924413442611694
1772648219834464500,8.644464599609375,0.025626134127378464,-0.10409178584814072,0.2652493715286255
1772648219844504600,8.654504638671876,0.015807850286364555,-0.15558528900146484,0.27732306718826294
1772648219854545700,8.664545654296875,0.003243587911128998,-0.22302265465259552,0.31031298637390137
1772648219864585500,8.67458544921875,-0.006327725015580654,-0.2868288457393646,0.3320535719394684
1772648219874626300,8.684626220703125,-0.00645236112177372,-0.34074267745018005,0.3368310034275055
1772648219884665600,8.69466552734375,-0.0044453199952840805,-0.389277845621109,0.3369870185852051
1772648219894706400,8.70470654296875,-0.014895563945174217,-0.46814844012260437,0.35467708110809326
1772648219904746500,8.71474658203125,-0.031732238829135895,-0.5380253791809082,0.36025843024253845
1772648219914787600,8.72478759765625,-0.023349672555923462,-0.5642687082290649,0.34775036573410034
1772648219924827600,8.73482763671875,-0.0370330847799778,-0.5585111975669861,0.3255890905857086
1772648219934868500,8.744868408203125,-0.06603065133094788,-0.5370269417762756,0.29506924748420715
1772648219944908500,8.754908447265626,-0.08780785650014877,-0.5069027543067932,0.26045921444892883
1772648219954949600,8.76494970703125,-0.08857297897338867,-0.4836597442626953,0.22254779934883118
1772648219964989700,8.77498974609375,-0.10188186913728714,-0.4636724889278412,0.19087862968444824
1772648219975030800,8.78503076171875,-0.09522369503974915,-0.4333915412425995,0.14836207032203674
1772648219985070600,8.795070556640624,-0.0712800920009613,-0.3956299126148224,0.110918790102005
1772648219995111700,8.805111572265625,-0.04731696844100952,-0.35322919487953186,0.08298942446708679
1772648220005151500,8.8151513671875,-0.02840222418308258,-0.3080753982067108,0.06635667383670807
1772648220015192600,8.825192626953125,-0.01600760594010353,-0.2657013237476349,0.051717810332775116
1772648220025232600,8.835232666015624,-0.008479305543005466,-0.22814850509166718,0.03393777087330818
1772648220035273500,8.8452734375,-0.0032587104942649603,-0.19250209629535675,0.022815344855189323
1772648220045313500,8.8553134765625,-0.015483681112527847,-0.16130602359771729,0.028051845729351044
1772648220055354600,8.865354736328126,-0.018187588080763817,-0.12245184928178787,0.02719723805785179
1772648220065394700,8.875394775390625,-0.01943109929561615,-0.08007897436618805,0.027960550040006638
1772648220075435500,8.885435546875,-0.01624649204313755,-0.04723500832915306,0.033601924777030945
1772648220085475600,8.8954755859375,-0.006299593485891819,-0.020258208736777306,0.02887132577598095
1772648220095516700,8.9055166015625,0.01664780080318451,0.00304844556376338,0.03698118403553963
1772648220105556500,8.915556396484375,0.04899155721068382,0.01845378801226616,0.04918442666530609
1772648220115597600,8.92559765625,0.08317935466766357,0.02153666317462921,0.07006094604730606
1772648220125637600,8.9356376953125,0.12075389176607132,0.018774477764964104,0.0918775349855423
1772648220135678500,8.945678466796876,0.14754635095596313,0.003924692515283823,0.11445421725511551
1772648220145718500,8.955718505859375,0.16190442442893982,-0.036048293113708496,0.13133671879768372
1772648220155759600,8.965759521484374,0.1612442284822464,-0.07177966088056564,0.13213539123535156
1772648220165799700,8.975799560546875,0.1577736884355545,-0.11695417016744614,0.11415182054042816
1772648220175840500,8.985840576171874,0.1510867476463318,-0.16139860451221466,0.0864030122756958
1772648220185880600,8.995880615234375,0.13941438496112823,-0.18930873274803162,0.05608285218477249
1772648220195921700,9.005921630859374,0.12021005898714066,-0.21026141941547394,0.03364225849509239
1772648220205961700,9.015961669921875,0.09028970450162888,-0.2556575536727905,0.020844919607043266
1772648220216002800,9.0260029296875,0.04753877595067024,-0.2920360863208771,0.0010203486308455467
1772648220226042600,9.036042724609375,0.015846366062760353,-0.3125845491886139,-0.023583771660923958
1772648220236083500,9.04608349609375,0.0011960517149418592,-0.3121640384197235,-0.05680297687649727
1772648220246123500,9.05612353515625,-0.007006822619587183,-0.3008666932582855,-0.09059112519025803
1772648220256164600,9.06616455078125,-0.006143426056951284,-0.2671276330947876,-0.09192323684692383
1772648220266204700,9.07620458984375,-0.016488218680024147,-0.2520197331905365,-0.06644827127456665
1772648220276244700,9.08624462890625,-0.03810642659664154,-0.2924286723136902,-0.035843219608068466
1772648220286285600,9.09628564453125,-0.06924952566623688,-0.3333928883075714,0.006173131987452507
1772648220296325600,9.10632568359375,-0.09038836508989334,-0.32435891032218933,0.06198739632964134
1772648220306366700,9.11636669921875,-0.09216832369565964,-0.283954918384552,0.14970971643924713
1772648220316406500,9.126406494140625,-0.07780829071998596,-0.2385871708393097,0.2348078340291977
1772648220326447400,9.136447265625,-0.0658641830086708,-0.21497204899787903,0.27297651767730713
1772648220336487400,9.1464873046875,-0.043996430933475494,-0.19826312363147736,0.27158182859420776
1772648220346528500,9.156528564453126,-0.018788112327456474,-0.14730066061019897,0.2776802182197571
1772648220356568600,9.166568603515625,-0.0004466557875275612,-0.09469258040189743,0.256954163312912
1772648220366609700,9.176609619140624,0.0033463784493505955,-0.032792214304208755,0.20248502492904663
1772648220376649700,9.186649658203125,-0.006456983741372824,0.005535201635211706,0.1613841950893402
1772648220386690600,9.196690673828124,-0.02030683308839798,0.014001399278640747,0.1361820548772812
1772648220396730600,9.206730712890625,-0.030463065952062607,0.03200223669409752,0.09532888978719711
1772648220406771700,9.216771728515624,-0.03292924165725708,0.07776721566915512,0.059108324348926544
1772648220416811800,9.226811767578125,-0.040353335440158844,0.13750192523002625,0.03602564334869385
1772648220426852600,9.2368525390625,-0.06356863677501678,0.17712625861167908,0.029283877462148666
1772648220436892400,9.246892333984375,-0.08892139792442322,0.22285698354244232,0.023204680532217026
1772648220446933500,9.25693359375,-0.09644714742898941,0.2874281704425812,0.006921237800270319
1772648220465759500,9.275759521484375,-0.12018932402133942,0.4063221216201782,-0.04217348247766495
1772648220475799600,9.285799560546875,-0.1385086625814438,0.43087223172187805,-0.03245347738265991
1772648220485840600,9.295840576171875,-0.1499500274658203,0.4365561902523041,-0.0332140177488327
1772648220495880700,9.305880615234376,-0.15537168085575104,0.43097659945487976,-0.030160967260599136
1772648220505921500,9.315921630859375,-0.1507115364074707,0.40627846121788025,-0.023724213242530823
1772648220515961600,9.325961669921876,-0.13925567269325256,0.35569891333580017,-0.03184445574879646
1772648220526002700,9.336002685546875,-0.11848133057355881,0.29118576645851135,-0.05133262276649475
1772648220536042800,9.346042724609376,-0.09498665481805801,0.2193155586719513,-0.07712400704622269
1772648220546083600,9.35608349609375,-0.06148798018693924,0.14845329523086548,-0.10216797143220901
1772648220556123400,9.366123291015626,-0.022179188206791878,0.09342119842767715,-0.11499162763357162
1772648220566163500,9.37616357421875,0.022052979096770287,0.06480611115694046,-0.11496742069721222
1772648220576204500,9.38620458984375,0.061398252844810486,0.05330125615000725,-0.10576140880584717
1772648220586244600,9.39624462890625,0.091560497879982,0.06709732115268707,-0.0982627272605896
1772648220596285700,9.40628564453125,0.11310093849897385,0.10436426848173141,-0.09168791770935059
1772648220606325500,9.416325439453125,0.13048481941223145,0.1578073501586914,-0.09163280576467514
1772648220616366600,9.42636669921875,0.13687719404697418,0.20662176609039307,-0.1117095798254013
1772648220626406700,9.43640673828125,0.1266101747751236,0.23474635183811188,-0.14253593981266022
1772648220636447700,9.44644775390625,0.10835074633359909,0.23458176851272583,-0.17661428451538086
1772648220646487800,9.45648779296875,0.08219850063323975,0.21392138302326202,-0.20790255069732666
1772648220656528600,9.466528564453125,0.04719763994216919,0.18536511063575745,-0.2459801584482193
1772648220666568400,9.476568359375,0.013986526988446712,0.17009668052196503,-0.26928651332855225
1772648220676609500,9.486609619140625,-0.01350182294845581,0.16640633344650269,-0.26779410243034363
1772648220686649600,9.496649658203125,-0.02706708386540413,0.17771640419960022,-0.25212225317955017
1772648220696690400,9.5066904296875,-0.02971533127129078,0.1909475326538086,-0.22994981706142426
1772648220706730500,9.51673046875,-0.02728891745209694,0.1994325816631317,-0.20395733416080475
1772648220716771600,9.526771484375,-0.025112848728895187,0.20802846550941467,-0.17681945860385895
1772648220726811600,9.536811767578126,-0.02323354035615921,0.2147129476070404,-0.15556561946868896
1772648220736852700,9.546852783203125,-0.03183901309967041,0.210205540060997,-0.14660941064357758
1772648220746892800,9.556892822265626,-0.0506567507982254,0.20510248839855194,-0.1494913399219513
1772648220756933600,9.56693359375,-0.07672324031591415,0.18993818759918213,-0.15447917580604553
1772648220766973400,9.576973388671876,-0.1057523861527443,0.1728390008211136,-0.16077955067157745
1772648220777014500,9.5870146484375,-0.1325206160545349,0.16456934809684753,-0.16727234423160553
1772648220787054600,9.5970546875,-0.15574561059474945,0.16685624420642853,-0.17158836126327515
1772648220797095400,9.607095458984375,-0.17257972061634064,0.17047494649887085,-0.17458176612854004
1772648220807135500,9.617135498046874,-0.17651277780532837,0.17475607991218567,-0.17640113830566406
1772648220817176600,9.627176513671875,-0.1775074601173401,0.1693783551454544,-0.1692068725824356
1772648220827216600,9.637216552734374,-0.17529630661010742,0.15446308255195618,-0.15760177373886108
1772648220837257700,9.6472578125,-0.16884373128414154,0.1513088345527649,-0.14863650500774384
1772648220847298600,9.657298583984375,-0.15808874368667603,0.16912393271923065,-0.13351215422153473
1772648220857338600,9.667338623046875,-0.1460547298192978,0.19597631692886353,-0.11565513163805008
1772648220867378700,9.677378662109374,-0.14060339331626892,0.21726331114768982,-0.10447441786527634
1772648220877419800,9.687419677734376,-0.14867517352104187,0.22253423929214478,-0.09039029479026794
1772648220887460000,9.697460205078125,-0.16196578741073608,0.21673651039600372,-0.07486462593078613
1772648220897501000,9.7075009765625,-0.1672271192073822,0.2194071263074875,-0.0653611347079277
1772648220907541000,9.717541015625,-0.17068646848201752,0.22494427859783173,-0.0629473403096199
1772648220917582000,9.72758203125,-0.17993828654289246,0.2264803797006607,-0.06053451821208
1772648220927622100,9.7376220703125,-0.18713033199310303,0.2234923243522644,-0.06732177734375
1772648220937663000,9.7476630859375,-0.19822238385677338,0.21529005467891693,-0.06571775674819946
1772648220947702800,9.757702880859375,-0.19548101723194122,0.2174094021320343,-0.05886315926909447
1772648220957743900,9.767743896484374,-0.1880398690700531,0.22582711279392242,-0.049707479774951935
1772648220967784000,9.777783935546875,-0.18404611945152283,0.2450985461473465,-0.04142759367823601
1772648220977825000,9.787824951171874,-0.1808745563030243,0.27254214882850647,-0.033407218754291534
1772648220987865000,9.797864990234375,-0.18208390474319458,0.2895611524581909,-0.026324037462472916
1772648220997906000,9.807906005859374,-0.1833539754152298,0.2918032705783844,-0.021742600947618484
1772648221007946000,9.817946044921875,-0.18137942254543304,0.2970361113548279,0.015257569961249828
1772648221017987000,9.827987060546874,-0.18406309187412262,0.3047478199005127,0.13260789215564728
1772648221028027100,9.838027099609375,-0.18939580023288727,0.3323194086551666,0.17067281901836395
1772648221038068000,9.84806787109375,-0.1818436086177826,0.3790682852268219,0.09738316386938095
1772648221048107800,9.858107666015625,-0.16947896778583527,0.4130689203739166,0.0394386425614357
1772648221058148900,9.86814892578125,-0.1553248018026352,0.4449871778488159,0.028694652020931244
1772648221068189000,9.87818896484375,-0.1481410264968872,0.4741029739379883,0.02518639527261257
1772648221078230000,9.88822998046875,-0.15747007727622986,0.487383097410202,0.025279073044657707
1772648221088269800,9.898269775390625,-0.16226190328598022,0.4893180727958679,0.010388304479420185
1772648221098311000,9.908310791015625,-0.16520895063877106,0.48445063829421997,-0.01995202526450157
1772648221108351000,9.91835107421875,-0.16357803344726562,0.4549581706523895,-0.05708301067352295
1772648221118392000,9.92839208984375,-0.13578608632087708,0.4166453778743744,-0.07772303372621536
1772648221128432000,9.93843212890625,-0.05273326858878136,0.3683350086212158,-0.0355270579457283
1772648221138473000,9.948472900390625,0.019140925258398056,0.3293710947036743,-0.0054027121514081955
