time,seconds_elapsed,z,y,x
1772649761536497700,0.06949755859375,-1.676008382126689,6.157713651442528,1.1756814638219772
1772649761546538500,0.07953857421875,-0.9062985596105456,5.226057655474543,0.7360397542349993
1772649761556579600,0.08957958984375,0.3066258625432849,3.7123511283695696,0.0598918663829565
1772649761566621700,0.09962158203125,1.4029495658814906,1.8708651837944983,-0.6353538129098713
1772649761576662800,0.109662841796875,2.2877549633473158,0.08589315360188483,-1.120904017843306
1772649761586704000,0.119703857421875,3.054411243511736,-1.4460826051652431,-1.6236486648142336
1772649761596744700,0.12974462890625,3.628089083100855,-2.652918062794208,-2.152991834244877
1772649761606785800,0.139785888671875,3.9235985083460805,-3.480647820341587,-2.501190793278813
1772649761616827000,0.149826904296875,3.9433115090757607,-4.185340396285056,-2.675927182459831
1772649761626867700,0.15986767578125,4.113803977076709,-5.0523096928089855,-2.756732073011994
1772649761636909800,0.169909912109375,4.457547856397927,-5.959025308787822,-2.832745053112507
1772649761646950700,0.17995068359375,4.729079901467263,-6.76778966910243,-3.0714643773823975
1772649761656991700,0.18999169921875,4.733372337964177,-7.537268313211202,-3.3412411032170057
1772649761667032800,0.20003271484375,4.346942578604817,-8.39593915246725,-3.6406869911283253
1772649761677073700,0.21007373046875,3.8509824772074817,-9.416274717885255,-3.975924323388934
1772649761687114800,0.22011474609375,3.514749411907792,-10.40794649887681,-3.9597944418430324
1772649761697155800,0.23015576171875,2.780112364077568,-11.289973663800954,-3.4515003440514205
1772649761707197700,0.24019775390625,1.6518588602542876,-11.94342354376316,-2.594609666210413
1772649761717238800,0.25023876953125,1.187700110656768,-12.028664370936154,-1.9236162385120987
1772649761727279600,0.260279541015625,1.2504133180707693,-11.803970649409294,-1.4080213161878288
1772649761737320700,0.27032080078125,1.4452135672457516,-11.16739357831478,-0.9102201169684528
1772649761747361500,0.280361572265625,1.6665281677283346,-10.053653753012417,-0.4191982756908983
1772649761757402600,0.290402587890625,1.8552654636025427,-9.16734438072443,0.03418788161017001
1772649761767443700,0.300443603515625,2.073839825466275,-8.581274677073955,0.18502463202662764
1772649761777485600,0.310485595703125,2.052164584752917,-8.165022026380896,0.15450389462187886
1772649761787526700,0.320526611328125,1.7220850736469029,-7.954937844964862,0.3033584582451731
1772649761797567500,0.3305673828125,1.2545910421468316,-7.904015466979145,0.32396745796650644
1772649761807608600,0.340608642578125,0.7676417840704322,-7.869344551092386,0.2818798360824585
1772649761817649700,0.350649658203125,0.5527887808173895,-8.231471059322356,0.30357224712632597
1772649761827690500,0.3606904296875,0.48609804807454343,-8.980204437044263,0.14715871949084103
1772649761837731600,0.370731689453125,0.8989175094485282,-9.202885065183043,-0.7742426436401904
1772649761847773700,0.380773681640625,1.514039704582095,-8.67474089627862,-1.798841273330152
1772649761857814800,0.390814697265625,1.0680062481313943,-7.330918642148375,-2.1009715780198572
1772649761867856000,0.40085595703125,0.08320771391019224,-5.559007169058918,-2.546120945112407
1772649761877896700,0.410896728515625,-0.5473254008449614,-2.92498143826127,-2.3258330573290587
1772649761887937800,0.420937744140625,0.03887318988218903,0.5856774894624948,-2.4207754865661264
1772649761897979000,0.430978759765625,1.0981645088993013,5.482290424603224,-4.063398316441476
1772649761908020700,0.441020751953125,2.974074847254157,12.86024145156145,-4.997593767759204
1772649761918061800,0.451061767578125,-2.8291145876556634,20.401403849601746,2.3990863634578883
1772649761928102700,0.4611025390625,-7.393370714408158,22.32427043879032,10.084784219813347
1772649761938143700,0.471143798828125,-2.0747565019197762,17.558696205401418,7.900814040589332
1772649761948184800,0.481184814453125,-2.446700347547978,11.55906299189329,6.472046727362275
1772649761958225700,0.4912255859375,-4.062591383972764,5.467227295506,3.8622617038518188
1772649761968266800,0.501266845703125,-4.306829763925076,2.621198397928476,2.202780239764601
1772649761978307800,0.511307861328125,-4.746673133563995,3.8491923789203164,0.6388692006196827
1772649761988349700,0.521349609375,-3.4469092168688773,5.7471770403087135,-0.7247258216034621
1772649761998390800,0.531390869140625,-1.8547063684150575,6.154959968820214,-0.5840145246863365
1772649762008431600,0.541431640625,-1.5269628990411757,6.393626686120033,0.7152271217003464
1772649762018472700,0.55147265625,-2.1454455105185506,6.796031428724527,2.7798084126949307
1772649762028513800,0.561513671875,-2.6440137485876676,7.749054037848114,4.005159770223498
1772649762038554600,0.5715546875,-3.2054613444179294,9.63917161912322,3.8447985278755423
1772649762048596700,0.5815966796875,-3.689770755510032,11.673926219391822,2.6263766773492097
1772649762058637600,0.591637451171875,-3.914994638390839,13.026089016366004,1.5763839325532316
1772649762068678700,0.6016787109375,-4.336490742695331,13.402916250121592,1.1950847410153598
1772649762078719500,0.611719482421875,-4.805633856576681,12.604576253187656,1.1356584463175385
1772649762088760600,0.621760498046875,-4.973779761451483,10.76171902025938,1.4730520067639647
1772649762098801700,0.6318017578125,-4.64545878445059,8.883669477918744,2.1415075865477324
1772649762108842500,0.641842529296875,-4.081722200900316,7.695503064924478,2.8792507836997507
1772649762118884900,0.651884765625,-3.315883959120512,6.970475556960701,3.0256723480224608
1772649762128925700,0.66192578125,-2.476787588906288,6.398333256375789,2.7984052688762544
1772649762138966800,0.671966796875,-1.6132555733546614,5.679621507430077,2.525854109892249
1772649762149008000,0.6820078125,-0.6261157367043196,5.099434432077407,2.365879528774321
1772649762159048700,0.692048583984375,0.31486864410117266,4.307885994979739,2.093244344768673
1772649762169089800,0.70208984375,1.4772849681586027,3.0243671106427907,1.316850222183019
1772649762179131000,0.712130859375,2.4453294975861906,1.3263316056251524,-0.036032267367839814
1772649762189172700,0.7221728515625,3.072004183347523,-0.6768430305093527,-1.5105848879531025
1772649762199213800,0.7322138671875,3.458027115471661,-2.6984020491182803,-2.903307366591692
1772649762209254700,0.742254638671875,3.798068048621714,-4.65406733058095,-4.258344842219352
1772649762219295700,0.752295654296875,4.0696375030919905,-6.424372537517547,-5.321379731678962
1772649762229336800,0.7623369140625,4.488890504644811,-7.85145175152719,-6.0062108383327715
1772649762239377700,0.772377685546875,5.163994874793291,-9.099289666152,-6.330552682569623
1772649762249418800,0.782418701171875,5.488710813039541,-10.52926518612504,-6.3394724866062395
1772649762259460600,0.792460693359375,5.314813212770224,-12.082045247989893,-5.994399989029764
1772649762269501700,0.802501708984375,5.396309592717886,-13.035630751693247,-5.259553682363033
1772649762279542800,0.812542724609375,5.140697001314163,-13.246463121128082,-4.256556205236912
1772649762289583600,0.82258349609375,4.303480453497171,-12.651013010191917,-2.845221088325977
1772649762299624700,0.832624755859375,3.4521257824733853,-11.155742888009547,-1.7548872730523346
1772649762309665800,0.842665771484375,3.164512078914046,-9.629657356324792,-1.0199527766454963
1772649762319706600,0.85270654296875,2.9523452460050583,-8.821476348856091,-0.46215566614679987
1772649762329747700,0.862747802734375,2.963951512646675,-8.589605283045769,-0.2857596001252532
1772649762339789600,0.87278955078125,3.242083394372463,-8.62098943234682,-0.5350597204465418
1772649762349830700,0.88283056640625,3.4214047732561825,-8.758698113381863,-0.8411150165602564
1772649762359871700,0.892871826171875,3.1232103467106818,-8.945113834440708,-0.8682551716160029
1772649762369912000,0.902912109375,2.6129659916341303,-9.160196847057342,-0.8329470538042485
1772649762379953200,0.912953125,1.9511381594270467,-9.353197791725396,-0.7805350948479026
1772649762389994200,0.922994140625,1.2769383369028569,-9.439329430258274,-0.6275012727785855
1772649762400036000,0.9330361328125,0.8363871112555264,-9.38987420221567,-0.43895131617002187
1772649762410077200,0.9430771484375,0.5127952086031436,-9.290016236147284,-0.2995349179016426
1772649762420118000,0.953117919921875,-0.07850523530766368,-9.281940481719374,-0.05565134273637086
1772649762430159000,0.9631591796875,-0.34783246380910277,-9.04242503863573,0.2505908907841891
1772649762440200200,0.9732001953125,0.783636348798871,-8.369467909649014,-0.21587767012566328
1772649762450241000,0.983240966796875,0.8541827340565621,-7.664795207449793,-0.7361218064952642
1772649762460282000,0.9932822265625,0.01309489776417613,-6.579227583664656,-1.3708505463093519
1772649762470324000,1.003323974609375,0.06064955288246274,-5.336197361582517,-2.0379896366670724
1772649762480365000,1.013364990234375,-0.13380509772524238,-3.7651667727559803,-1.8547604366898536
1772649762490406100,1.02340625,0.18991423069909213,-1.6608967377126216,-2.8465444458842275
1772649762500447000,1.033447021484375,5.46400131919682,1.8309686422139406,-7.485212547281384
1772649762510488000,1.043488037109375,8.24681417440474,7.323363696724176,-9.454517062518
1772649762520529200,1.053529052734375,-8.35171948699057,15.877726985996961,-0.5115244214823469
1772649762530570000,1.063570068359375,-12.497803977686166,25.08449503009319,10.407304693841933
1772649762540612000,1.073612060546875,-1.918463239663094,22.827623280787467,11.117727922391891
1772649762550653200,1.083653076171875,1.908563338547945,13.978568604654074,6.969812124615907
1772649762560694300,1.0936943359375,-2.8391455678045747,9.312446094620228,7.433164380136132
1772649762570735000,1.103735107421875,-4.530414062905312,7.940760851052403,8.383908522933721
1772649762580776200,1.113776123046875,-4.102110908934474,6.942908335599303,5.802952119022607
1772649762590817300,1.1238173828125,-2.9577748698383566,7.346728205698728,2.021617324667424
1772649762600858000,1.133858154296875,-3.610495266482234,8.786331385716796,0.8121582405366004
1772649762610900200,1.143900146484375,-5.377106295076012,10.382193633460998,0.6134528736818582
1772649762620941000,1.153941162109375,-6.351304378697276,11.99346095560789,0.7290656043734401
1772649762630982100,1.163982177734375,-6.652014587455987,13.008111461126804,0.8437743719626217
1772649762641023200,1.174023193359375,-5.902931665644049,12.810325620269774,0.4036985818073153
1772649762651064000,1.18406396484375,-5.362239565333724,12.181274853026867,0.13119454990066587
1772649762661105200,1.194105224609375,-4.6067076135128735,12.061909637933969,0.16685126195438205
1772649762671146200,1.204146240234375,-4.023278779760003,12.268042451375722,0.927474545564875
1772649762681188000,1.21418798828125,-3.3560376903325317,11.611443167471885,2.1920649306133386
1772649762691229200,1.224229248046875,-2.269355383303761,9.943818582808971,3.543183186970651
1772649762701270000,1.23427001953125,-1.326570528947562,8.200929206064343,4.692995903912187
1772649762711311000,1.24431103515625,-0.5589332749217748,6.630006753787398,5.092201558214426
1772649762721352200,1.254352294921875,0.3099881785832345,5.288043863788247,4.8647366184085605
1772649762731393000,1.26439306640625,1.35094976792261,3.837253519323468,4.018002008400857
1772649762741434000,1.27443408203125,2.4006162033736707,1.9021388584583996,2.6459797879636286
1772649762751476000,1.28447607421875,3.0293951679378748,-0.18095979374051094,1.2947710768438876
1772649762761517000,1.29451708984375,3.0372283457815645,-2.202985845339298,0.03932224882394075
1772649762771558100,1.30455810546875,3.073522478955984,-3.989710272157192,-1.070104973976314
1772649762781599000,1.314598876953125,3.3550790744334456,-5.370653757935762,-2.1754392283745108
1772649762791640000,1.32464013671875,3.7419150765061375,-6.39406157040596,-3.0759143425285815
1772649762801681200,1.33468115234375,4.390443866679072,-7.401877261468767,-4.269239453460276
1772649762811722000,1.344721923828125,4.99318004297018,-8.727641880860924,-5.7625014506906265
1772649762821763000,1.35476318359375,5.294020600110292,-10.390542944133282,-7.120096209585666
1772649762831805200,1.36480517578125,4.90604711844027,-11.674607771915197,-7.387156077677011
1772649762841846300,1.37484619140625,4.368833507895469,-12.509455837035178,-6.751549312919378
1772649762851887000,1.38488720703125,3.560770573848486,-13.01557931278944,-6.010531624141335
1772649762861928200,1.39492822265625,2.976429885947704,-13.154155424308776,-4.784567687672376
1772649762871969300,1.40496923828125,2.282196744698286,-12.61394964621067,-3.1495857279390096
1772649762882010000,1.415010009765625,0.8791564317934214,-11.24872979926467,-1.7920105505272745
1772649762892051200,1.42505126953125,-0.19580138904154298,-10.067467174309492,-0.6352316478349268
1772649762902093000,1.435093017578125,-1.324663380151987,-9.667161449810862,0.6480206945203244
1772649762912134100,1.445134033203125,-1.4713263520151376,-9.598855390825866,1.3774769787117838
1772649762922175200,1.45517529296875,-0.5790016649603843,-9.64627531364858,1.075811222793907
1772649762932216000,1.465216064453125,-0.09674180680923164,-9.827737211692332,0.6214661573328077
1772649762942257200,1.475257080078125,0.34948505332171914,-9.939973597818613,0.26228987721055746
1772649762952298200,1.48529833984375,1.253977732554078,-9.794720492753386,-0.4726063330125063
1772649762962339000,1.495339111328125,2.1254108766190707,-9.422228073331713,-1.470120483356714
1772649762972381200,1.505381103515625,2.556156893697381,-8.901387505438922,-1.9834721567988394
1772649762982422000,1.515422119140625,2.421715690025687,-8.365711771985888,-2.1299831529706714
1772649762992463000,1.525463134765625,2.0736428415894506,-7.936982501557469,-2.1548919687777754
1772649763002504200,1.535504150390625,1.8462948061615228,-7.485606515035033,-2.3584955560028553
1772649763012545000,1.545544921875,1.2767816850364206,-6.95445731909573,-2.871006979228556
1772649763022586000,1.555586181640625,1.4799813676357267,-6.400540411031246,-3.404002679817378
1772649763032627200,1.565627197265625,2.317980590263009,-5.945902207842469,-4.15786260677278
1772649763042669000,1.5756689453125,3.104794400054216,-5.0877948476880785,-5.344821982064843
1772649763052710100,1.585710205078125,3.664729545494914,-3.1669150484025477,-5.884923130744696
1772649763062751000,1.5957509765625,1.92099319653213,-0.6486579695105552,-5.431188013875484
1772649763072792000,1.6057919921875,0.8175438790977001,2.4579893649339675,-4.37791405545175
1772649763082833200,1.615833251953125,2.582517077356577,5.730397754943371,-3.7120395782023667
1772649763092874000,1.6258740234375,-0.4722434179842472,9.684927408125995,-1.4179180024325846
1772649763102915000,1.6359150390625,-4.84739326941967,15.238831701087951,2.5627538077443837
1772649763112957200,1.645957275390625,-5.620460877931118,19.419563726794717,6.6188873938798904
1772649763122998300,1.655998291015625,-3.246964152151346,18.658775754141807,6.98219112919569
1772649763133039400,1.666039306640625,-3.1916637052118775,14.028167625081538,4.749456334541738
1772649763143080200,1.676080078125,-4.598996600744128,10.15311015254259,4.194021423129737
1772649763153121300,1.686121337890625,-4.9528193910092115,8.82047155572772,4.995509947222471
1772649763163162000,1.696162109375,-3.812884801742434,8.003349116912483,4.641629289290309
1772649763173203200,1.706203125,-3.293995952439308,7.0240148394465445,3.9398502627059817
1772649763183244300,1.716244384765625,-3.355634370228648,7.105157583650946,3.978382237935066
1772649763193286100,1.7262861328125,-3.401874727877974,8.696660467141866,4.176498625920713
1772649763203327200,1.7363271484375,-4.350253310588002,11.252876397550105,4.4696933444827796
1772649763213368000,1.7463681640625,-5.801872507092356,14.042624020457266,4.960030637562275
1772649763223409200,1.7564091796875,-5.91059591666162,15.516105504679679,4.958569917359948
1772649763233450200,1.7664501953125,-4.782810030350089,15.42309638159275,3.9432431200146674
1772649763243491000,1.776490966796875,-4.0536821013301605,15.062544575333595,3.233848942251503
1772649763253532200,1.7865322265625,-3.673847502452135,14.478628250324725,3.0425504175871607
1772649763263574000,1.796573974609375,-3.38448227905035,13.281709791076182,3.4507875196069477
1772649763273615000,1.806614990234375,-3.2593922565698623,11.428396630585192,3.8288784896880386
1772649763283656200,1.81665625,-3.007018500956893,9.349263959407805,3.9080113553747533
1772649763293697000,1.826697021484375,-2.0806607575275002,7.198339140695333,3.3936005282685158
1772649763303738000,1.836738037109375,-1.0414964268684386,5.030807470574975,2.483990067631006
1772649763313779200,1.846779296875,-0.13531564841866492,2.952487869346142,1.749406357423216
1772649763323820000,1.856820068359375,1.2244126153737307,0.9061088822573423,1.0432770266748965
1772649763333861000,1.866861083984375,2.7333108654141425,-1.2232669524699449,0.11336641306951642
1772649763343903000,1.876903076171875,3.5149165851682422,-3.3724265150755643,-0.8183934816643595
1772649763353944000,1.886944091796875,3.916789997375011,-5.264883937475085,-1.6053616052344442
1772649763363985400,1.8969853515625,4.517456089393794,-6.76724840183258,-2.308118536940217
1772649763374026200,1.907026123046875,5.083492766579985,-7.971577429598569,-3.1466739321455357
1772649763384067300,1.9170673828125,6.040963587284088,-9.201763952198624,-4.3293391173750155
1772649763394108400,1.9271083984375,6.380659067997336,-10.173956541216373,-5.6474435774028295
1772649763404149200,1.937149169921875,6.058498659452796,-10.795964988732337,-6.074005440664291
1772649763414191400,1.94719140625,5.429247985723614,-11.721676981604098,-6.107848089033365
1772649763424232200,1.957232177734375,4.797663900610805,-12.646128745281695,-6.405599447986483
1772649763434273300,1.967273193359375,4.192767331415414,-13.194688510227202,-6.203932966303825
1772649763444314400,1.977314453125,3.473775011962652,-12.65710489732623,-5.3996489662736655
1772649763454355200,1.987355224609375,2.649652923518419,-11.009905845576524,-4.230440351727605
1772649763464396300,1.997396240234375,2.2464099765241143,-9.516326160699128,-3.2244302487820384
1772649763474437000,2.00743701171875,2.030747848845273,-8.767484646427631,-2.9344126989513635
1772649763484479200,2.017479248046875,2.171502327316999,-8.36302355581522,-2.854707001812756
1772649763494520000,2.02752001953125,2.4191141292251643,-8.304279690423607,-2.95426306232512
1772649763504561200,2.03756103515625,2.684105228218436,-8.498112409740687,-3.028009851059317
1772649763514602200,2.047602294921875,2.743448813068867,-8.825221965125202,-3.0045611709326505
1772649763524643000,2.05764306640625,2.7249522023916244,-9.083780546852946,-2.8636279748931526
1772649763534684200,2.06768408203125,2.6772704137623307,-9.295722338834404,-2.702072846585512
1772649763544725200,2.077725341796875,2.6512898770704862,-9.46376945950985,-2.635661807566881
1772649763554767000,2.08776708984375,2.731963542458415,-9.549515313595533,-2.6257503621444105
1772649763564808200,2.09780810546875,2.7277976549506184,-9.567472995090483,-2.5472508259251714
1772649763574849000,2.10784912109375,2.259489822849631,-9.44131271302998,-2.3560101689279076
1772649763584890000,2.11789013671875,1.2306946182526648,-8.93640095115304,-1.8715417678818105
1772649763594931200,2.12793115234375,0.5354752424448729,-7.913529729777574,-1.4978447949759661
1772649763604972000,2.137971923828125,0.8358378068096936,-6.574065086334944,-1.4012323867000638
1772649763615013000,2.14801318359375,3.035507805599272,-5.073508548182248,-1.9019114794433116
1772649763625054200,2.15805419921875,4.538132089936733,-3.4001591561317444,-2.220044386037439
1772649763635096300,2.168096435546875,3.8639205769747496,-1.235228608420491,-1.7153695016562938
1772649763645137400,2.178137451171875,0.8945764115042983,1.5829752936422823,-1.2713542531602084
1772649763655178200,2.18817822265625,-1.570043185224384,5.9506117007076735,-0.5112484175525606
1772649763665219300,2.19821923828125,-1.4285339428626,11.51445461935997,1.1014056097123772
1772649763675260400,2.208260498046875,-2.8067086945801973,17.1726382019639,3.283430719283223
1772649763685301200,2.21830126953125,-2.5687796439051627,21.983519896066188,4.298863899612426
1772649763695342300,2.22834228515625,-2.6394039167046546,20.210870756351948,6.68427435054779
1772649763705384200,2.23838427734375,-3.3583959438964723,12.80214698998928,8.118384778368473
1772649763715425300,2.24842529296875,-4.289701518991589,7.771284574356675,7.055867775303125
1772649763725466400,2.25846630859375,-5.57243188329935,6.633288259676099,6.022846915835141
1772649763735507200,2.268507080078125,-6.658162588691711,6.890286752480268,4.190728519064188
1772649763745548300,2.27854833984375,-7.115852580666542,6.297952727738022,2.7021955961823463
1772649763755589000,2.288589111328125,-7.4399232067465775,6.130155197909474,3.4276810770466923
1772649763765630200,2.298630126953125,-7.6057129038840525,7.4939774530172345,4.702875492891669
1772649763775671300,2.30867138671875,-7.416150701493025,9.548108369407057,5.952628885748982
1772649763785713200,2.318713134765625,-6.628334436661005,11.770312709957361,6.66474781230092
1772649763795754200,2.328754150390625,-5.8224248812556265,13.67963475791812,6.408138026553392
1772649763805795000,2.338795166015625,-5.064934781104326,14.166332233190536,5.32783752951622
1772649763815836200,2.348836181640625,-4.3021164716675875,13.291641987025738,4.030592609904706
1772649763825877200,2.358877197265625,-3.4932454361081122,11.88445113031268,2.777122534611821
1772649763835918000,2.36891796875,-2.814794093619287,10.527780500525235,1.6109771070286631
1772649763845959200,2.378959228515625,-1.6533657576858996,8.957887391296028,0.7226840135775506
1772649763856001000,2.3890009765625,-0.23191768143102526,6.774467247170209,-0.3008959405891597
1772649763866042000,2.3990419921875,1.0812269642323256,4.2830373849272725,-1.2886641382709145
1772649763876083200,2.409083251953125,2.204839364251494,1.6184119332045315,-1.930720371428877
1772649763886124000,2.4191240234375,2.987730447641015,-0.6376613591998815,-2.468188102865219
1772649763896165000,2.4291650390625,3.452943236336112,-2.383572129592299,-2.845493767787516
1772649763906206200,2.439206298828125,3.583588262595236,-3.7423815249741077,-3.094104663735628
1772649763916247000,2.4492470703125,3.5693946098089215,-4.889464232429861,-3.1723166151851414
1772649763926288100,2.4592880859375,4.021216586533188,-6.209096048155427,-3.18504837872535
1772649763936330200,2.469330322265625,4.854530866214633,-7.7436121390551325,-3.5084055958390232
1772649763946371300,2.479371337890625,5.266557423645257,-9.439573175886272,-3.995936014804244
1772649763956412400,2.489412353515625,5.301640427464246,-11.097872882843017,-4.022646911597252
1772649763966453200,2.499453369140625,4.616470298114419,-12.589098113548754,-3.823666307997703
1772649763976494300,2.509494384765625,3.5048300754398105,-13.656609271639585,-3.539156707933545
1772649763986535400,2.519535400390625,2.676681215697527,-14.139722458684444,-2.8991239434272047
1772649763996576300,2.529576171875,1.9396803613454103,-13.748141892433166,-2.185789211344719
1772649764006618400,2.539618408203125,1.4824778606265783,-12.32073476164341,-1.698251778116822
1772649764016659200,2.5496591796875,1.538445247042179,-10.753873567456006,-1.4748162399575113
1772649764026700300,2.5597001953125,1.4918009847670792,-9.61943991369307,-1.453802824153751
1772649764036741400,2.569741455078125,1.2455968576997518,-8.922344953271747,-1.5766364460095763
1772649764046782200,2.5797822265625,1.1565671596378087,-8.650380946525932,-1.6554077849075197
1772649764056823300,2.5898232421875,1.185595685723424,-8.442833590111135,-1.6668670442938804
1772649764066864000,2.599864013671875,1.288174601188302,-8.226424881848692,-1.7045716287881134
1772649764076906200,2.60990625,1.3440157308757303,-8.069253959974645,-1.7900231761023402
1772649764086947300,2.619947265625,1.479959301934391,-8.047901375344395,-1.9372908358603715
1772649764096988200,2.62998828125,1.6070093724414705,-8.17546100280881,-2.109337255305052
1772649764107029200,2.640029296875,1.5861217749744654,-8.396654607260226,-2.201960009422898
1772649764117070000,2.650070068359375,1.516166633608192,-8.587955177751184,-2.0502847623556852
1772649764127111200,2.660111083984375,1.6759154431462286,-8.651398014613985,-1.8223770472183822
1772649764137152300,2.67015234375,1.9111837501794098,-8.579481363916397,-1.7843375316813588
1772649764147193000,2.680193115234375,1.2187988671451806,-7.995828658279776,-1.4409218614012003
1772649764157235200,2.690235107421875,1.1708761093668638,-6.608466537630558,-1.285578447215259
1772649764167276000,2.700276123046875,2.272651502239704,-4.592690778598189,-1.9080169567115604
1772649764177317000,2.710317138671875,2.8242583797961474,-2.1013106007158755,-2.115726371820271
1772649764187358200,2.720358154296875,2.248314933362603,1.5028712448358534,-1.3852248163595795
1772649764197399000,2.73039892578125,2.697184490022063,6.434819697251916,-1.6658096441954373
1772649764207440100,2.740440185546875,4.127856760087609,13.464177651292085,-2.9681816975623367
1772649764217481200,2.750481201171875,-1.3778326602816582,22.4685117364645,3.865416953012347
1772649764227523000,2.760523193359375,-7.307751117050647,22.403968829405308,12.277549115389585
1772649764237564400,2.770564453125,-0.6282359437286853,12.721900317841767,7.628865815934539
1772649764247605200,2.780605224609375,2.4536475363373755,6.153710261020064,2.1130913471415638
1772649764257646300,2.790646240234375,-0.04090849510207772,5.117790757501125,0.7460605052508413
1772649764267687400,2.8006875,-3.7850025230824946,5.857389227131009,1.7949034954898058
1772649764277728300,2.810728271484375,-6.2074488654702895,5.625486012616753,1.5243617766320705
1772649764287769300,2.820769287109375,-7.466556362128257,6.06559650875926,0.020917919540032744
1772649764297810400,2.830810546875,-6.9592445533722636,8.521709558427334,-0.9046725658439099
1772649764307852300,2.840852294921875,-6.568741845485568,11.619387988996506,0.762411628331989
1772649764317893400,2.850893310546875,-6.814952986815571,13.286764736378192,4.114896156227588
1772649764327934200,2.860934326171875,-6.502331390988826,13.708740440893173,5.986922785016894
1772649764337975300,2.870975341796875,-4.989437933832407,14.240335042512417,5.558888511115312
1772649764348016400,2.881016357421875,-3.61805547260344,14.702743295180797,4.2033617906659835
1772649764358057200,2.89105712890625,-3.1127514965385195,14.901971736061572,2.9600226487651464
1772649764368098000,2.90109814453125,-2.704987857249379,14.414204585731028,2.3855156648755074
1772649764378140200,2.91114013671875,-2.8356740923017263,13.15053138859272,2.0355201778136194
1772649764388181200,2.92118115234375,-3.0818671134531495,11.309773758292197,1.6259803226321934
1772649764398222300,2.931222412109375,-3.1151708326399326,9.162318076995014,1.248231590117514
1772649764408263200,2.94126318359375,-2.698872589239478,7.288082539984583,0.9849968332722783
1772649764418304300,2.95130419921875,-1.9388988555788993,5.895305993071198,0.666394701731205
1772649764428345000,2.961344970703125,-0.9864467398196458,4.307627636304497,0.10475004895888268
1772649764438386200,2.97138623046875,-0.05118088279142975,2.4148270995557306,-0.11950659632496535
1772649764448427300,2.98142724609375,0.8788006040930747,-0.08096621859371661,-0.1556451005462557
1772649764458469000,2.99146923828125,1.9910013832598923,-2.872330629047751,-0.35955212769731876
1772649764468510200,3.00151025390625,2.843862074932456,-5.747480991691351,-0.7862002079375088
1772649764478551000,3.011551025390625,3.7631332211017607,-8.820082848671078,-1.246779053221643
1772649764488592100,3.021592041015625,4.695218256136775,-11.49186635545492,-2.3390406216874715
1772649764498633200,3.03163330078125,5.236848514080047,-13.248865506094694,-3.9306501804232594
1772649764508674000,3.041674072265625,4.800829086643457,-14.173628235417604,-4.758318563172221
1772649764518715100,3.051715087890625,4.456857828307151,-14.669084186685085,-5.249105938106775
1772649764528756200,3.061756103515625,4.698329081633687,-14.304563476794957,-5.53476061655283
1772649764538798000,3.071798095703125,5.257224362632632,-13.608338284945487,-5.265358569249511
1772649764548839200,3.081839111328125,5.625927911165356,-12.47164896121025,-4.874440266299247
1772649764558880000,3.0918798828125,5.032581494510174,-10.854117902493476,-4.536970060420036
1772649764568921000,3.101921142578125,3.855976339972019,-9.18472572363615,-3.87916578464061
1772649764578962200,3.111962158203125,2.1642641927570105,-8.007446030837297,-2.5235756435662506
1772649764589003000,3.1220029296875,1.1720336088389158,-8.17758223274648,-1.5462347318746148
1772649764599044000,3.132044189453125,1.3136071486085652,-8.405662674102187,-1.3783125527530908
1772649764609086000,3.1420859375,1.4395071722976862,-8.4390213383466,-1.2265478738367557
1772649764619127000,3.152126953125,1.3714436898969113,-8.437953416854143,-1.074198673030734
1772649764629168000,3.162168212890625,1.1263144985847175,-8.595565068233013,-1.0978082428075373
1772649764639209000,3.172208984375,0.70888885858953,-8.886462908029555,-1.1965742489207536
1772649764649250000,3.18225,0.38934659665413196,-9.211986071005462,-1.199718830556795
1772649764659291100,3.192291015625,0.29642515185065565,-9.615827568414806,-1.3670993770822881
1772649764669332000,3.20233203125,0.1325004448674619,-10.04042836073637,-1.5582571781016885
1772649764679373000,3.212373046875,0.12127660167217254,-10.183784692269564,-1.4922845305003225
1772649764689415200,3.222415283203125,0.27033611328303814,-9.994823962903022,-1.2942667805835604
1772649764699456300,3.232456298828125,0.6221325122870505,-9.504283256205916,-1.4874267152056098
1772649764709497000,3.2424970703125,1.2415525507450103,-8.577809046790003,-1.8624854779839515
1772649764719538200,3.2525380859375,2.087778334447741,-6.555035976216197,-2.102047244427353
1772649764729579300,3.262579345703125,3.47676308786273,-4.8902714571595185,-3.176797267730534
1772649764739620000,3.2726201171875,4.100944203242659,-2.868738742035627,-3.9308512559533115
1772649764749661200,3.2826611328125,2.111180837345123,-0.14746552041769026,-3.842936533395946
1772649764759703000,3.292703125,2.9419729050725696,4.114261949977278,-5.5215667884588235
1772649764769744100,3.302744140625,10.54364325556755,10.914085172200203,-8.101246012040972
1772649764779785200,3.31278515625,0.17052958514094352,18.207202199220657,0.9796343563910573
1772649764789826000,3.322825927734375,-13.168710019361972,19.90149968675375,10.21909449058175
1772649764799867100,3.3328671875,-6.077022742658853,14.854485177743435,9.65134954817295
1772649764809908200,3.342908203125,-1.403232474476099,10.540234323906898,4.358949535001814
1772649764819949000,3.352948974609375,-1.0122393527239562,8.592260765990615,0.565089459463954
1772649764829990100,3.362990234375,-5.402432459512353,9.057748279973865,2.2191771016836164
1772649764840032000,3.373031982421875,-7.522889074724913,8.458449092394114,5.369105943971872
1772649764850073000,3.383072998046875,-6.56959524744451,7.128786296519636,4.127408724059165
1772649764860114200,3.3931142578125,-6.518114066532254,7.908152128392458,3.39086058191061
1772649764870155000,3.403155029296875,-6.14012188065052,10.848299571603535,5.605017809605598
1772649764880196000,3.413196044921875,-4.684360762035847,12.958688966310023,7.4300716748178
1772649764890237200,3.4232373046875,-3.632447570571303,15.24552915289998,8.255847960209845
1772649764900278000,3.433278076171875,-3.7669098170310256,16.318401545763013,7.903244482606649
1772649764910319000,3.443319091796875,-4.053007563069462,15.731840843725204,6.234564835932851
1772649764920361000,3.45336083984375,-4.169432048535347,14.742082787400483,4.680958260115981
1772649764930402000,3.463402099609375,-4.0761873631268735,13.508132528352737,3.710455523881316
1772649764940443100,3.473443115234375,-3.7204999480336904,12.023573185276984,2.9421856710404155
1772649764950484000,3.48348388671875,-3.459819551846385,10.387736070019006,2.5227286713480948
1772649764960525000,3.493525146484375,-2.7981179763674735,8.493886316478251,2.398378945840895
1772649764970566100,3.503566162109375,-1.8791474205799399,6.661794807714223,2.2462818200998007
1772649764980607000,3.51360693359375,-1.065849800749868,5.128866862788796,1.7023703193515538
1772649764990649300,3.5236494140625,0.07935761435329913,3.55606283454895,0.8267833435427397
1772649765000690200,3.533690185546875,0.8218377768993377,1.864194619989395,-0.12568133943714202
1772649765010731300,3.543731201171875,1.2019546998500823,0.16519406933188438,-0.6479698411159217
1772649765020772000,3.553772216796875,1.9105746783703565,-1.8202496798008678,-0.9436046463064849
1772649765030813200,3.563813232421875,2.589514388898015,-4.094458348354697,-1.3133181025341152
1772649765040854300,3.573854248046875,3.169254305005073,-6.659521017563343,-2.1075326901011167
1772649765050895000,3.58389501953125,4.251335255718231,-9.041308017304539,-3.5533337018460034
1772649765060936200,3.593936279296875,5.7223120636433356,-10.838720426875351,-4.991457456961274
1772649765070978000,3.60397802734375,6.1702265115350485,-12.08917407695651,-6.140690035927295
1772649765081019100,3.61401904296875,5.309175499144196,-12.425223894643782,-6.36800709169507
1772649765091060200,3.624060302734375,4.4649218922972675,-12.835186505281925,-6.036116731774807
1772649765101101000,3.63410107421875,4.035128792029619,-13.506693435460328,-5.529616823923588
1772649765111142100,3.64414208984375,4.2836587316960095,-13.90393568073511,-4.415466371993721
1772649765121183200,3.654183349609375,3.6188416545450686,-13.489950390452146,-3.4726454234108326
1772649765131224000,3.66422412109375,2.2344027278661724,-11.944735210883616,-2.9085847224727273
1772649765141265200,3.67426513671875,1.7157416959695517,-9.63018225698173,-1.7512147220194338
1772649765151307000,3.68430712890625,1.426050455483794,-8.21201291013658,-0.8954818359114229
1772649765161348000,3.69434814453125,0.9727129596300422,-8.101800138792395,-0.4708319802837446
1772649765171389200,3.70438916015625,0.7145468843512237,-8.390465689492226,-0.01704356232471764
1772649765181430000,3.714429931640625,1.4841174445271492,-8.68232915945053,-0.3452547222755849
1772649765191471000,3.72447119140625,2.0635551628172397,-8.98604497976601,-1.0077572388738394
1772649765201512200,3.73451220703125,1.6934335641801357,-9.669674893936515,-1.1100659590952098
1772649765211553000,3.744552978515625,1.7068508257664738,-10.150248333370685,-1.1724826677806675
1772649765221595100,3.75459521484375,2.102992270192504,-10.357806211179494,-1.4897205252312122
1772649765231636000,3.764635986328125,2.6303344750642776,-10.478562588369845,-1.8978717025332152
1772649765241677000,3.774677001953125,3.170500505673885,-10.323350983870029,-1.963069712500274
1772649765251718100,3.78471826171875,3.196838477501273,-9.803409995165467,-1.6515891034021972
1772649765261759000,3.794759033203125,2.3409834263183176,-8.8424232752949,-1.4116151028960942
1772649765271800000,3.804800048828125,1.689967933896184,-7.611165324071049,-1.2268398425206541
1772649765281841200,3.814841064453125,1.8551193331301212,-6.146392046961188,-1.32555302246809
1772649765291882000,3.824882080078125,2.4073189158827066,-4.419439659538865,-1.5935473949305712
1772649765301924400,3.83492431640625,2.3621631385996937,-2.565795075136423,-1.8487030363470316
1772649765311965200,3.844965087890625,1.7133406261771917,-0.5036544552922249,-1.806674451173842
1772649765322006300,3.85500634765625,1.4168771150775252,2.2027613889336584,-1.58173026201725
1772649765332047000,3.865047119140625,0.10198394524641334,5.792028573948144,-1.928621499453485
1772649765342088200,3.875088134765625,-1.1712486690063029,10.414426508545874,-1.6970608147665858
1772649765352129300,3.88512939453125,0.565292215494439,15.80142934373617,-1.5795251531884074
1772649765362170000,3.895170166015625,0.8080150763172655,19.485486105513573,-2.248056428556889
1772649765372212200,3.905212158203125,-2.352132450711727,20.998130556344986,-0.29988944869404655
1772649765382254000,3.915254150390625,-5.830533368909359,19.581486811631915,4.098937247334421
1772649765392295200,3.925295166015625,-6.059495269274711,14.63878607905507,4.82360468981415
1772649765402336000,3.9353359375,-5.413518501672148,9.207374777817726,3.5978491353988646
1772649765412377000,3.945377197265625,-4.640569551104307,6.105259826105833,3.3499975333854555
1772649765422418200,3.955418212890625,-3.9794098274171352,5.551186850696801,3.5355817720562217
1772649765432459000,3.965458984375,-4.417873140874505,6.308422099304199,5.112777897775173
1772649765442500000,3.9755,-4.879842417603731,7.897741793537139,7.468572962647676
1772649765452542000,3.9855419921875,-4.1707022146016355,10.181747048962116,9.521008765557408
1772649765462583000,3.9955830078125,-4.2043548933565615,12.35939503942728,10.400607242029904
1772649765472624000,4.0056240234375,-4.340201872172951,14.234092348730563,9.312337373548745
1772649765482665000,4.0156650390625,-3.745923727625608,15.630173782408237,6.740573160874844
1772649765492706000,4.0257060546875,-3.190718533316254,16.285484780067204,4.247023237738013
1772649765502747100,4.0357470703125,-3.2068764719128606,15.456452707749603,2.4826746011182665
1772649765512788000,4.0457880859375,-3.542884788545966,13.48393566020727,1.3481136677138505
1772649765522829000,4.0558291015625,-3.40354236882925,10.920362937295437,0.5662888983815908
1772649765532871000,4.065870849609375,-3.3674539873600002,8.362206978735328,0.2795003936000168
1772649765542912000,4.075912109375,-2.8235937784075738,6.096867845335602,0.22773148178756236
1772649765552953000,4.085953125,-1.7112473071597516,4.063634755545855,-0.12507263295426965
1772649765562994200,4.095994140625,-0.49900180718079207,2.2014766098201273,-0.5213328814543783
1772649765573035300,4.10603515625,0.8359368832699954,0.33684652102291585,-0.8060284325446933
1772649765583076400,4.116076416015625,2.0858178480297327,-1.7169646618932484,-1.3664632711358367
1772649765593117200,4.1261171875,3.1981834623694416,-3.7945343215376135,-2.27838873071745
1772649765603158300,4.136158203125,4.266747928905486,-5.961306697723269,-3.3352795644640922
1772649765613200100,4.1462001953125,4.828213352653384,-7.908271370857953,-4.570508465145528
1772649765623241200,4.1562412109375,4.909262573355436,-9.345669149786234,-5.827075921931862
1772649765633282300,4.1662822265625,4.880741412270069,-10.56701244071722,-6.715090929093956
1772649765643323100,4.1763232421875,4.846248775559664,-11.64739360177517,-7.283658293801546
1772649765653364200,4.1863642578125,4.993681562751531,-12.451763526523113,-6.919318201175332
1772649765663405000,4.196405029296875,4.40811045627296,-12.673664402461052,-6.112103992912173
1772649765673446100,4.206446044921875,3.7950562995851036,-12.25267653993964,-5.234660064125061
1772649765683487200,4.2164873046875,3.577859071293473,-11.214286262392998,-4.278761607304215
1772649765693529000,4.226529052734375,3.1159412324905396,-9.943783511495589,-3.2252509175151585
1772649765703570200,4.236570068359375,2.6057237654209136,-9.103905635514854,-2.1364013494499026
1772649765713611000,4.246611083984375,2.280326420781761,-8.824262764704226,-1.7024777252487837
1772649765723652000,4.256652099609375,2.0348995616972445,-9.00482742164731,-1.6700125027127564
1772649765733693200,4.266693115234375,1.9328630825459956,-9.41973333390653,-1.7782253324113786
1772649765743734000,4.276734130859375,1.9199737903565168,-9.794925659936666,-1.9928323980793357
1772649765753775000,4.286775146484375,1.8789153653897344,-10.052822562885284,-2.253968575210124
1772649765763817000,4.29681689453125,1.7822044651754199,-10.088852492165564,-2.456576575526595
1772649765773858000,4.306858154296875,1.6587511039860545,-9.971632472407817,-2.4879648164808748
1772649765783899100,4.316899169921875,1.5632425652988253,-9.722291800880432,-2.1841456819213927
1772649765793940000,4.32693994140625,1.4371446809500454,-9.42068435102105,-1.7286895864784717
1772649765803981000,4.33698095703125,1.537060660815984,-9.16035116083622,-1.3342759887583553
1772649765814022100,4.347022216796875,1.5001690001398325,-9.024844958281516,-0.7339519881755113
1772649765824063000,4.35706298828125,1.2633569707959889,-9.018978696596623,-0.17457038496434688
1772649765834104000,4.36710400390625,0.8004267400801182,-8.861289303806423,0.18012363517731428
1772649765844146000,4.37714599609375,1.136562482485175,-8.365680792325735,-0.09211758107468486
1772649765854187000,4.38718701171875,1.2610241439342498,-7.4158859130769965,-0.522676405017823
1772649765864228000,4.39722802734375,0.13068681957423686,-5.974632043242454,-0.5160669237501919
1772649765874269000,4.40726904296875,-1.1607218681644647,-4.157280422970652,-0.42193632235266265
1772649765884310000,4.41731005859375,-0.7303525023788213,-1.9775246465712784,-1.0314050217691808
1772649765894351000,4.42735107421875,0.21700265556760132,0.8594657890260219,-1.8385306019008159
1772649765904392000,4.437391845703125,5.663376475071907,5.168430811414122,-5.376610620513558
1772649765914433300,4.447433349609375,8.59775118010044,11.983748539888857,-10.14214685997963
1772649765924475100,4.45747509765625,-8.591921743294597,20.72206320593357,0.013584434846788644
1772649765934516200,4.46751611328125,-12.126616211122274,23.663204336357115,10.455720641964673
1772649765944557300,4.477557373046875,-3.9074902541100975,17.101890010523796,5.737311479854584
1772649765954598100,4.48759814453125,-1.2253992883235216,9.312230406042932,3.0332693790227174
1772649765964639200,4.49763916015625,-1.4743478917933999,3.28641996422708,1.944305244667083
1772649765974680000,4.50768017578125,-3.106417617341876,1.0694979479938744,1.845966012598574
1772649765984721200,4.51772119140625,-5.437475131320953,0.9301075974822044,3.48521176725626
1772649765994762200,4.52776220703125,-4.4078228715032335,2.017221866187453,4.557565689203143
1772649766004804000,4.53780419921875,-2.649953952291608,4.400416979160904,4.521424700763822
1772649766014845200,4.54784521484375,-3.3927912577122448,8.645854993534087,5.208576359319687
1772649766024886000,4.557885986328125,-5.107439459356665,13.05132867156267,6.320856048941612
1772649766034927000,4.567927001953125,-5.826709426707029,15.866126564574241,6.5277610157996415
1772649766044968200,4.57796826171875,-5.829809146288037,15.414307510459421,4.807019757977128
1772649766055009000,4.588009033203125,-5.614411660894751,13.539299235510825,2.450000704267621
1772649766065050000,4.598050048828125,-5.112978388783335,12.289497911858557,1.0213999797791242
1772649766075091200,4.60809130859375,-4.155583555924892,11.29074640173912,0.025850042179971933
1772649766085133000,4.618133056640625,-3.72201093711853,10.21905825022459,-0.34999461027905343
1772649766095174100,4.628174072265625,-3.7552988742142914,9.223705734893679,0.3067727236680686
1772649766105215000,4.638215087890625,-3.809354289528727,8.236428389468788,1.622435781893134
1772649766115256000,4.648256103515625,-3.650471303039789,7.498914324897528,2.779486925655603
1772649766125297200,4.658297119140625,-3.2372336162537336,7.082618419584631,3.4506913657560943
1772649766135338000,4.668337890625,-2.2913994573295113,6.696876057967543,3.7209091133564707
1772649766145379000,4.678379150390625,-1.4699655850559472,6.047367609107494,3.6425633063942193
1772649766155421000,4.6884208984375,-0.14894845245182514,5.241856113108993,3.2690339451402424
1772649766165462000,4.6984619140625,1.3250007954128087,4.088104595413804,2.502323012179136
1772649766175503000,4.708503173828125,2.609529587444663,2.218242451182008,1.4786851903453468
1772649766185544000,4.7185439453125,3.777424781304598,0.06705284405350685,0.3245211463265121
1772649766195585000,4.7285849609375,4.819651860535145,-1.9958903243452308,-0.9671266839303075
1772649766205626000,4.738626220703125,5.526823978334665,-3.990747213989496,-2.5374384569630024
1772649766215667000,4.7486669921875,5.648258400917053,-5.833111694964766,-4.133864183808863
1772649766225708000,4.7587080078125,5.423326194459199,-7.132087091630697,-5.676330064669251
1772649766235750100,4.768750244140625,5.250735585135221,-7.7000062215626235,-6.704536217331886
1772649766245791200,4.778791259765625,5.813847022524476,-8.425722880834341,-6.73876991084516
1772649766255832300,4.788832275390625,6.4055848349392415,-9.262574102470278,-6.321929231131077
1772649766265873200,4.798873046875,5.889076743292808,-10.186427900254726,-6.090029523748159
1772649766275914200,4.808914306640625,5.120377851384878,-11.234785445064306,-5.72443212453723
1772649766285955000,4.818955078125,3.711528121548891,-11.970250760412215,-4.974700967949628
1772649766295996200,4.82899609375,2.0979706426382063,-12.004440614783762,-4.075310872553288
1772649766306037200,4.839037353515625,1.2177524268321693,-11.515574563300609,-3.3569814009234307
1772649766316079000,4.8490791015625,0.7707869502283632,-10.817207683247327,-2.65082664347291
1772649766326120200,4.8591201171875,0.38051147522628304,-10.150689062875509,-1.9203907005943357
1772649766336161000,4.8691611328125,0.13155498071089386,-9.907889191293716,-1.5079644763216375
1772649766346202000,4.8792021484375,0.048043607679009434,-10.035025040388106,-1.3651146330058574
1772649766356243200,4.8892431640625,0.06144961721897125,-10.236883829772472,-1.3151463408745825
1772649766366283500,4.899283447265625,0.176273827881366,-10.608457380783557,-1.201734188967198
1772649766376324400,4.909324462890625,0.31738734892383214,-10.296318015515803,-0.7794996873855591
1772649766386365400,4.919365478515625,0.22293021898567675,-9.964884751713276,-0.3369698551416397
1772649766396407300,4.9294072265625,0.7569890187613666,-9.927374813008308,-0.23688348714485763
1772649766406448400,4.939448486328125,1.5378975500315426,-9.30093276695907,-0.4001191158853471
1772649766416489500,4.949489501953125,1.9816681761167942,-8.780884226226807,-0.6492461446620523
1772649766426530300,4.9595302734375,2.0131765363194045,-8.235962525522709,-1.0379783357448875
1772649766436571400,4.9695712890625,2.2534179555900393,-7.438545488652586,-1.8249711553648114
1772649766446612500,4.979612548828125,1.9919572226800024,-6.356944430410862,-2.4068299633219836
1772649766456653300,4.9896533203125,2.54543500867486,-4.925661334970593,-3.2806814205750823
1772649766466695400,4.9996953125,2.673981893610954,-3.4391689780056476,-3.6534918199047444
1772649766476736300,5.009736328125,0.7028599536888301,-1.973267573648691,-2.409370149324089
1772649766486777300,5.01977734375,-1.759542843773216,-0.0017705168038606642,-1.0189616467162965
1772649766496818400,5.029818359375,1.4861844600595533,3.625206513401866,-2.293062129844725
1772649766506859300,5.039859375,8.384438684287666,9.426517879480123,-6.605508272346854
1772649766516900400,5.049900390625,-4.134312219837308,16.1523704410851,0.2611608001153916
1772649766526941200,5.059941162109375,-11.998922728145121,21.985142528831958,11.303524050247669
1772649766536982300,5.069982177734375,-5.718004721838236,18.41727001402378,8.497204647246003
1772649766547023400,5.0800234375,-2.279227958020568,12.500180643689632,2.090488177928328
1772649766557065200,5.090065185546875,-4.236642128977179,10.216306321167945,3.218017751391232
1772649766567106300,5.100106201171875,-5.14391070266366,8.032796160671115,5.980642681834102
1772649766577147100,5.110147216796875,-5.338565844279527,4.654526180264353,5.04926024211049
1772649766587188200,5.120188232421875,-4.178289893251657,3.2652889133930203,4.026816306236386
1772649766597229300,5.130229248046875,-4.081317711752653,4.475602276265621,5.130338104385137
1772649766607270100,5.140270263671875,-5.909829608464241,6.947309200906753,6.891855609232187
1772649766617311200,5.150311279296875,-6.774197782579064,10.190126754772663,7.406638192260265
1772649766627352300,5.160352294921875,-6.27496172825098,12.299799525642394,6.557644112887978
1772649766637394400,5.17039453125,-5.311151767653227,13.591803329730032,5.194173739957809
1772649766647435500,5.180435546875,-4.885938396391272,13.398188637077807,3.2698733185738322
1772649766657476400,5.190476318359375,-4.619242100915312,12.223362767171858,1.6389460410587489
1772649766667517400,5.200517333984375,-4.238591509479284,11.421676966941355,0.4612159010786563
1772649766677558500,5.21055859375,-4.0716064650774,10.676226848673819,-0.28320144007503983
1772649766687599400,5.220599365234375,-4.07695834749937,9.660018007797003,-0.5895294156502932
1772649766697640400,5.230640380859375,-3.3121225607603786,8.545697167736291,-0.5290393641784786
1772649766707682300,5.240682373046875,-2.125724911004305,7.418362532323599,-0.5416530542969703
1772649766717723400,5.250723388671875,-0.8535276311486959,6.393732484582066,-0.5817785823278129
1772649766727764500,5.260764404296875,0.5829489412814378,5.063996623471379,-0.40614933596029873
1772649766737805300,5.270805419921875,1.9414801042437553,3.1776872023075815,-0.05877776766121387
1772649766747846400,5.280846435546875,3.3005455202132463,0.9613777650147676,-0.07534180284067989
1772649766757887500,5.290887451171875,4.496815160164236,-1.1613771902680396,-0.315494667045027
1772649766767928300,5.30092822265625,5.3758431432724,-2.9079239204764367,-0.7433700971230864
1772649766779224300,5.312224365234375,5.91100449746251,-4.27940516590476,-1.5653614571489394
1772649766789266400,5.322266357421875,6.22915625488758,-4.893430213451385,-2.2549304059796036
1772649766799307300,5.332307373046875,6.694597007119655,-5.499341512647271,-3.817205003029108
1772649766809348400,5.342348388671875,6.392595004984736,-6.125695295891165,-4.663712818543613
1772649766819389400,5.352389404296875,5.404793343424797,-7.650502478203177,-5.017088741824031
1772649766829430300,5.36243017578125,4.419282423150539,-9.600635259979963,-5.139268429815769
1772649766839471400,5.372471435546875,4.159218113034964,-11.33639873036742,-5.100646145954728
1772649766849512400,5.382512451171875,4.926563252246379,-12.70490592842102,-4.929531454402208
1772649766859553300,5.39255322265625,4.543284358133375,-13.900084850525856,-4.369439072573185
1772649766869595400,5.402595458984375,2.608166482397914,-14.486540338623524,-3.352520037600398
1772649766879636200,5.41263623046875,2.8469401672035453,-14.0238000775218,-2.400301730597019
1772649766889677300,5.42267724609375,3.202069363892078,-12.818418910354374,-1.6856474403485655
1772649766899718400,5.432718505859375,2.5824229693323373,-11.292599336129426,-0.7755590600010007
1772649766909759200,5.44275927734375,1.695041145507246,-10.600789622634649,-0.10191489859819412
1772649766919800300,5.45280029296875,0.8772760248742997,-10.375144299471378,0.3153190182171762
1772649766929841200,5.462841064453125,0.4971085407800972,-10.140270544713735,0.33416509991921484
1772649766939882200,5.47288232421875,0.5233201097488404,-9.815393278425931,0.04127564791403711
1772649766949924400,5.48292431640625,0.4620360583551228,-9.122709120184183,-0.2712709099151194
1772649766959965200,5.492965087890625,0.26262057046964765,-8.865911118388176,-0.9796650437902659
1772649766970006300,5.50300634765625,0.02369286414608359,-8.512090081688761,-1.6220764470614493
1772649766980047000,5.513047119140625,-0.2888671376865357,-8.153516297504305,-2.032440478107333
1772649766990088200,5.523088134765625,-0.6322638840705156,-7.522902518728375,-2.016379570144415
1772649767000129300,5.53312939453125,-0.6447691453784704,-7.288341483181714,-2.1311282313525677
1772649767010170000,5.543170166015625,-0.17935170095674693,-5.7870186368316405,-2.2105380142845212
1772649767020211200,5.553211181640625,-0.25228841541707514,-4.5052550717294215,-2.4251851197019216
1772649767030253300,5.56325341796875,1.0105530070722102,-2.849361256870627,-2.500920744165778
1772649767040294400,5.57329443359375,2.3791946451604367,-1.0911363638281821,-2.1712252639412877
1772649767050335500,5.58333544921875,2.3266297606647015,0.692741441386938,-1.9975665869943797
1772649767060376300,5.593376220703125,1.8516589635431766,3.6537083852648733,-3.5156565898805856
1772649767070417400,5.60341748046875,-0.14198628528900445,8.330010344007611,-4.098034161014855
1772649767080458500,5.61345849609375,-1.8753326845973728,13.954612559527158,0.40701808161884545
1772649767090499300,5.623499267578125,-5.8185652832180255,17.2776019667387,8.130924526467918
1772649767100540400,5.63354052734375,-3.3890976638913153,13.239094638186693,10.743287876033783
1772649767110582300,5.643582275390625,-0.19731055149547755,7.139332824975252,9.661606153771281
1772649767120623400,5.653623291015625,-1.4464736503094433,3.5140468165963887,7.027159567213058
1772649767130664400,5.66366455078125,-2.366321135061979,2.6711872944563626,4.765096094483137
1772649767140705300,5.673705322265625,-3.1660218989551066,3.5443496004015205,3.9157685453727837
1772649767150746400,5.683746337890625,-3.192990569901466,5.61176553030014,2.45047796639055
1772649767160787500,5.693787353515625,-2.6134599126309155,8.394137656003236,1.8798063228800892
1772649767170828300,5.703828369140625,-2.2244341454289853,10.527620341527461,2.36382961050719
1772649767180870400,5.713870361328125,-2.218770128317922,10.527881038290262,2.373171731609106
1772649767190911200,5.7239111328125,-2.207498500458151,10.529385597634315,2.370085602162033
1772649767200952300,5.733952392578125,-2.191569109920412,10.531961001080274,2.356407789943367
1772649767210993400,5.743993408203125,-2.170466700658947,10.53558854392767,2.335328615427017
1772649767221034200,5.7540341796875,-2.146940279120952,10.54002389602661,2.306301112254709
1772649767231075300,5.764075439453125,-2.1226411196447907,10.545096376985311,2.270161000598222
1772649767241116200,5.7741162109375,-2.0976612844280895,10.550580361354351,2.231958111193031
1772649767251157200,5.7841572265625,-2.431478959149122,9.800430102571845,3.3225092224791646
1772649767261199400,5.794199462890625,-2.4934990697324273,8.133119990685582,3.5177316425889726
1772649767271240200,5.804240234375,-2.2900277305848897,7.301873164927959,3.595324585357308
1772649767281281300,5.81428125,-1.9423801218234003,7.119582414844632,3.495964631938934
1772649767291322000,5.824322021484375,-1.2918512438744305,7.0252972804725164,3.1447441331267356
1772649767301363200,5.83436328125,-0.4315899205565452,6.390989907875657,2.3402130264677106
1772649767311404300,5.844404296875,0.8155952292479575,5.629532657659054,1.2751219351306557
1772649767321445000,5.854445068359375,1.826238106560707,4.741257538256049,0.16466273893415928
1772649767331486200,5.864486328125,2.4654700760781765,3.237887111726403,-1.3329665135949849
1772649767341528300,5.8745283203125,2.9629198315113783,1.1357488280147314,-2.8141213089242574
1772649767351569400,5.8845693359375,3.4199177495688198,-1.6079454842478036,-4.0956823371917
1772649767361610500,5.894610595703125,3.676251640984416,-4.554631389316916,-5.154020593267679
1772649767371651300,5.9046513671875,3.6374323732465506,-7.257201079508662,-6.350491308748722
1772649767381692400,5.9146923828125,3.778347156846523,-9.795212660184502,-7.665300818884372
1772649767391733500,5.9247333984375,4.09691567837894,-11.853248182797431,-8.591327869054675
1772649767401774300,5.9347744140625,4.362940358203649,-13.060866899758576,-8.872995523691177
1772649767411815400,5.9448154296875,4.410389507120848,-13.439935190439224,-8.081245426541566
1772649767421857300,5.954857177734375,4.088647031727433,-13.54248137267828,-7.114491813707351
1772649767431898400,5.9648984375,3.542247367425263,-13.10482060777545,-5.786452819642424
1772649767441939500,5.974939453125,2.9826731642514464,-11.647460237270593,-4.074098281893134
1772649767451980300,5.984980224609375,2.4225170695364473,-9.684159930884837,-2.630879833987355
1772649767462021400,5.995021484375,1.9218084584377706,-8.426258302885293,-1.5985555784814058
1772649767472062500,6.0050625,1.9693029078014195,-8.127856371068955,-0.9192398742482065
1772649767482103300,6.015103271484375,2.0343631167329845,-8.210994088482856,-0.41913500119633973
1772649767492144400,6.025144287109375,2.0919040360756216,-8.602801449227332,-0.26719701153971254
1772649767502186500,6.0351865234375,2.152196738344431,-9.165403183528781,-0.3068777914777398
1772649767512227600,6.0452275390625,2.2093039424449206,-9.628971127626299,-0.2963606352470815
1772649767522268400,6.055268310546875,2.0182471175819634,-9.944010305988789,-0.25399828807488084
1772649767532309500,6.0653095703125,1.6436387289196253,-10.101534279084206,-0.22396489579565823
1772649767542350600,6.0753505859375,1.0632568616472184,-9.894260478913784,0.07239267071150243
1772649767552391400,6.085391357421875,0.5799195104576647,-9.47247591305673,0.36416334781982
1772649767562432500,6.0954326171875,0.5467379563458263,-8.965833966386318,0.49796618052273983
1772649767572473600,6.1054736328125,0.3981408015497029,-8.584109023717046,0.36169330444447695
1772649767582515500,6.115515380859375,0.7690472669541836,-7.997682761713862,-0.32389508685003965
1772649767592556500,6.125556640625,1.5522241815477609,-7.379978148871659,-1.4780660355336963
1772649767602597400,6.135597412109375,1.5223568665504454,-6.4342585562378165,-2.3290371140673756
1772649767612638500,6.145638427734375,1.521123963754624,-4.984524442827701,-3.190623840770125
1772649767622679600,6.155679443359375,1.5536298105619848,-2.9567478648781775,-3.8367400168433785
1772649767632720400,6.165720458984375,1.947672529143095,-0.595942278367281,-4.543808382007479
1772649767642761500,6.175761474609375,1.7598387579798698,2.077892315727472,-5.5510185083925725
1772649767652802600,6.185802490234375,3.9536739131361243,7.454791105532646,-7.640639255836605
1772649767662844400,6.195844482421875,3.983742303663492,7.457012873235344,-7.564048183587193
1772649767672885500,6.205885498046875,4.0932027953356505,7.471000482055544,-7.551784914341568
1772649767682926300,6.21592626953125,-9.280403773671388,18.95953915439248,8.556651692470908
1772649767692967400,6.225967529296875,-2.1455546699814496,9.87893665305376,6.183067288407683
1772649767703008500,6.236008544921875,-1.3688158256113527,4.8857431660801165,4.705396828062832
1772649767713049300,6.24604931640625,-3.4835207454293964,4.355145174282789,4.775147532898187
1772649767723090400,6.25609033203125,-4.196102028796076,3.7806402362197638,5.041228326824307
1772649767733131500,6.266131591796875,-4.535062765493989,2.827770187309384,5.620108411231636
1772649767743173400,6.27617333984375,-3.538856848204136,3.7282711665570734,5.754776993918418
1772649767753214500,6.28621435546875,-3.2250644550323484,7.904946610349416,6.0903726380974055
1772649767763255300,6.29625537109375,-3.21237916098237,7.9046303840070955,6.1420087173104285
1772649767773296400,6.30629638671875,-3.2040304348319766,7.904506465366482,6.177873811417817
1772649767783337500,6.31633740234375,-3.2011452347844838,7.904627461397648,6.186934485229849
1772649767793378300,6.32637841796875,-3.2027661139845844,7.905075789687037,6.169176125699281
1772649767803419400,6.33641943359375,-3.2099545641839504,7.905313105574249,6.135804017451405
1772649767813460200,6.346460205078125,-3.220238642311096,7.905440531346201,6.096598965266346
1772649767823502600,6.356502685546875,-3.2221611348062753,7.9070549808055155,6.058681614804268
1772649767833543400,6.36654345703125,-3.4214386755257844,9.540858544409275,0.4783281812580302
1772649767843584500,6.37658447265625,-2.885957003340125,8.149628642416,1.4941365881077944
1772649767853625600,6.38662548828125,-2.598641698205471,7.101074113729596,2.253828874478489
1772649767863666400,6.39666650390625,-2.2174615299373865,6.3452767889708275,2.512030751723051
1772649767873707500,6.40670751953125,-1.4507542502380906,5.7699979439258575,2.296898639267683
1772649767883748600,6.41674853515625,-0.567997894256562,5.136818114054202,1.8502493890061973
1772649767893789400,6.42678955078125,0.4706164013043046,4.377144824644923,1.441476280413568
1772649767903831600,6.43683154296875,1.3682372950710355,3.2582495162755247,1.0281579296067356
1772649767913872400,6.446872314453125,1.9354637665636836,1.4765987394601106,0.41351518855318425
1772649767923913500,6.45691357421875,2.746118324539065,-0.9832856454402208,-0.5538060681011527
1772649767933954600,6.46695458984375,3.9095726133421063,-3.626810441467166,-1.7895637418970465
1772649767943995400,6.476995361328125,4.984653622165322,-5.964292435535788,-3.1064941897094247
1772649767954036500,6.487036376953125,5.830497713074088,-8.157394015720486,-4.569910206991434
1772649767964077600,6.49707763671875,5.825186747184396,-9.977983887261152,-5.6784197304248805
1772649767974118400,6.507118408203125,5.31286090965867,-11.548017866265774,-6.349350906541943
1772649767984160500,6.517160400390625,5.465777096697688,-12.543679593676329,-6.64574325210154
1772649767994201300,6.527201416015625,6.013237960490584,-13.204268823999167,-6.718381202811003
1772649768004242400,6.537242431640625,5.794363154375553,-13.761407032197713,-6.1133262281835075
1772649768014283500,6.547283447265625,4.889283030644059,-13.657241724324226,-4.661792956396937
1772649768024324400,6.557324462890625,3.9219647696644064,-12.542226472258568,-3.0814193696856496
1772649768034365400,6.567365478515625,3.190274881201982,-11.093251652783154,-1.8888756183899937
1772649768044406500,6.577406494140625,2.436893385413289,-9.914809930467605,-0.9485483132537453
1772649768054447400,6.587447265625,2.185404595941305,-9.146694391405582,-0.5439665919363499
1772649768064488400,6.597488525390625,1.8868530265212058,-8.969004413115977,-0.5905246007001027
1772649768074530300,6.6075302734375,1.1814018142301588,-9.475383909457921,-0.7745652997232974
1772649768084571400,6.6175712890625,0.4517881475199014,-9.687651280131936,-0.8646696412794291
1772649768094612500,6.627612548828125,-0.030055604111030695,-9.824380887001752,-1.2469782290555536
1772649768104653300,6.6376533203125,-0.42810916576869784,-9.745350020384787,-1.5712141286998986
1772649768114694400,6.6476943359375,-1.0442262171585113,-9.789477331402898,-1.6101635986886917
1772649768124735200,6.6577353515625,-1.4796540353775023,-9.991424383592605,-1.5697504858881235
1772649768134776300,6.6677763671875,-1.6480974618941544,-9.526286998221277,-0.4723423848466947
1772649768144817400,6.6778173828125,-1.9715490792930126,-8.883591736507416,0.3149040807407349
1772649768154859500,6.687859619140625,-0.9829051216900349,-7.824438656917214,0.21149203891996293
1772649768164900600,6.697900634765625,-0.355348976919055,-6.584560176864266,-0.15679679133202878
1772649768174941400,6.70794140625,-0.5089111337114125,-5.184183676341176,-0.07748889787197112
1772649768184982500,6.717982421875,0.48962066924273967,-3.048199821650982,-0.14038298741136676
1772649768195023600,6.728023681640625,1.2531845363497733,-1.02748777526021,-0.43407121597826476
1772649768205064400,6.738064453125,1.0461872150331735,1.079029161927104,-0.6504490176457911
1772649768215105500,6.74810546875,1.2958306688994168,3.7121050446540114,-1.2056724782641977
1772649768225146600,6.758146728515625,1.6309873371392487,7.542778016543388,-1.7915971474207937
1772649768235188500,6.7681884765625,1.4473983639389276,12.228833892059326,-1.9443645736388862
1772649768245229600,6.7782294921875,1.5402882445603607,12.233976515644787,-1.9886692870505154
1772649768255270400,6.7882705078125,1.627169240155816,12.240309225797652,-2.0536751354463396
1772649768265311500,6.7983115234375,1.6796365094959735,12.245254280984401,-2.1113078247256576
1772649768275352600,6.8083525390625,-3.072028441005945,9.083422819456457,3.4362197728112336
1772649768285393400,6.818393310546875,-5.33048658272028,7.819092619714141,3.6712726835280654
1772649768295434500,6.8284345703125,-4.890021281790733,7.7204498746544115,3.804489021579921
1772649768305475600,6.8384755859375,-4.07087873532474,9.465530039441585,2.1607056234925985
1772649768315517400,6.848517333984375,-4.047167020347715,9.466498007690905,2.182526994678378
1772649768325558500,6.85855859375,-4.014803796881437,9.467699784696102,2.2216703798040744
1772649768335599400,6.868599365234375,-3.9720892752707004,9.470068851915002,2.258839980638772
1772649768345640400,6.878640380859375,-3.920456703189015,9.474045938852429,2.275439379392564
1772649768355681500,6.888681640625,-3.8666450335025786,9.479133032858371,2.267670352826267
1772649768365722400,6.898722412109375,-3.818124455961585,9.484465041536092,2.243232369401306
1772649768375763200,6.90876318359375,-3.7768823449909683,9.489714048105478,2.207295817492902
1772649768385804300,6.91880419921875,-3.738048464205861,9.495243040660023,2.1651143798455594
1772649768395846400,6.928846435546875,-3.6994103982537982,9.501149634355306,2.1214725142568347
1772649768405887500,6.938887451171875,-2.468333648815751,10.176009382092952,1.4381776772595942
1772649768415928300,6.94892822265625,-2.3335307722248135,8.376063654652237,1.2050323537297547
1772649768425969400,6.958969482421875,-2.1727545193351805,6.930667278185487,1.2892159269347787
1772649768436010200,6.96901025390625,-1.5986420877210794,5.716576150339842,1.2573374182455241
1772649768446051300,6.97905126953125,-0.7338380064070225,4.503257760432362,0.9911897696282714
1772649768456092400,6.989092529296875,0.43751127342954277,3.0250054085463285,0.8171798680908977
1772649768466133200,6.99913330078125,1.6735902150690554,1.298754447391629,0.5200280824661254
1772649768476174300,7.00917431640625,2.571912681233883,-0.534523640808463,0.0443351085498929
1772649768486216200,7.01921630859375,3.1729917379677293,-2.4248516499638555,-0.7072847113285213
1772649768496257300,7.02925732421875,3.685603991219401,-4.439118173477054,-1.5440321072638035
1772649768506298400,7.03929833984375,4.16819578473866,-6.593341449213027,-2.368159310274571
1772649768516339200,7.049339111328125,4.653147877648473,-8.735847983670235,-3.269303117470443
1772649768526380300,7.05938037109375,5.064870483696461,-11.158808120799064,-4.695785826891661
1772649768536421400,7.06942138671875,5.540555566567182,-13.371094878447055,-6.341573842799663
1772649768546462200,7.079462158203125,5.545466134962439,-14.697010304486751,-6.587576894336938
1772649768556503300,7.08950341796875,4.991831550970673,-15.247836845320462,-5.704180779147148
1772649768566545200,7.099545166015625,4.570167396622896,-14.837809937274455,-4.600701651096344
1772649768576586200,7.109586181640625,3.8720010075777767,-13.54615450823307,-3.7059398000225423
1772649768586627300,7.11962744140625,2.9363018736988304,-11.655474032378196,-3.028206834936142
1772649768596668200,7.129668212890625,2.250295878046751,-9.755832835954427,-2.5609412053644656
1772649768606709200,7.139709228515625,1.727066369190812,-8.838512239331006,-2.3002938346639272
1772649768616750300,7.149750244140625,1.0246786361236124,-8.678550809955597,-1.82015264916718
1772649768626791200,7.159791259765625,0.10761172200031578,-8.65379572340548,-1.0693273406673223
1772649768636832300,7.169832275390625,-0.0423064522664994,-8.766644688472152,-0.5188671489279717
1772649768646874000,7.1798740234375,0.15055581458322703,-8.93705269306004,-0.4241891793133691
1772649768656915200,7.189915283203125,0.3653513154953718,-9.197440828302502,-0.6394825102124363
1772649768666956300,7.199956298828125,0.5210363827258349,-9.34712928546667,-0.7449065859753639
1772649768676997000,7.2099970703125,0.5236351670473813,-9.347655355167388,-0.688509429840371
1772649768687038200,7.2200380859375,0.2791600557297468,-9.207191237944365,-0.430815940509364
1772649768697079300,7.230079345703125,-0.024227263283729553,-9.103857120198011,-0.1396330184274353
1772649768707120000,7.2401201171875,0.36505211335308846,-8.412996085730194,0.11493693205555901
1772649768717161200,7.2501611328125,1.423218593058735,-7.784477233406901,-0.5136799555484205
1772649768727203000,7.260203125,1.9046324288398027,-7.1582134665340185,-1.0825435267236083
1772649768737244200,7.270244140625,1.980252025708556,-6.0658414234310385,-1.4147291432633995
1772649768747285200,7.28028515625,2.5105688624769447,-4.521497766000032,-1.6222554568901657
1772649768757326300,7.290326416015625,1.9061977784603834,-3.092961338919401,-1.7421319825060664
1772649768767367400,7.300367431640625,0.8184884664714336,-1.482235868564248,-1.51500971865803
1772649768777408300,7.310408203125,1.7431740389049053,0.5536211399883032,-2.257967727848887
1772649768787449300,7.320449462890625,5.9469748055100435,3.8938954439997673,-5.158897259393334
1772649768797490400,7.330490478515625,5.466128394353389,9.165724086046218,-6.579676496475934
1772649768807531300,7.34053125,5.556260500699281,9.1689272660017,-6.569825549069047
1772649768817573400,7.350573486328125,5.684478884333371,9.172649501395226,-6.603340865179896
1772649768827614200,7.3606142578125,5.789802130070329,9.175821117168665,-6.660667264989018
1772649768837655300,7.3706552734375,-1.959037388244271,12.843058846092223,5.606641026893258
1772649768847696400,7.3806962890625,-3.7061575344264504,9.137154994165897,7.032099946224689
1772649768857737200,7.3907373046875,-4.618896648478508,7.5764125751197335,8.978516337826848
1772649768867778300,7.4007783203125,-3.8605262583613396,7.154976384308934,6.988498704907298
1772649768877819400,7.4108193359375,-2.9463077194064855,7.082358891865611,4.789435001447797
1772649768887860200,7.420860107421875,-2.5785207011967897,7.4805492316454645,4.250551996386051
1772649768897902300,7.43090234375,-2.6825843022614717,9.19598887592852,3.9716371475890275
1772649768907943200,7.440943115234375,-2.62833424115777,9.200460468384623,3.9339460070982573
1772649768917984300,7.450984375,-2.587422385054827,9.204187964475155,3.8878149550423022
1772649768928025300,7.461025390625,-2.5543401996642348,9.207641319799423,3.8333454059690233
1772649768938066200,7.471066162109375,-2.51464414909184,9.212343798401951,3.767592830859124
1772649768948107300,7.481107177734375,-2.467117843285203,9.218585907661915,3.6965190607264637
1772649768958148400,7.4911484375,-2.4125281749635934,9.226270032423734,3.6280703784003854
1772649768968189200,7.501189208984375,-2.347972846814245,9.23564108735919,3.5664614789664744
1772649768978230300,7.511230224609375,-2.695973945188522,9.317274829950929,0.4724422650245949
1772649768988272000,7.521272216796875,-2.3709715912163256,8.052388749891518,1.0547516297608612
1772649768998313200,7.531313232421875,-1.59842186909914,7.114459080481529,1.5251166866526007
1772649769008354300,7.541354248046875,-0.8171366134710609,6.347464654403924,1.9822649729661643
1772649769018395100,7.55139501953125,-0.34797391810640693,5.557210933291912,2.4765049725726245
1772649769028436200,7.561436279296875,0.47485988409295676,4.515250396043062,2.7584932374656197
1772649769038477000,7.57147705078125,1.5500801552563905,3.042712330150604,2.6727982367843386
1772649769048518100,7.58151806640625,2.356564295679331,1.3088152381569147,2.0958045506455
1772649769058559200,7.591559326171875,3.22933204934895,-0.4250310004323721,1.1732152929041535
1772649769068601000,7.60160107421875,3.8207419449836015,-2.105459537088871,0.027077099756896494
1772649769078642200,7.61164208984375,3.9346395423203706,-3.608454700565338,-0.9886993410520255
1772649769088683300,7.621683349609375,4.036957176500558,-5.103815423640609,-2.0684122474595905
1772649769098724400,7.631724365234375,4.700988948492705,-6.864376066154241,-3.4844892982006073
1772649769108765400,7.641765380859375,5.566989984506368,-9.037214025989174,-5.074297652733326
1772649769118806300,7.65180615234375,5.608312174975872,-10.872394732940196,-6.5392538851946584
1772649769128847400,7.661847412109375,5.5662792058885096,-12.217905670809746,-7.44396517561376
1772649769138888400,7.671888427734375,5.609319306191802,-13.283506611365079,-6.817127408245206
1772649769148930300,7.681930419921875,5.1956373827695845,-14.057041837388276,-6.015315935808419
1772649769158971400,7.691971435546875,4.990240482386946,-14.209250168418883,-5.20168835337162
1772649769169012200,7.70201220703125,4.504248525035381,-13.230270695739984,-3.8515886264070867
1772649769179053300,7.71205322265625,3.6862224153786896,-11.451209350895882,-2.5238366325899957
1772649769189094400,7.722094482421875,2.704057882922888,-9.822124632507562,-1.5148419608756898
1772649769199135200,7.73213525390625,2.3302847760409113,-8.86998640500307,-1.1587514448743312
1772649769209176300,7.74217626953125,2.3854998827844858,-8.789425260078907,-1.4534830906800924
1772649769219217400,7.752217529296875,2.5419290463805195,-9.034341100901365,-1.9905048319146037
1772649769229258200,7.76225830078125,2.862651823337376,-9.203719762441516,-2.5317779469832775
1772649769239300400,7.77230029296875,3.0972607896789905,-9.416617247712612,-2.993104834155738
1772649769249341200,7.782341064453125,3.069700582580268,-9.695672089502215,-3.296565802927315
1772649769259382300,7.79238232421875,2.884468518348038,-9.996575190484522,-3.2458348558604717
1772649769269423400,7.80242333984375,2.683866158765554,-10.311311001986265,-3.0566940937519074
1772649769279464200,7.812464111328125,2.210179556235671,-10.537359645253419,-2.8705437456309792
1772649769289505300,7.82250537109375,1.0594494321882724,-10.426593916201591,-2.0849735061600803
1772649769299546400,7.83254638671875,-0.18297697878181934,-9.630061260950566,-0.723545014321059
1772649769309587200,7.842587158203125,-0.2081177036486566,-8.117073695769905,0.16348788646850734
1772649769319629300,7.85262939453125,0.5819131684929132,-6.689632662710547,0.15293229792360216
1772649769329670100,7.862670166015625,1.596704543787241,-5.384907324215769,-0.4383422078283503
1772649769339711200,7.872711181640625,1.8097949212819338,-3.9362265192508694,-0.7565599796943366
1772649769349752000,7.882751953125,2.7011750209629533,-1.6986200269073246,-1.599129578977078
1772649769359793200,7.892793212890625,4.389634303861857,1.8031945001035927,-3.583219137021899
1772649769369834500,7.90283447265625,3.8695448465973135,6.6893053304523225,-5.094940627789497
1772649769379875300,7.912875244140625,0.16217559829354286,12.495025160622596,-3.760761523534357
1772649769389916400,7.92291650390625,0.1785900689344853,12.496418660807608,-3.76086849104017
1772649769399957500,7.93295751953125,0.21482699202895164,12.500600330406426,-3.7904765705794095
1772649769409999400,7.942999267578125,0.2597106743723154,12.507823851919174,-3.8687110261216757
1772649769420040400,7.95304052734375,-5.662247763302922,13.055941718316078,3.014101737216115
1772649769430081300,7.963081298828125,-4.942804777473211,8.981501491117477,0.9134584413025527
1772649769440122400,7.973122314453125,-4.275926091617346,7.50159494228363,-0.6516038137041031
1772649769450163500,7.98316357421875,-3.1282068398237226,6.037634735122323,0.29680786755792793
1772649769460204300,7.993204345703125,-2.767777198639512,4.614742451408505,2.7217197963416573
1772649769470245400,8.003245361328124,-2.314168046237528,4.730324640831351,5.639018863406777
1772649769480286500,8.013286376953126,-2.5480332084745165,8.59737767061293,8.597686882692575
1772649769490328600,8.02332861328125,-2.493544662439823,8.602029295811057,8.618903858244419
1772649769500369700,8.03336962890625,-2.459594462043047,8.60580881434977,8.624494810119272
1772649769510410500,8.043410400390625,-2.446103550698608,8.609092658326029,8.607968038210272
1772649769520451600,8.05345166015625,-2.4429138147465883,8.61235662855804,8.578208275240659
1772649769530492700,8.06349267578125,-2.4367108684532344,8.616013982021808,8.549379655641317
1772649769540533500,8.073533447265625,-2.416944822362065,8.620545780232549,8.530392631098627
1772649769550574600,8.08357470703125,-2.3808165472738443,8.626386322954296,8.520986504849791
1772649769560615400,8.093615478515625,-2.328089457953721,8.634487211823464,8.513844816401601
1772649769570656500,8.103656494140624,-3.8959383480042216,10.010917019569874,2.6031580065861344
1772649769580698400,8.113698486328126,-3.1299346865296362,9.05134075101912,3.156464089275896
1772649769590739500,8.123739501953125,-2.316343782841414,8.178872272557019,3.5675779157757757
1772649769600780500,8.133780517578124,-1.4957932692736386,7.126125552877784,3.6441070287048816
1772649769610821400,8.1438212890625,-0.43948914937376976,5.807137880274653,3.2885499619930982
1772649769620862500,8.153862548828124,0.7836768269397318,4.147610092827677,2.6001252147614955
1772649769630903600,8.163903564453125,2.516969377169013,2.1603063950419426,1.6421902836769817
1772649769640944400,8.1739443359375,4.065810638280213,-0.17477087597250937,0.594082256649062
1772649769650985500,8.1839853515625,5.129741892057657,-2.7829958105593917,-0.4338669255778193
1772649769661026600,8.194026611328125,5.687511383897066,-5.51737810459733,-1.7621267227865756
1772649769671068400,8.204068359375,6.143786832898855,-8.276035008192062,-3.144631320402026
1772649769681109500,8.214109619140626,6.688903763914108,-10.492850641441345,-4.667485030558705
1772649769691150300,8.224150390625,6.452240203130245,-11.846734270858764,-5.980045884984731
1772649769701191400,8.23419140625,6.062286361297964,-12.48610301849842,-6.6493234486758706
1772649769711232500,8.244232421875,5.349056843155622,-13.035883265149593,-6.737602036109566
1772649769721273300,8.2542734375,4.818045594382286,-13.68491182153821,-6.92894586122036
1772649769731314400,8.264314453125,4.669183066648245,-13.61614983547926,-6.612612551394105
1772649769741355500,8.27435546875,3.968309756731987,-12.542544452166556,-5.436216655692458
1772649769751397400,8.2843974609375,3.047747401708364,-10.874424192941188,-4.420728530305624
1772649769761438500,8.2944384765625,2.362498508033901,-9.748950675225258,-3.451379932542145
1772649769771479300,8.304479248046874,1.8478934735298156,-9.501783840605617,-2.683233998341858
1772649769781520400,8.314520263671875,2.0000680484212934,-9.642288289839028,-2.2050424856081605
1772649769791561500,8.3245615234375,2.267552425535023,-9.95504724830985,-1.8606889499559998
1772649769801602300,8.334602294921876,2.6158383322000502,-10.17000751132965,-1.6915991883598267
1772649769811643400,8.344643310546875,2.8760955345392225,-10.350725313007832,-1.6794687517136335
1772649769821684500,8.3546845703125,3.0394770014911887,-10.508625718200205,-1.821023294521868
1772649769831726600,8.3647265625,3.22290786152035,-10.552511621677874,-2.076234319387376
1772649769841767400,8.374767333984375,3.299766060273349,-10.30690019980669,-2.2891803199753165
1772649769851808500,8.38480859375,3.0104189570501445,-9.845710090756416,-2.384225625064969
1772649769861849600,8.394849609375,2.446400341688096,-9.315096901389955,-2.2375616302885115
1772649769871890400,8.404890380859374,1.6040835481226443,-8.739372650665045,-1.8516054797902701
1772649769881931500,8.414931640625,1.4152265713915229,-7.856642890429496,-1.5716462365068495
1772649769891972600,8.42497265625,1.4833657493770123,-6.690068131518363,-1.4184686220526694
1772649769902013400,8.435013427734376,1.0604863740205763,-5.087108618989586,-1.7037769712790847
1772649769912054500,8.445054443359375,0.24760011147037148,-3.152471512508392,-1.8220444542631506
1772649769922096400,8.455096435546874,0.04327887749522924,-0.6426356404811143,-1.5592868134103715
1772649769932137500,8.465137451171875,-0.01996770614311099,2.6159347783118485,-1.3908698365092276
1772649769942178600,8.475178466796875,0.9284463862717152,6.595937895447015,-1.2625852557711303
1772649769952219400,8.485219482421876,4.200831687666476,11.327196017736195,-1.7588962164327502
1772649769962260500,8.495260498046875,4.216736236023903,11.326546029394864,-1.7187451155692337
1772649769972301600,8.505301513671874,4.304498106107116,11.344568008297681,-1.7045628609597683
1772649769982342400,8.51534228515625,-4.2728702111780645,13.442034793066977,8.14261613330543
1772649769992383500,8.525383544921874,-2.8850851889416576,7.830337651827931,6.542743480876088
1772649770002424600,8.535424560546875,-4.141441633325815,4.312699532741308,5.343834140071272
1772649770012466400,8.545466552734375,-5.780913890215754,1.2621610390096902,4.453175632663071
1772649770022507500,8.555507568359374,-6.413247916913032,-0.03137479695081711,3.478089075769484
1772649770032548400,8.56554833984375,-5.259061514931917,1.3182540976315735,1.5374349009558557
1772649770042589400,8.57558935546875,-4.081227695381641,3.1675340570837256,-0.1353977737441659
1772649770052630500,8.585630615234376,-2.597904908363521,4.979512167623639,-0.6909867066740989
1772649770062671400,8.59567138671875,-2.2096952798500658,7.0786588683038945,-0.02463832830265164
1772649770072712400,8.60571240234375,-2.6356232291221615,8.636094647020101,1.0619467288967221
1772649770082753500,8.61575341796875,-2.753845703920722,8.450923373064398,1.8738485835194587
1772649770092795400,8.62579541015625,-2.1680454648613927,7.20757750916183,1.782888209655881
1772649770102836500,8.63583642578125,-1.4129720704630016,5.950013150292635,1.2006683133013545
1772649770112877300,8.645877197265625,-0.7290963648378849,4.939591660645604,0.23650113676376638
1772649770122918400,8.65591845703125,-0.21360651032328604,4.247455199414492,-0.7468156344670802
1772649770132959500,8.66595947265625,-0.24536533815562725,3.683253044179082,-1.2629958823986351
1772649770143000300,8.676000244140624,-0.4531608241125941,2.9204361960470675,-1.307998076555133
1772649770153041400,8.68604150390625,-0.4975944246008992,2.6320576455950735,-1.1057561330720782
1772649770163082200,8.696082275390625,-0.47488750275224445,2.697213131594658,-0.5523002666480838
1772649770173123300,8.706123291015626,-0.3722217857867479,2.6276024197518826,0.024367329341545698
1772649770183165400,8.71616552734375,-0.42366058886200186,2.327611757439375,0.6372516093552112
1772649770193206500,8.72620654296875,-0.5639972803130745,1.7966046003192662,0.9280426277764141
1772649770203247600,8.73624755859375,-0.4565437445491552,1.189062485051155,0.8371634293902664
1772649770213288400,8.746288330078125,-0.10475041428506374,0.8150660908073186,0.6521103749867528
1772649770223329500,8.75632958984375,0.06409837816208601,0.5941179855495691,0.40084377689808603
1772649770233370600,8.76637060546875,0.016941197928786275,0.2691998027294874,0.14467384387254714
1772649770243411500,8.776411376953124,0.11477642599791288,-0.14860007740557193,-0.11127806248813867
1772649770253452500,8.78645263671875,0.2857651530832052,-0.43201895962357517,-0.2869849772017449
1772649770263493600,8.79649365234375,0.35379210286587476,-0.48676118815839287,-0.16679712061434984
1772649770273535500,8.806535400390626,0.49450376510918137,-0.5397393296301365,-0.015042232439666986
1772649770283576600,8.81657666015625,0.6207046714410186,-0.7573188352376222,0.10635814174264668
1772649770293617400,8.826617431640624,0.8142483446836472,-1.1450643533706664,0.1314919254120439
1772649770303658500,8.836658447265625,1.0964122584044933,-1.5102759681344031,-0.025076208263263105
1772649770313699600,8.846699462890625,1.2318600087702274,-1.6161100860029458,-0.26112799382433294
1772649770323740400,8.856740478515626,1.257692953684926,-1.4867524692058562,-0.44411717450059945
1772649770333781500,8.866781494140625,1.0432762960225344,-1.3520295259833335,-0.4628038278572261
1772649770343822600,8.876822509765624,0.7831956192940474,-1.1165654041171074,-0.36962446276992555
1772649770353863400,8.886863525390625,0.7111614796966313,-0.8405623511135578,-0.15146861857920885
1772649770363905500,8.896905517578125,0.7249900985628366,-0.9276824161618947,-0.015485300032049417
1772649770373946000,8.906946044921876,0.6827724205583333,-1.0980939278811215,-0.06927315045148134
1772649770383987200,8.9169873046875,0.5505120680570602,-1.3107359770864246,-0.15456307746320963
1772649770394028300,8.9270283203125,0.40283553523719307,-1.4851175614804029,-0.30845373555757105
1772649770404069000,8.937069091796875,0.49231268480569124,-1.5611001464426517,-0.3140750825706869
1772649770414110200,8.947110107421874,0.5742044938117266,-1.256532677733898,-0.2783499083906412
1772649770424151300,8.9571513671875,0.47269233079552647,-1.1814444112628697,-0.14876505870893597
1772649770434192100,8.967192138671875,0.7089815053090452,-1.585506857946515,-0.42259442093521354
1772649770444233200,8.977233154296876,0.5584168498322367,-1.5647762046068905,-0.3622295302130282
1772649770454275000,8.987275146484375,0.5472381609529257,-1.5197762024074792,-0.2162411696758121
