time,seconds_elapsed,z,y,x
1772649761536497700,0.06949755859375,0.2539016008377075,-0.10910240560770035,0.4095034897327423
1772649761546538500,0.07953857421875,0.24892939627170563,-0.08384811878204346,0.37071311473846436
1772649761556579600,0.08957958984375,0.19348105788230896,-0.09949178993701935,0.28573349118232727
1772649761566621700,0.09962158203125,0.12095390260219574,-0.11383955180644989,0.15850596129894257
1772649761576662800,0.109662841796875,0.040718454867601395,-0.13130803406238556,-0.012180028483271599
1772649761586704000,0.119703857421875,-0.03718573600053787,-0.15426868200302124,-0.2012837678194046
1772649761596744700,0.12974462890625,-0.11818765103816986,-0.1583923101425171,-0.3814378082752228
1772649761606785800,0.139785888671875,-0.17807042598724365,-0.11531709879636765,-0.5147693157196045
1772649761616827000,0.149826904296875,-0.2033267766237259,-0.031882394105196,-0.6498826742172241
1772649761626867700,0.15986767578125,-0.2163214534521103,0.040430665016174316,-0.7920290231704712
1772649761636909800,0.169909912109375,-0.26637157797813416,0.08893907815217972,-0.9282779693603516
1772649761646950700,0.17995068359375,-0.3476545214653015,0.06941568106412888,-1.0184352397918701
1772649761656991700,0.18999169921875,-0.4415093958377838,0.05486203730106354,-1.0279664993286133
1772649761667032800,0.20003271484375,-0.5500027537345886,0.027021227404475212,-0.9481765031814575
1772649761677073700,0.21007373046875,-0.6459601521492004,-0.011622040532529354,-0.8424758911132812
1772649761687114800,0.22011474609375,-0.6736867427825928,-0.028653010725975037,-0.7259913682937622
1772649761697155800,0.23015576171875,-0.6138572096824646,0.016469992697238922,-0.5856539607048035
1772649761707197700,0.24019775390625,-0.5145816802978516,0.046318985521793365,-0.4761740565299988
1772649761717238800,0.25023876953125,-0.42870673537254333,-0.012184801511466503,-0.4467352032661438
1772649761727279600,0.260279541015625,-0.36857759952545166,-0.05168035626411438,-0.4900767505168915
1772649761737320700,0.27032080078125,-0.3227861225605011,-0.10958519577980042,-0.5560212135314941
1772649761747361500,0.280361572265625,-0.27437031269073486,-0.14355866611003876,-0.5933846831321716
1772649761757402600,0.290402587890625,-0.23303963243961334,-0.17731715738773346,-0.5833237767219543
1772649761767443700,0.300443603515625,-0.21232278645038605,-0.2114562839269638,-0.5270237922668457
1772649761777485600,0.310485595703125,-0.17184993624687195,-0.21773868799209595,-0.43393492698669434
1772649761787526700,0.320526611328125,-0.1374131292104721,-0.1883319616317749,-0.3313717544078827
1772649761797567500,0.3305673828125,-0.12831230461597443,-0.1356799304485321,-0.25309664011001587
1772649761807608600,0.340608642578125,-0.10664052516222,-0.04856472834944725,-0.22752197086811066
1772649761817649700,0.350649658203125,-0.1190900057554245,0.04862707108259201,-0.26361578702926636
1772649761827690500,0.3606904296875,-0.2034570872783661,0.11229943484067917,-0.3796224594116211
1772649761837731600,0.370731689453125,-0.37303200364112854,0.04486233741044998,-0.5442013144493103
1772649761847773700,0.380773681640625,-0.4265505373477936,0.06358172744512558,-0.6473090052604675
1772649761857814800,0.390814697265625,-0.41071218252182007,0.13930711150169373,-0.587938129901886
1772649761867856000,0.40085595703125,-0.3109442889690399,0.27042609453201294,-0.3860284388065338
1772649761877896700,0.410896728515625,-0.17401891946792603,0.2480456680059433,-0.24593175947666168
1772649761887937800,0.420937744140625,-0.04384932667016983,0.26479849219322205,-0.28110167384147644
1772649761897979000,0.430978759765625,0.1485600769519806,0.1254265010356903,-0.5257537961006165
1772649761908020700,0.441020751953125,0.5243881940841675,-0.0696687251329422,-0.26604533195495605
1772649761918061800,0.451061767578125,0.48736461997032166,0.34083276987075806,0.37916216254234314
1772649761928102700,0.4611025390625,0.23715092241764069,0.20288614928722382,0.5196202993392944
1772649761938143700,0.471143798828125,0.583724319934845,-0.10781287401914597,0.6760599613189697
1772649761948184800,0.481184814453125,0.8038389682769775,-0.3722207844257355,0.8180682063102722
1772649761958225700,0.4912255859375,0.7672327756881714,-0.24945677816867828,0.7059506773948669
1772649761968266800,0.501266845703125,0.634453296661377,0.1004580482840538,0.46499431133270264
1772649761978307800,0.511307861328125,0.36236557364463806,0.09693308919668198,0.26081162691116333
1772649761988349700,0.521349609375,-0.028832092881202698,-0.22225922346115112,0.12898409366607666
1772649761998390800,0.531390869140625,-0.3830021321773529,-0.3855895698070526,0.0294636320322752
1772649762008431600,0.541431640625,-0.4750666618347168,-0.295979380607605,0.012387814931571484
1772649762018472700,0.55147265625,-0.38870754837989807,-0.1730334758758545,0.02556966245174408
1772649762028513800,0.561513671875,-0.2058057188987732,-0.15891315042972565,0.054984111338853836
1772649762038554600,0.5715546875,-0.01031265128403902,-0.12200388312339783,0.10067756474018097
1772649762048596700,0.5815966796875,0.1897004395723343,-0.10774172097444534,0.1343947947025299
1772649762058637600,0.591637451171875,0.36103278398513794,-0.06907155364751816,0.19190603494644165
1772649762068678700,0.6016787109375,0.45463788509368896,-0.0008755339658819139,0.2877861261367798
1772649762078719500,0.611719482421875,0.4680485129356384,0.10012911260128021,0.39353489875793457
1772649762088760600,0.621760498046875,0.4030354917049408,0.2010432481765747,0.48735183477401733
1772649762098801700,0.6318017578125,0.3298552930355072,0.3161240220069885,0.5391117334365845
1772649762108842500,0.641842529296875,0.2832145392894745,0.4195181429386139,0.5269300937652588
1772649762118884900,0.651884765625,0.2873876988887787,0.4664084315299988,0.5190505981445312
1772649762128925700,0.66192578125,0.2872101664543152,0.4119012653827667,0.527768075466156
1772649762138966800,0.671966796875,0.3162415623664856,0.2992261052131653,0.5348054766654968
1772649762149008000,0.6820078125,0.3819633424282074,0.25214168429374695,0.5314391851425171
1772649762159048700,0.692048583984375,0.4115161597728729,0.2214122712612152,0.49367958307266235
1772649762169089800,0.70208984375,0.3726794421672821,0.15166424214839935,0.4405539929866791
1772649762179131000,0.712130859375,0.3028140664100647,0.09805852919816971,0.3738356828689575
1772649762189172700,0.7221728515625,0.24017547070980072,0.10080397874116898,0.2805699110031128
1772649762199213800,0.7322138671875,0.15930326282978058,0.18150842189788818,0.14016646146774292
1772649762209254700,0.742254638671875,0.07358619570732117,0.34257772564888,-0.034282274544239044
1772649762219295700,0.752295654296875,-0.024447159841656685,0.492687851190567,-0.23618583381175995
1772649762229336800,0.7623369140625,-0.1548137217760086,0.5331990122795105,-0.44317200779914856
1772649762239377700,0.772377685546875,-0.31736427545547485,0.4883567690849304,-0.6021867394447327
1772649762249418800,0.782418701171875,-0.5050023794174194,0.48033344745635986,-0.632583737373352
1772649762259460600,0.792460693359375,-0.6636375784873962,0.44166141748428345,-0.5512697100639343
1772649762269501700,0.802501708984375,-0.7647613286972046,0.3660866320133209,-0.40125441551208496
1772649762279542800,0.812542724609375,-0.761216402053833,0.32466673851013184,-0.24097977578639984
1772649762289583600,0.82258349609375,-0.6648223400115967,0.34254682064056396,-0.14596304297447205
1772649762299624700,0.832624755859375,-0.5381794571876526,0.3259683847427368,-0.14942461252212524
1772649762309665800,0.842665771484375,-0.42281609773635864,0.267473042011261,-0.19705365598201752
1772649762319706600,0.85270654296875,-0.3415827751159668,0.1789705902338028,-0.2773727476596832
1772649762329747700,0.862747802734375,-0.317345529794693,0.07929462194442749,-0.38061532378196716
1772649762339789600,0.87278955078125,-0.34901824593544006,-0.051499608904123306,-0.4953027367591858
1772649762349830700,0.88283056640625,-0.3969453275203705,-0.1342499852180481,-0.5999957323074341
1772649762359871700,0.892871826171875,-0.43467220664024353,-0.16399748623371124,-0.6611501574516296
1772649762369912000,0.902912109375,-0.45683562755584717,-0.15528924763202667,-0.6582416296005249
1772649762379953200,0.912953125,-0.4528068006038666,-0.11984550207853317,-0.6015551686286926
1772649762389994200,0.922994140625,-0.43054595589637756,-0.05840849131345749,-0.5380241870880127
1772649762400036000,0.9330361328125,-0.41733694076538086,0.05796924978494644,-0.5013583302497864
1772649762410077200,0.9430771484375,-0.42150261998176575,0.18729573488235474,-0.46211594343185425
1772649762420118000,0.953117919921875,-0.4005667269229889,0.3232879042625427,-0.4176448881626129
1772649762430159000,0.9631591796875,-0.40577232837677,0.403606116771698,-0.46537333726882935
1772649762440200200,0.9732001953125,-0.405026376247406,0.3007790744304657,-0.5199529528617859
1772649762450241000,0.983240966796875,-0.3650379180908203,0.3351910412311554,-0.4742460250854492
1772649762460282000,0.9932822265625,-0.2966764569282532,0.31355950236320496,-0.35209882259368896
1772649762470324000,1.003323974609375,-0.1287062168121338,0.24294662475585938,-0.21591423451900482
1772649762480365000,1.013364990234375,0.0683748796582222,0.2747381329536438,-0.14751307666301727
1772649762490406100,1.02340625,-0.020932011306285858,0.22994288802146912,-0.45779773592948914
1772649762500447000,1.033447021484375,-0.06733332574367523,-0.34161674976348877,-0.8143638968467712
1772649762510488000,1.043488037109375,0.7394533753395081,0.09031153470277786,0.45346760749816895
1772649762520529200,1.053529052734375,1.33542001247406,1.1445488929748535,1.6299747228622437
1772649762530570000,1.063570068359375,1.1900615692138672,1.2394142150878906,1.076541781425476
1772649762540612000,1.073612060546875,0.8828083872795105,0.3183903694152832,0.37932640314102173
1772649762550653200,1.083653076171875,0.7607845664024353,-0.6473045349121094,0.41626760363578796
1772649762560694300,1.0936943359375,0.6462169885635376,-0.9141538143157959,0.3291444182395935
1772649762570735000,1.103735107421875,0.5221509337425232,-0.7832802534103394,-0.1881788969039917
1772649762580776200,1.113776123046875,0.26549625396728516,-0.8734466433525085,-0.6529979705810547
1772649762590817300,1.1238173828125,-0.09471768885850906,-1.1437104940414429,-0.6675769686698914
1772649762600858000,1.133858154296875,-0.4451127350330353,-1.0414106845855713,-0.3950626254081726
1772649762610900200,1.143900146484375,-0.6292732357978821,-0.6361704468727112,-0.08401628583669662
1772649762620941000,1.153941162109375,-0.5665510296821594,-0.1956373006105423,0.1376202404499054
1772649762630982100,1.163982177734375,-0.3577848970890045,0.16980889439582825,0.1789388805627823
1772649762641023200,1.174023193359375,-0.09660281985998154,0.5382153987884521,0.15045318007469177
1772649762651064000,1.18406396484375,0.1158422976732254,0.8309318423271179,0.09058558195829391
1772649762661105200,1.194105224609375,0.25015485286712646,0.9638584852218628,0.06191398948431015
1772649762671146200,1.204146240234375,0.28932031989097595,0.9922354221343994,0.06535600870847702
1772649762681188000,1.21418798828125,0.25298547744750977,0.951019287109375,0.05651218071579933
1772649762691229200,1.224229248046875,0.20575599372386932,0.7899612784385681,0.08100878447294235
1772649762701270000,1.23427001953125,0.14916089177131653,0.5157893896102905,0.14482691884040833
1772649762711311000,1.24431103515625,0.11302202194929123,0.24624595046043396,0.18410256505012512
1772649762721352200,1.254352294921875,0.11594218015670776,0.010088544338941574,0.13384978473186493
1772649762731393000,1.26439306640625,0.15515178442001343,-0.19320301711559296,-0.014300861395895481
1772649762741434000,1.27443408203125,0.21336928009986877,-0.3110066056251526,-0.20853692293167114
1772649762751476000,1.28447607421875,0.28927236795425415,-0.3476768136024475,-0.35757341980934143
1772649762761517000,1.29451708984375,0.38172054290771484,-0.35155677795410156,-0.43503090739250183
1772649762771558100,1.30455810546875,0.4555979073047638,-0.3387598395347595,-0.46464377641677856
1772649762781599000,1.314598876953125,0.4939762055873871,-0.2894812524318695,-0.5007381439208984
1772649762791640000,1.32464013671875,0.439647376537323,-0.2616163492202759,-0.6224051117897034
1772649762801681200,1.33468115234375,0.2758443355560303,-0.2923910319805145,-0.8416746258735657
1772649762811722000,1.344721923828125,-0.06287715584039688,-0.3247707784175873,-1.0677706003189087
1772649762821763000,1.35476318359375,-0.5123817324638367,-0.17576293647289276,-1.1709049940109253
1772649762831805200,1.36480517578125,-0.946392297744751,0.07408462464809418,-1.1247669458389282
1772649762841846300,1.37484619140625,-1.2731963396072388,0.2620113790035248,-0.8628732562065125
1772649762851887000,1.38488720703125,-1.3739731311798096,0.2897907793521881,-0.4324725270271301
1772649762861928200,1.39492822265625,-1.1425303220748901,0.13829898834228516,0.05440498888492584
1772649762871969300,1.40496923828125,-0.6532254219055176,-0.04657582938671112,0.5224860906600952
1772649762882010000,1.415010009765625,-0.2407853901386261,-0.09466692805290222,0.7810627818107605
1772649762892051200,1.42505126953125,-0.012868753634393215,0.09127377718687057,0.771701991558075
1772649762902093000,1.435093017578125,0.15673118829727173,0.16864074766635895,0.5907042622566223
1772649762912134100,1.445134033203125,0.2868625819683075,-0.004349857568740845,0.42172887921333313
1772649762922175200,1.45517529296875,0.31181052327156067,-0.17715466022491455,0.3079091012477875
1772649762932216000,1.465216064453125,0.25307273864746094,-0.2751229405403137,0.18537260591983795
1772649762942257200,1.475257080078125,0.12858831882476807,-0.3506714701652527,0.004031573422253132
1772649762952298200,1.48529833984375,-0.06214938685297966,-0.45255228877067566,-0.22719262540340424
1772649762962339000,1.495339111328125,-0.24340039491653442,-0.5384842157363892,-0.4387759566307068
1772649762972381200,1.505381103515625,-0.3812875747680664,-0.5722848773002625,-0.5834358930587769
1772649762982422000,1.515422119140625,-0.4885711669921875,-0.5108116865158081,-0.6524586081504822
1772649762992463000,1.525463134765625,-0.5805678963661194,-0.35923051834106445,-0.6735811233520508
1772649763002504200,1.535504150390625,-0.6728200316429138,-0.26102593541145325,-0.599514365196228
1772649763012545000,1.545544921875,-0.7579354047775269,-0.07497118413448334,-0.5185831785202026
1772649763022586000,1.555586181640625,-0.8311725854873657,0.11909043043851852,-0.47385668754577637
1772649763032627200,1.565627197265625,-0.9084098935127258,0.20294980704784393,-0.4029834270477295
1772649763042669000,1.5756689453125,-0.916170060634613,0.017137866467237473,-0.3844297230243683
1772649763052710100,1.585710205078125,-0.7290746569633484,-0.0006591205601580441,-0.36792847514152527
1772649763062751000,1.5957509765625,-0.3687332570552826,0.31861448287963867,-0.4145737588405609
1772649763072792000,1.6057919921875,0.03623925894498825,0.2544918656349182,-0.5217412710189819
1772649763082833200,1.615833251953125,0.4328606426715851,0.16569779813289642,-0.243665412068367
1772649763092874000,1.6258740234375,0.6428506970405579,0.37200623750686646,0.40268051624298096
1772649763102915000,1.6359150390625,0.7918726801872253,0.7544209957122803,0.849406361579895
1772649763112957200,1.645957275390625,1.0080784559249878,0.9560666084289551,0.8212788701057434
1772649763122998300,1.655998291015625,1.1318022012710571,0.8501838445663452,0.6607967615127563
1772649763133039400,1.666039306640625,1.1098657846450806,0.5958231091499329,0.5717797875404358
1772649763143080200,1.676080078125,1.0294108390808105,0.4821854829788208,0.4498666822910309
1772649763153121300,1.686121337890625,0.7984191179275513,0.2951924800872803,0.278972327709198
1772649763163162000,1.696162109375,0.43736109137535095,0.02134496346116066,0.2782367765903473
1772649763173203200,1.706203125,0.12595883011817932,-0.1497960239648819,0.3999914526939392
1772649763183244300,1.716244384765625,-0.04914853721857071,-0.21291214227676392,0.4059007465839386
1772649763193286100,1.7262861328125,-0.12169088423252106,-0.18926212191581726,0.29509350657463074
1772649763203327200,1.7363271484375,-0.02764667570590973,-0.08823908865451813,0.20493274927139282
1772649763213368000,1.7463681640625,0.21092258393764496,0.06849338114261627,0.17083795368671417
1772649763223409200,1.7564091796875,0.42826369404792786,0.17509518563747406,0.19380824267864227
1772649763233450200,1.7664501953125,0.5800566077232361,0.20348206162452698,0.2975999712944031
1772649763243491000,1.776490966796875,0.6153792142868042,0.18237385153770447,0.419204980134964
1772649763253532200,1.7865322265625,0.6071388125419617,0.15659905970096588,0.49450406432151794
1772649763263574000,1.796573974609375,0.5954815745353699,0.1365385353565216,0.5547211170196533
1772649763273615000,1.806614990234375,0.6336391568183899,0.13662543892860413,0.6342785358428955
1772649763283656200,1.81665625,0.6655837297439575,0.10303473472595215,0.7254608869552612
1772649763293697000,1.826697021484375,0.6502729654312134,0.022324437275528908,0.8061315417289734
1772649763303738000,1.836738037109375,0.6469232439994812,-0.04392515867948532,0.846660852432251
1772649763313779200,1.846779296875,0.680625855922699,-0.08728255331516266,0.8106443881988525
1772649763323820000,1.856820068359375,0.7246630787849426,-0.140995591878891,0.7004848122596741
1772649763333861000,1.866861083984375,0.7314983010292053,-0.247018963098526,0.5693745613098145
1772649763343903000,1.876903076171875,0.684069812297821,-0.38847091794013977,0.43432191014289856
1772649763353944000,1.886944091796875,0.5566309094429016,-0.5151428580284119,0.24543213844299316
1772649763363985400,1.8969853515625,0.3699271082878113,-0.6007624268531799,0.01605699397623539
1772649763374026200,1.907026123046875,0.10884158313274384,-0.6967287063598633,-0.2549004852771759
1772649763384067300,1.9170673828125,-0.2405688762664795,-0.8093620538711548,-0.49405768513679504
1772649763394108400,1.9271083984375,-0.5060439109802246,-0.7789790630340576,-0.6396733522415161
1772649763404149200,1.937149169921875,-0.6338090896606445,-0.6023057103157043,-0.6653907299041748
1772649763414191400,1.94719140625,-0.6797052621841431,-0.4370855391025543,-0.5786559581756592
1772649763424232200,1.957232177734375,-0.6315470933914185,-0.36055320501327515,-0.3827573359012604
1772649763434273300,1.967273193359375,-0.47667306661605835,-0.3195721209049225,-0.11830981820821762
1772649763444314400,1.977314453125,-0.19115050137043,-0.20077544450759888,0.15548470616340637
1772649763454355200,1.987355224609375,0.07780525088310242,-0.07276175171136856,0.3416595458984375
1772649763464396300,1.997396240234375,0.18716077506542206,0.0933489203453064,0.39409372210502625
1772649763474437000,2.00743701171875,0.23410072922706604,0.19618383049964905,0.3415772020816803
1772649763484479200,2.017479248046875,0.28586405515670776,0.25080233812332153,0.29165545105934143
1772649763494520000,2.02752001953125,0.35418474674224854,0.2833687961101532,0.29197320342063904
1772649763504561200,2.03756103515625,0.3912908434867859,0.31264597177505493,0.3363734185695648
1772649763514602200,2.047602294921875,0.37672093510627747,0.33066269755363464,0.3726697862148285
1772649763524643000,2.05764306640625,0.293447345495224,0.33650487661361694,0.3488459289073944
1772649763534684200,2.06768408203125,0.14184720814228058,0.31666743755340576,0.26284146308898926
1772649763544725200,2.077725341796875,-0.04590937867760658,0.28264743089675903,0.13796237111091614
1772649763554767000,2.08776708984375,-0.21382121741771698,0.25904709100723267,0.006030316464602947
1772649763564808200,2.09780810546875,-0.3336770534515381,0.24436669051647186,-0.09575702995061874
1772649763574849000,2.10784912109375,-0.3971845209598541,0.25562745332717896,-0.10660859197378159
1772649763584890000,2.11789013671875,-0.40893733501434326,0.2801828682422638,-0.05730469897389412
1772649763594931200,2.12793115234375,-0.405891478061676,0.2664399743080139,-0.02733101136982441
1772649763604972000,2.137971923828125,-0.42924314737319946,0.14458969235420227,-0.22429440915584564
1772649763615013000,2.14801318359375,-0.4054800868034363,-0.09030378609895706,-0.6203516721725464
1772649763625054200,2.15805419921875,-0.24727873504161835,-0.24706889688968658,-0.9449068307876587
1772649763635096300,2.168096435546875,-0.08638343960046768,-0.191111758351326,-0.859318196773529
1772649763645137400,2.178137451171875,0.015206295996904373,-0.13194909691810608,-0.328270822763443
1772649763655178200,2.18817822265625,0.00934935174882412,-0.518848717212677,0.20757314562797546
1772649763665219300,2.19821923828125,-0.11866959929466248,-0.5465490818023682,0.5768811702728271
1772649763675260400,2.208260498046875,-0.220333069562912,-0.11643495410680771,0.8423353433609009
1772649763685301200,2.21830126953125,0.22642259299755096,0.1612832099199295,1.1845088005065918
1772649763695342300,2.22834228515625,0.9512822031974792,0.05514492467045784,1.4649925231933594
1772649763705384200,2.23838427734375,1.2491216659545898,-0.2816317677497864,1.490545630455017
1772649763715425300,2.24842529296875,1.2454851865768433,-0.531559944152832,1.271673321723938
1772649763725466400,2.25846630859375,1.2194613218307495,-0.65321284532547,0.891221821308136
1772649763735507200,2.268507080078125,1.038133144378662,-0.8721268177032471,0.5101500749588013
1772649763745548300,2.27854833984375,0.7625526785850525,-1.0740835666656494,0.17149345576763153
1772649763755589000,2.288589111328125,0.4650140106678009,-1.0876412391662598,-0.18334463238716125
1772649763765630200,2.298630126953125,0.19262509047985077,-0.9038277268409729,-0.44480979442596436
1772649763775671300,2.30867138671875,-0.07545457780361176,-0.6937823295593262,-0.5723679661750793
1772649763785713200,2.318713134765625,-0.2354722023010254,-0.5438625812530518,-0.6361826658248901
1772649763795754200,2.328754150390625,-0.2910889685153961,-0.4694989323616028,-0.6571040749549866
1772649763805795000,2.338795166015625,-0.26798364520072937,-0.40743768215179443,-0.573539137840271
1772649763815836200,2.348836181640625,-0.18626803159713745,-0.2916373908519745,-0.3776482939720154
1772649763825877200,2.358877197265625,-0.06081157550215721,-0.13501369953155518,-0.11739462614059448
1772649763835918000,2.36891796875,0.06356668472290039,0.06643182784318924,0.05133364722132683
1772649763845959200,2.378959228515625,0.09529291838407516,0.20795594155788422,0.09846201539039612
1772649763856001000,2.3890009765625,0.045554254204034805,0.2592529058456421,0.05949949473142624
1772649763866042000,2.3990419921875,-0.05118773505091667,0.3211977779865265,-0.042397309094667435
1772649763876083200,2.409083251953125,-0.14308613538742065,0.3776805102825165,-0.14862588047981262
1772649763886124000,2.4191240234375,-0.22408883273601532,0.44607821106910706,-0.23250612616539001
1772649763896165000,2.4291650390625,-0.29206132888793945,0.49756693840026855,-0.270800918340683
1772649763906206200,2.439206298828125,-0.3404057025909424,0.5248209238052368,-0.262655645608902
1772649763916247000,2.4492470703125,-0.35116735100746155,0.554092526435852,-0.26519978046417236
1772649763926288100,2.4592880859375,-0.40385958552360535,0.5345020294189453,-0.3410838842391968
1772649763936330200,2.469330322265625,-0.5413979291915894,0.4334385395050049,-0.46200281381607056
1772649763946371300,2.479371337890625,-0.6812620759010315,0.2952162027359009,-0.6086255311965942
1772649763956412400,2.489412353515625,-0.7705512642860413,0.18592007458209991,-0.706527590751648
1772649763966453200,2.499453369140625,-0.8216226696968079,0.11774395406246185,-0.7006385326385498
1772649763976494300,2.509494384765625,-0.8177804350852966,0.1022869125008583,-0.6385436058044434
1772649763986535400,2.519535400390625,-0.7455337047576904,0.14579656720161438,-0.5603744983673096
1772649763996576300,2.529576171875,-0.6060665249824524,0.17978155612945557,-0.49670788645744324
1772649764006618400,2.539618408203125,-0.4336438775062561,0.15839476883411407,-0.47709211707115173
1772649764016659200,2.5496591796875,-0.25505226850509644,0.1475905179977417,-0.44675347208976746
1772649764026700300,2.5597001953125,-0.09671907871961594,0.16068634390830994,-0.3285922110080719
1772649764036741400,2.569741455078125,0.016855429857969284,0.17828631401062012,-0.13386233150959015
1772649764046782200,2.5797822265625,0.09753962606191635,0.20954783260822296,0.06135217100381851
1772649764056823300,2.5898232421875,0.1452854722738266,0.2487514764070511,0.21873611211776733
1772649764066864000,2.599864013671875,0.14259621500968933,0.2920140027999878,0.3211277425289154
1772649764076906200,2.60990625,0.08555273711681366,0.32554367184638977,0.360960990190506
1772649764086947300,2.619947265625,0.00006100314203649759,0.3492782711982727,0.3388937711715698
1772649764096988200,2.62998828125,-0.07506641000509262,0.3539418578147888,0.29452237486839294
1772649764107029200,2.640029296875,-0.10886272042989731,0.3464125692844391,0.2437790185213089
1772649764117070000,2.650070068359375,-0.11078720539808273,0.3240240812301636,0.17306283116340637
1772649764127111200,2.660111083984375,-0.1688031107187271,0.2672305703163147,0.06856145709753036
1772649764137152300,2.67015234375,-0.25146064162254333,0.1558985412120819,0.019735567271709442
1772649764147193000,2.680193115234375,-0.3370133638381958,0.026326710358262062,-0.015882615000009537
1772649764157235200,2.690235107421875,-0.4691096842288971,-0.16236945986747742,-0.14309535920619965
1772649764167276000,2.700276123046875,-0.5948758125305176,-0.3852211833000183,-0.36751702427864075
1772649764177317000,2.710317138671875,-0.5762150287628174,-0.497305691242218,-0.6047419905662537
1772649764187358200,2.720358154296875,-0.5331639647483826,-0.6100519299507141,-0.7629963755607605
1772649764197399000,2.73039892578125,-0.9198043942451477,-0.9829798340797424,-0.8890209197998047
1772649764207440100,2.740440185546875,-1.275896668434143,-0.7255954742431641,-0.5618228316307068
1772649764217481200,2.750481201171875,-0.6663686037063599,0.5346888303756714,0.3550555408000946
1772649764227523000,2.760523193359375,0.016028856858611107,0.5398151278495789,0.7317964434623718
1772649764237564400,2.770564453125,0.296141654253006,-0.2065117061138153,0.6281304359436035
1772649764247605200,2.780605224609375,0.3831212818622589,-0.7062349915504456,0.4829138219356537
1772649764257646300,2.790646240234375,0.5803118944168091,-0.8231225609779358,0.3513077199459076
1772649764267687400,2.8006875,0.6854721307754517,-0.7905473113059998,0.12366070598363876
1772649764277728300,2.810728271484375,0.6170888543128967,-0.8134132623672485,-0.06031052768230438
1772649764287769300,2.820769287109375,0.2814179062843323,-0.8107846975326538,-0.21629373729228973
1772649764297810400,2.830810546875,-0.08551300317049026,-0.6295438408851624,-0.38340383768081665
1772649764307852300,2.840852294921875,-0.1867365688085556,-0.23958808183670044,-0.4051711857318878
1772649764317893400,2.850893310546875,-0.08242101222276688,0.12107525020837784,-0.18550485372543335
1772649764327934200,2.860934326171875,0.031795039772987366,0.3031446635723114,0.03291989490389824
1772649764337975300,2.870975341796875,0.12046714127063751,0.37912604212760925,0.08534090965986252
1772649764348016400,2.881016357421875,0.1796731948852539,0.37228626012802124,0.053673528134822845
1772649764358057200,2.89105712890625,0.17071571946144104,0.37840941548347473,0.011736506596207619
1772649764368098000,2.90109814453125,0.08561228215694427,0.46126168966293335,0.040505301207304
1772649764378140200,2.91114013671875,-0.030250422656536102,0.6179276704788208,0.10845837742090225
1772649764388181200,2.92118115234375,-0.13115759193897247,0.8070600032806396,0.16991347074508667
1772649764398222300,2.931222412109375,-0.1844908893108368,0.990608274936676,0.22876538336277008
1772649764408263200,2.94126318359375,-0.09256735444068909,1.0867300033569336,0.2969073951244354
1772649764418304300,2.95130419921875,0.0621354766190052,1.0555775165557861,0.3743876516819
1772649764428345000,2.961344970703125,0.27141520380973816,0.9421388506889343,0.43191245198249817
1772649764438386200,2.97138623046875,0.46745195984840393,0.8680111169815063,0.42801204323768616
1772649764448427300,2.98142724609375,0.6048290133476257,0.768513023853302,0.3179502487182617
1772649764458469000,2.99146923828125,0.6773452758789062,0.6495046019554138,0.15773186087608337
1772649764468510200,3.00151025390625,0.726163387298584,0.518509030342102,-0.09172164648771286
1772649764478551000,3.011551025390625,0.656470000743866,0.24851971864700317,-0.4774817228317261
1772649764488592100,3.021592041015625,0.37108859419822693,-0.021013226360082626,-0.9342231154441833
1772649764498633200,3.03163330078125,-0.015940532088279724,-0.200378879904747,-1.229527235031128
1772649764508674000,3.041674072265625,-0.47408440709114075,-0.23500555753707886,-1.2604185342788696
1772649764518715100,3.051715087890625,-0.8894094228744507,-0.23405063152313232,-1.085740327835083
1772649764528756200,3.061756103515625,-1.1139458417892456,-0.2680583894252777,-0.826332688331604
1772649764538798000,3.071798095703125,-1.0679892301559448,-0.4134539067745209,-0.5846332907676697
1772649764548839200,3.081839111328125,-0.8142631649971008,-0.6387285590171814,-0.385780930519104
1772649764558880000,3.0918798828125,-0.451643168926239,-0.7542628049850464,-0.24951812624931335
1772649764568921000,3.101921142578125,-0.06065117195248604,-0.4580705761909485,-0.18530240654945374
1772649764578962200,3.111962158203125,0.12054673582315445,-0.05784515663981438,-0.21102121472358704
1772649764589003000,3.1220029296875,0.14004161953926086,0.1528148651123047,-0.25114867091178894
1772649764599044000,3.132044189453125,0.14689159393310547,0.27932658791542053,-0.21248453855514526
1772649764609086000,3.1420859375,0.16542400419712067,0.3851536810398102,-0.13676634430885315
1772649764619127000,3.152126953125,0.14171521365642548,0.4750737249851227,-0.06553610414266586
1772649764629168000,3.162168212890625,0.08262605220079422,0.5492734313011169,0.0011118995025753975
1772649764639209000,3.172208984375,0.022503001615405083,0.5955063700675964,0.07288803905248642
1772649764649250000,3.18225,-0.03868498653173447,0.6379979252815247,0.10997069627046585
1772649764659291100,3.192291015625,-0.11753380298614502,0.6960372924804688,0.1061800941824913
1772649764669332000,3.20233203125,-0.19011692702770233,0.7478291392326355,0.06374368816614151
1772649764679373000,3.212373046875,-0.24733516573905945,0.7634591460227966,0.007742096669971943
1772649764689415200,3.222415283203125,-0.34809693694114685,0.7361995577812195,-0.07139506936073303
1772649764699456300,3.232456298828125,-0.5552518963813782,0.6121814846992493,-0.15276432037353516
1772649764709497000,3.2424970703125,-0.6378527283668518,0.47141799330711365,-0.27274957299232483
1772649764719538200,3.2525380859375,-0.7641255259513855,0.33293402194976807,-0.46465426683425903
1772649764729579300,3.262579345703125,-0.8508079648017883,0.1176515519618988,-0.6650006175041199
1772649764739620000,3.2726201171875,-0.808809757232666,0.021184027194976807,-0.6741633415222168
1772649764749661200,3.2826611328125,-0.8283858299255371,-0.03509388864040375,-0.6209400296211243
1772649764759703000,3.292703125,-1.1290452480316162,-0.3121710419654846,-1.0761734247207642
1772649764769744100,3.302744140625,-0.9481228590011597,0.04477591812610626,-0.7889554500579834
1772649764779785200,3.31278515625,-0.24396006762981415,1.2952370643615723,0.6277974247932434
1772649764789826000,3.322825927734375,0.592559814453125,1.3839434385299683,1.4853328466415405
1772649764799867100,3.3328671875,1.0114996433258057,0.9459362030029297,1.605843424797058
1772649764809908200,3.342908203125,0.8999952673912048,0.3114340603351593,1.255950689315796
1772649764819949000,3.352948974609375,0.9410313367843628,0.01483679935336113,0.9274882674217224
1772649764829990100,3.362990234375,1.2054715156555176,-0.1416100710630417,0.5112000107765198
1772649764840032000,3.373031982421875,1.0547021627426147,-0.16727179288864136,-0.04755771905183792
1772649764850073000,3.383072998046875,0.4881202280521393,-0.2222873717546463,-0.2586396038532257
1772649764860114200,3.3931142578125,0.1259317398071289,-0.05268525332212448,0.014268264174461365
1772649764870155000,3.403155029296875,-0.09225147217512131,-0.033210087567567825,0.35946187376976013
1772649764880196000,3.413196044921875,-0.15184974670410156,-0.2772236168384552,0.5272608399391174
1772649764890237200,3.4232373046875,-0.06379924714565277,-0.5226117968559265,0.5384503602981567
1772649764900278000,3.433278076171875,0.07904043048620224,-0.6136124134063721,0.5272960066795349
1772649764910319000,3.443319091796875,0.1985897272825241,-0.6078815460205078,0.5469080805778503
1772649764920361000,3.45336083984375,0.2624496519565582,-0.511086106300354,0.5199342966079712
1772649764930402000,3.463402099609375,0.25898247957229614,-0.4017423093318939,0.41512084007263184
1772649764940443100,3.473443115234375,0.22015637159347534,-0.302444189786911,0.30946072936058044
1772649764950484000,3.48348388671875,0.16250371932983398,-0.23204031586647034,0.24237461388111115
1772649764960525000,3.493525146484375,0.1342097520828247,-0.2751821279525757,0.23948968946933746
1772649764970566100,3.503566162109375,0.10836111754179001,-0.3510710299015045,0.27628710865974426
1772649764980607000,3.51360693359375,0.10035322606563568,-0.39021310210227966,0.27434277534484863
1772649764990649300,3.5236494140625,0.13204750418663025,-0.44734376668930054,0.29393270611763
1772649765000690200,3.533690185546875,0.23229750990867615,-0.4446032643318176,0.3696637451648712
1772649765010731300,3.543731201171875,0.3821011185646057,-0.3660096526145935,0.4426082670688629
1772649765020772000,3.553772216796875,0.557093620300293,-0.2130383998155594,0.4674319922924042
1772649765030813200,3.563813232421875,0.6659393906593323,-0.010092219337821007,0.37729331851005554
1772649765040854300,3.573854248046875,0.6208693385124207,0.07265526801347733,0.11322071403265
1772649765050895000,3.58389501953125,0.359039306640625,-0.0450601764023304,-0.3510763943195343
1772649765060936200,3.593936279296875,-0.06696537882089615,-0.32657870650291443,-0.8606917858123779
1772649765070978000,3.60397802734375,-0.5598222613334656,-0.5376349687576294,-1.2049927711486816
1772649765081019100,3.61401904296875,-0.9967124462127686,-0.514335036277771,-1.3319228887557983
1772649765091060200,3.624060302734375,-1.297013759613037,-0.331242173910141,-1.2513937950134277
1772649765101101000,3.63410107421875,-1.3552335500717163,-0.2801607549190521,-1.0742335319519043
1772649765111142100,3.64414208984375,-1.1704556941986084,-0.33984220027923584,-0.7787137031555176
1772649765121183200,3.654183349609375,-0.817331850528717,-0.35516002774238586,-0.3141588270664215
1772649765131224000,3.66422412109375,-0.29793208837509155,-0.344496488571167,0.2018888145685196
1772649765141265200,3.67426513671875,0.14020198583602905,-0.4378759264945984,0.6542490720748901
1772649765151307000,3.68430712890625,0.30758509039878845,-0.292583167552948,0.8632206320762634
1772649765161348000,3.69434814453125,0.31156641244888306,-0.03055204078555107,0.680977463722229
1772649765171389200,3.70438916015625,0.3180418908596039,-0.07219136506319046,0.3912704885005951
1772649765181430000,3.714429931640625,0.34014469385147095,-0.1903809905052185,0.2594454288482666
1772649765191471000,3.72447119140625,0.3306928873062134,-0.1870693415403366,0.2531265318393707
1772649765201512200,3.73451220703125,0.2748834192752838,-0.17336665093898773,0.24963708221912384
1772649765211553000,3.744552978515625,0.15478630363941193,-0.17489397525787354,0.21401409804821014
1772649765221595100,3.75459521484375,-0.042477674782276154,-0.15715277194976807,0.13731160759925842
1772649765231636000,3.764635986328125,-0.22717401385307312,-0.16743309795856476,-0.009762262925505638
1772649765241677000,3.774677001953125,-0.35371431708335876,-0.18932808935642242,-0.21202042698860168
1772649765251718100,3.78471826171875,-0.46003061532974243,-0.23177914321422577,-0.38740769028663635
1772649765261759000,3.794759033203125,-0.5815375447273254,-0.2622673511505127,-0.5395342111587524
1772649765271800000,3.804800048828125,-0.6845544576644897,-0.2444808930158615,-0.7077873945236206
1772649765281841200,3.814841064453125,-0.7588756680488586,-0.21620717644691467,-0.8968205451965332
1772649765291882000,3.824882080078125,-0.8155632019042969,-0.1236274465918541,-1.064379096031189
1772649765301924400,3.83492431640625,-0.8249679207801819,0.01182568073272705,-1.145525574684143
1772649765311965200,3.844965087890625,-0.7064706087112427,0.14847221970558167,-1.1453958749771118
1772649765322006300,3.85500634765625,-0.5537679195404053,0.12194906920194626,-0.9512540102005005
1772649765332047000,3.865047119140625,-0.3731834590435028,0.3034791946411133,-0.6564276814460754
1772649765342088200,3.875088134765625,-0.20942334830760956,0.39469650387763977,-0.5066311955451965
1772649765352129300,3.88512939453125,-0.3152536451816559,0.2762652039527893,-0.3606302738189697
1772649765362170000,3.895170166015625,-0.3167904019355774,0.39285552501678467,-0.007103960961103439
1772649765372212200,3.905212158203125,0.2899368107318878,0.7889748811721802,0.5594226121902466
1772649765382254000,3.915254150390625,0.9304733872413635,1.2641633749008179,0.9595792889595032
1772649765392295200,3.925295166015625,1.192972183227539,1.440714716911316,1.1439909934997559
1772649765402336000,3.9353359375,1.19227933883667,1.402930498123169,1.0664108991622925
1772649765412377000,3.945377197265625,1.0261577367782593,1.1609327793121338,0.7206593155860901
1772649765422418200,3.955418212890625,0.795800507068634,0.7789350152015686,0.38749366998672485
1772649765432459000,3.965458984375,0.44350185990333557,0.27004706859588623,0.17001622915267944
1772649765442500000,3.9755,0.1346403956413269,-0.10543941706418991,0.015694668516516685
1772649765452542000,3.9855419921875,0.021085860207676888,-0.25854215025901794,-0.005574933253228664
1772649765462583000,3.9955830078125,0.06509193778038025,-0.42860177159309387,0.13808582723140717
1772649765472624000,4.0056240234375,0.17460325360298157,-0.6200644373893738,0.2481399029493332
1772649765482665000,4.0156650390625,0.34519681334495544,-0.6778044104576111,0.2883880138397217
1772649765492706000,4.0257060546875,0.4847829341888428,-0.6196239590644836,0.41468122601509094
1772649765502747100,4.0357470703125,0.6034486293792725,-0.451604962348938,0.6169518232345581
1772649765512788000,4.0457880859375,0.7085270881652832,-0.23294082283973694,0.781944215297699
1772649765522829000,4.0558291015625,0.7824418544769287,0.037887685000896454,0.9070865511894226
1772649765532871000,4.065870849609375,0.8142312169075012,0.31573182344436646,0.9720777869224548
1772649765542912000,4.075912109375,0.8404696583747864,0.4797079265117645,0.929063081741333
1772649765552953000,4.085953125,0.8896617293357849,0.510731041431427,0.8247708082199097
1772649765562994200,4.095994140625,0.9404988288879395,0.49403947591781616,0.6477274298667908
1772649765573035300,4.10603515625,0.9620094299316406,0.4546201825141907,0.4035608470439911
1772649765583076400,4.116076416015625,0.940189003944397,0.4130410850048065,0.1276238113641739
1772649765593117200,4.1261171875,0.8905231356620789,0.3769872188568115,-0.15697143971920013
1772649765603158300,4.136158203125,0.8043242692947388,0.3336295783519745,-0.42212051153182983
1772649765613200100,4.1462001953125,0.6538620591163635,0.28373605012893677,-0.6422563791275024
1772649765623241200,4.1562412109375,0.411092072725296,0.3081042766571045,-0.8063984513282776
1772649765633282300,4.1662822265625,0.08006037026643753,0.37129443883895874,-0.8738116025924683
1772649765643323100,4.1763232421875,-0.21634402871131897,0.33835700154304504,-0.8298519253730774
1772649765653364200,4.1863642578125,-0.40948790311813354,0.31636011600494385,-0.635091245174408
1772649765663405000,4.196405029296875,-0.5023095607757568,0.32605698704719543,-0.3656138479709625
1772649765673446100,4.206446044921875,-0.45950907468795776,0.28142881393432617,-0.12449817359447479
1772649765683487200,4.2164873046875,-0.3634719252586365,0.21875597536563873,0.04910239577293396
1772649765693529000,4.226529052734375,-0.24624116718769073,0.12382441014051437,0.16919603943824768
1772649765703570200,4.236570068359375,-0.11386862397193909,-0.032546788454055786,0.23989681899547577
1772649765713611000,4.246611083984375,-0.015818752348423004,-0.16411280632019043,0.2616090476512909
1772649765723652000,4.256652099609375,0.037517253309488297,-0.22254332900047302,0.22587624192237854
1772649765733693200,4.266693115234375,0.04420817643404007,-0.2522876262664795,0.152616947889328
1772649765743734000,4.276734130859375,-0.0010737958364188671,-0.26449325680732727,0.05948479473590851
1772649765753775000,4.286775146484375,-0.09845467656850815,-0.2720624804496765,-0.038018591701984406
1772649765763817000,4.29681689453125,-0.22910724580287933,-0.2704774737358093,-0.1208270713686943
1772649765773858000,4.306858154296875,-0.35285767912864685,-0.2628733515739441,-0.21050609648227692
1772649765783899100,4.316899169921875,-0.4626014530658722,-0.24513526260852814,-0.30546656250953674
1772649765793940000,4.32693994140625,-0.5547638535499573,-0.20446185767650604,-0.4241495430469513
1772649765803981000,4.33698095703125,-0.5990245342254639,-0.16424226760864258,-0.5352038741111755
1772649765814022100,4.347022216796875,-0.6063117384910583,-0.16555814445018768,-0.6058058738708496
1772649765824063000,4.35706298828125,-0.5487303733825684,-0.19554008543491364,-0.6011441946029663
1772649765834104000,4.36710400390625,-0.4722082018852234,-0.2721400558948517,-0.584071159362793
1772649765844146000,4.37714599609375,-0.4388282895088196,-0.4198964238166809,-0.5450695753097534
1772649765854187000,4.38718701171875,-0.3507881760597229,-0.4868866503238678,-0.4261069893836975
1772649765864228000,4.39722802734375,-0.18441829085350037,-0.4746401011943817,-0.25698480010032654
1772649765874269000,4.40726904296875,-0.05538787320256233,-0.4574994742870331,-0.23403260111808777
1772649765884310000,4.41731005859375,0.03475585952401161,-0.5118615627288818,-0.38215872645378113
1772649765894351000,4.42735107421875,-0.04000785946846008,-0.7006155252456665,-0.9409839510917664
1772649765904392000,4.437391845703125,-0.3690353035926819,-1.2607823610305786,-1.41641104221344
1772649765914433300,4.447433349609375,-0.20849812030792236,-0.6612666249275208,-0.06454626470804214
1772649765924475100,4.45747509765625,0.39067497849464417,0.6876435875892639,1.2223715782165527
1772649765934516200,4.46751611328125,0.7099113464355469,1.0342375040054321,1.327345609664917
1772649765944557300,4.477557373046875,1.0305715799331665,0.7662031054496765,1.0355923175811768
1772649765954598100,4.48759814453125,1.1586401462554932,0.45483291149139404,0.6692435145378113
1772649765964639200,4.49763916015625,1.087921142578125,0.4139785170555115,0.23057599365711212
1772649765974680000,4.50768017578125,1.006178855895996,0.4202795624732971,-0.12918031215667725
1772649765984721200,4.51772119140625,0.7424231767654419,0.07751651108264923,-0.41225340962409973
1772649765994762200,4.52776220703125,0.293563574552536,-0.5616070032119751,-0.459910124540329
1772649766004804000,4.53780419921875,0.00783978309482336,-1.0819534063339233,-0.2082941085100174
1772649766014845200,4.54784521484375,-0.1715369075536728,-1.1411986351013184,0.08593831956386566
1772649766024886000,4.557885986328125,-0.19693003594875336,-0.8725879192352295,0.22231143712997437
1772649766034927000,4.567927001953125,-0.06737204641103745,-0.6325151920318604,0.2680056691169739
1772649766044968200,4.57796826171875,0.1328919231891632,-0.5345093011856079,0.32820409536361694
1772649766055009000,4.588009033203125,0.323847234249115,-0.33403560519218445,0.3126333951950073
1772649766065050000,4.598050048828125,0.437259703874588,-0.2044093906879425,0.19584067165851593
1772649766075091200,4.60809130859375,0.408539354801178,-0.21203108131885529,0.10385747998952866
1772649766085133000,4.618133056640625,0.31105464696884155,-0.2082207202911377,0.10890223830938339
1772649766095174100,4.628174072265625,0.22786174714565277,-0.13694308698177338,0.20724532008171082
1772649766105215000,4.638215087890625,0.1939999908208847,-0.022856080904603004,0.34034138917922974
1772649766115256000,4.648256103515625,0.20934699475765228,0.061929382383823395,0.4433439373970032
1772649766125297200,4.658297119140625,0.29081276059150696,0.030674682930111885,0.4610717296600342
1772649766135338000,4.668337890625,0.4175560474395752,-0.05460932105779648,0.4439183175563812
1772649766145379000,4.678379150390625,0.5489746332168579,-0.18178100883960724,0.37234190106391907
1772649766155421000,4.6884208984375,0.6405008435249329,-0.3393290936946869,0.27146270871162415
1772649766165462000,4.6984619140625,0.662721574306488,-0.4966906011104584,0.12238265573978424
1772649766175503000,4.708503173828125,0.6153332591056824,-0.6126976609230042,-0.06144949048757553
1772649766185544000,4.7185439453125,0.54550701379776,-0.6706418395042419,-0.24713373184204102
1772649766195585000,4.7285849609375,0.43699944019317627,-0.6670822501182556,-0.40547969937324524
1772649766205626000,4.738626220703125,0.25738832354545593,-0.6848315000534058,-0.48840928077697754
1772649766215667000,4.7486669921875,-0.029168616980314255,-0.6258842945098877,-0.4866800904273987
1772649766225708000,4.7587080078125,-0.38743484020233154,-0.4616381824016571,-0.4043845236301422
1772649766235750100,4.768750244140625,-0.6429086923599243,-0.3062613904476166,-0.341337114572525
1772649766245791200,4.778791259765625,-0.7335085272789001,-0.25927552580833435,-0.36471402645111084
1772649766255832300,4.788832275390625,-0.798821210861206,-0.15970902144908905,-0.4054023325443268
1772649766265873200,4.798873046875,-0.8287145495414734,-0.08968861401081085,-0.401925653219223
1772649766275914200,4.808914306640625,-0.7873138189315796,-0.04199778288602829,-0.27051621675491333
1772649766285955000,4.818955078125,-0.6699852347373962,0.06334029138088226,0.005162633024156094
1772649766295996200,4.82899609375,-0.5393251776695251,0.1832704246044159,0.29748213291168213
1772649766306037200,4.839037353515625,-0.4035816192626953,0.2705976366996765,0.4987757205963135
1772649766316079000,4.8490791015625,-0.22470852732658386,0.3550014793872833,0.5775392651557922
1772649766326120200,4.8591201171875,-0.04493698105216026,0.4318365752696991,0.5631366968154907
1772649766336161000,4.8691611328125,0.08987303078174591,0.46577057242393494,0.5308037996292114
1772649766346202000,4.8792021484375,0.18362589180469513,0.4471246600151062,0.4984816312789917
1772649766356243200,4.8892431640625,0.16878516972064972,0.3691302537918091,0.5043177008628845
1772649766366283500,4.899283447265625,0.1417987048625946,0.2891334593296051,0.47801756858825684
1772649766376324400,4.909324462890625,0.15065477788448334,0.2374979704618454,0.3895699977874756
1772649766386365400,4.919365478515625,0.041116733103990555,0.1595604419708252,0.24460770189762115
1772649766396407300,4.9294072265625,-0.10526365041732788,0.0014107504393905401,0.06391195207834244
1772649766406448400,4.939448486328125,-0.24227702617645264,-0.20183473825454712,-0.15076684951782227
1772649766416489500,4.949489501953125,-0.363107830286026,-0.4012354612350464,-0.3549407720565796
1772649766426530300,4.9595302734375,-0.5127467513084412,-0.6191933751106262,-0.5672528147697449
1772649766436571400,4.9695712890625,-0.6913343667984009,-0.7493148446083069,-0.6894280314445496
1772649766446612500,4.979612548828125,-0.870388388633728,-0.7885423898696899,-0.7731047868728638
1772649766456653300,4.9896533203125,-1.0014166831970215,-0.7847106456756592,-0.7922515869140625
1772649766466695400,4.9996953125,-0.9386351704597473,-0.628669261932373,-0.5983734130859375
1772649766476736300,5.009736328125,-0.7559186220169067,-0.36511701345443726,-0.2233974039554596
1772649766486777300,5.01977734375,-0.7163053750991821,-0.38250836730003357,-0.2509249150753021
1772649766496818400,5.029818359375,-1.1105611324310303,-0.7757531404495239,-1.0355530977249146
1772649766506859300,5.039859375,-0.9944701790809631,-0.5273889303207397,-0.510482132434845
1772649766516900400,5.049900390625,-0.3885160982608795,0.48305943608283997,0.8177627921104431
1772649766526941200,5.059941162109375,0.12121856212615967,0.6602528095245361,1.2349623441696167
1772649766536982300,5.069982177734375,0.5156617164611816,0.02560470625758171,1.1367316246032715
1772649766547023400,5.0800234375,0.9541857838630676,-0.3546953499317169,0.9994091987609863
1772649766557065200,5.090065185546875,1.258833885192871,-0.5168605446815491,0.7700220942497253
1772649766567106300,5.100106201171875,1.11966872215271,-0.8639647960662842,0.44767695665359497
1772649766577147100,5.110147216796875,0.6801547408103943,-1.4160569906234741,0.030933525413274765
1772649766587188200,5.120188232421875,0.23773983120918274,-1.715397834777832,-0.3586593568325043
1772649766597229300,5.130229248046875,-0.07052931934595108,-1.6222865581512451,-0.366451233625412
1772649766607270100,5.140270263671875,-0.24596256017684937,-1.2549794912338257,-0.2480565756559372
1772649766617311200,5.150311279296875,-0.31837791204452515,-0.9373682141304016,-0.1635267734527588
1772649766627352300,5.160352294921875,-0.15514454245567322,-0.7210794687271118,-0.16244983673095703
1772649766637394400,5.17039453125,0.03583367168903351,-0.57804936170578,-0.1531231850385666
1772649766647435500,5.180435546875,0.15194448828697205,-0.4112972617149353,-0.07080122828483582
1772649766657476400,5.190476318359375,0.27750030159950256,-0.16647551953792572,0.03531721234321594
1772649766667517400,5.200517333984375,0.3283805847167969,0.18200737237930298,0.19500397145748138
1772649766677558500,5.21055859375,0.26481544971466064,0.5704349875450134,0.43541285395622253
1772649766687599400,5.220599365234375,0.22207018733024597,0.8917603492736816,0.6516882181167603
1772649766697640400,5.230640380859375,0.284005731344223,1.062269926071167,0.8216668367385864
1772649766707682300,5.240682373046875,0.39984801411628723,1.1141005754470825,0.9908093214035034
1772649766717723400,5.250723388671875,0.5005854964256287,1.1414587497711182,1.1002724170684814
1772649766727764500,5.260764404296875,0.5784686207771301,1.1378116607666016,1.1159071922302246
1772649766737805300,5.270805419921875,0.615389347076416,0.9653842449188232,1.0730952024459839
1772649766747846400,5.280846435546875,0.5448134541511536,0.7379357218742371,0.936993420124054
1772649766757887500,5.290887451171875,0.4125632345676422,0.48072388768196106,0.711567759513855
1772649766767928300,5.30092822265625,0.2510012984275818,0.22772850096225739,0.432963103055954
1772649766779224300,5.312224365234375,0.05860922113060951,0.0832914263010025,0.04885352775454521
1772649766789266400,5.322266357421875,-0.11081543564796448,0.0418224036693573,-0.31014594435691833
1772649766799307300,5.332307373046875,-0.24502809345722198,0.05433739721775055,-0.590622067451477
1772649766809348400,5.342348388671875,-0.3614037334918976,0.1935185194015503,-0.7432385087013245
1772649766819389400,5.352389404296875,-0.463625431060791,0.4285174608230591,-0.7472596168518066
1772649766829430300,5.36243017578125,-0.5468029379844666,0.6601365208625793,-0.7119159698486328
1772649766839471400,5.372471435546875,-0.6031160354614258,0.7348973155021667,-0.7862144112586975
1772649766849512400,5.382512451171875,-0.5891289710998535,0.617963969707489,-0.8160390853881836
1772649766859553300,5.39255322265625,-0.5077491998672485,0.49421411752700806,-0.5997835397720337
1772649766869595400,5.402595458984375,-0.45676496624946594,0.4156489372253418,-0.43862655758857727
1772649766879636200,5.41263623046875,-0.4459115266799927,0.2966839373111725,-0.41961929202079773
1772649766889677300,5.42267724609375,-0.4236946105957031,0.21623660624027252,-0.5067402720451355
1772649766899718400,5.432718505859375,-0.3919670581817627,0.20437701046466827,-0.624971330165863
1772649766909759200,5.44275927734375,-0.3666532337665558,0.23044762015342712,-0.6990489959716797
1772649766919800300,5.45280029296875,-0.38211822509765625,0.22864679992198944,-0.7127009034156799
1772649766929841200,5.462841064453125,-0.4457901120185852,0.17990583181381226,-0.6817527413368225
1772649766939882200,5.47288232421875,-0.47016629576683044,0.0972551628947258,-0.6610296368598938
1772649766949924400,5.48292431640625,-0.545490026473999,0.07926791906356812,-0.6725411415100098
1772649766959965200,5.492965087890625,-0.6098048090934753,0.12154107540845871,-0.6878045201301575
1772649766970006300,5.50300634765625,-0.6695742607116699,0.23766840994358063,-0.6873080134391785
1772649766980047000,5.513047119140625,-0.6602351069450378,0.382006973028183,-0.6737359762191772
1772649766990088200,5.523088134765625,-0.7356177568435669,0.5136110782623291,-0.638927161693573
1772649767000129300,5.53312939453125,-0.7109006643295288,0.5068104267120361,-0.5750927925109863
1772649767010170000,5.543170166015625,-0.7757643461227417,0.4786067605018616,-0.44032955169677734
1772649767020211200,5.553211181640625,-0.7781859636306763,0.4601244032382965,-0.3726924657821655
1772649767030253300,5.56325341796875,-0.6261355876922607,0.4297655522823334,-0.4240286946296692
1772649767040294400,5.57329443359375,-0.3327258229255676,0.44049835205078125,-0.4146074950695038
1772649767050335500,5.58333544921875,-0.0751611664891243,0.21855024993419647,-0.088292196393013
1772649767060376300,5.593376220703125,-0.0436415895819664,0.17260539531707764,0.5224646329879761
1772649767070417400,5.60341748046875,0.09239330887794495,0.4022635519504547,1.0649276971817017
1772649767080458500,5.61345849609375,0.3185470998287201,0.9292059540748596,1.3609346151351929
1772649767090499300,5.623499267578125,0.3377669155597687,1.1461529731750488,0.9868586659431458
1772649767100540400,5.63354052734375,0.3123888671398163,0.8706893920898438,0.42190977931022644
1772649767110582300,5.643582275390625,0.27488070726394653,0.46543461084365845,0.1985454261302948
1772649767120623400,5.653623291015625,0.2418048083782196,0.12917935848236084,0.05118287354707718
1772649767130664400,5.66366455078125,0.2832799255847931,0.1278686821460724,-0.11652462184429169
1772649767140705300,5.673705322265625,0.22413724660873413,-0.05400285869836807,-0.14970041811466217
1772649767150746400,5.683746337890625,0.0687071830034256,-0.36096981167793274,-0.11817223578691483
1772649767160787500,5.693787353515625,-0.08082132041454315,-0.507886528968811,-0.11611733585596085
1772649767170828300,5.703828369140625,-0.09692098200321198,-0.44037604331970215,-0.008912298828363419
1772649767180870400,5.713870361328125,-0.01180342584848404,-0.16793014109134674,0.0885399580001831
1772649767190911200,5.7239111328125,0.08248264342546463,0.10331149399280548,0.14080363512039185
1772649767200952300,5.733952392578125,0.1480930894613266,0.2586451768875122,0.20595413446426392
1772649767210993400,5.743993408203125,0.19913125038146973,0.35872533917427063,0.25414636731147766
1772649767221034200,5.7540341796875,0.29949966073036194,0.4372023046016693,0.2664640247821808
1772649767231075300,5.764075439453125,0.3257077634334564,0.44919219613075256,0.27566856145858765
1772649767241116200,5.7741162109375,0.3413647711277008,0.44297105073928833,0.2899036705493927
1772649767251157200,5.7841572265625,0.3280869126319885,0.41763758659362793,0.3430321216583252
1772649767261199400,5.794199462890625,0.2618655562400818,0.3840290307998657,0.41278591752052307
1772649767271240200,5.804240234375,0.17938372492790222,0.387465238571167,0.45005562901496887
1772649767281281300,5.81428125,0.18960388004779816,0.3915840983390808,0.418409526348114
1772649767291322000,5.824322021484375,0.2609441876411438,0.41437703371047974,0.3402324616909027
1772649767301363200,5.83436328125,0.4518702030181885,0.3830057978630066,0.19175775349140167
1772649767311404300,5.844404296875,0.7487773895263672,0.3074272871017456,0.08979356288909912
1772649767321445000,5.854445068359375,1.0083333253860474,0.21487471461296082,0.10346543043851852
1772649767331486200,5.864486328125,1.172966718673706,0.09125824272632599,0.19089804589748383
1772649767341528300,5.8745283203125,1.2347863912582397,-0.024758106097579002,0.2657829523086548
1772649767351569400,5.8845693359375,1.2312612533569336,-0.07559850066900253,0.2774007022380829
1772649767361610500,5.894610595703125,1.1400234699249268,-0.060310352593660355,0.21072660386562347
1772649767371651300,5.9046513671875,0.8979578018188477,-0.06960239261388779,0.044830575585365295
1772649767381692400,5.9146923828125,0.5014520287513733,-0.058923643082380295,-0.1773947775363922
1772649767391733500,5.9247333984375,0.051838237792253494,-0.05727629363536835,-0.3671185374259949
1772649767401774300,5.9347744140625,-0.2703949213027954,-0.07403609901666641,-0.4576457738876343
1772649767411815400,5.9448154296875,-0.47616082429885864,-0.10600254684686661,-0.4320729970932007
1772649767421857300,5.954857177734375,-0.6540700793266296,-0.13078539073467255,-0.32782912254333496
1772649767431898400,5.9648984375,-0.7147155404090881,-0.14496171474456787,-0.16486407816410065
1772649767441939500,5.974939453125,-0.6492915153503418,-0.14958202838897705,0.022463466972112656
1772649767451980300,5.984980224609375,-0.5312634110450745,-0.17590855062007904,0.18774795532226562
1772649767462021400,5.995021484375,-0.43034830689430237,-0.25816428661346436,0.25197461247444153
1772649767472062500,6.0050625,-0.3533500134944916,-0.3697555363178253,0.22640614211559296
1772649767482103300,6.015103271484375,-0.3298929035663605,-0.4722670018672943,0.15580254793167114
1772649767492144400,6.025144287109375,-0.3493351936340332,-0.5654078722000122,0.0507245808839798
1772649767502186500,6.0351865234375,-0.38610947132110596,-0.6702799201011658,-0.10436300188302994
1772649767512227600,6.0452275390625,-0.4600532352924347,-0.756544828414917,-0.29297640919685364
1772649767522268400,6.055268310546875,-0.5570152401924133,-0.7898303866386414,-0.4576391279697418
1772649767532309500,6.0653095703125,-0.6119862198829651,-0.7992127537727356,-0.5298706293106079
1772649767542350600,6.0753505859375,-0.6332105398178101,-0.749053955078125,-0.49832284450531006
1772649767552391400,6.085391357421875,-0.5812777876853943,-0.6744957566261292,-0.41574451327323914
1772649767562432500,6.0954326171875,-0.5295155048370361,-0.5916134119033813,-0.28519928455352783
1772649767572473600,6.1054736328125,-0.4628940224647522,-0.5173395276069641,-0.2057151198387146
1772649767582515500,6.115515380859375,-0.43478861451148987,-0.587121307849884,-0.2120009809732437
1772649767592556500,6.125556640625,-0.42002230882644653,-0.639650821685791,-0.2215532511472702
1772649767602597400,6.135597412109375,-0.4238806962966919,-0.6818395256996155,-0.20278409123420715
1772649767612638500,6.145638427734375,-0.4118361473083496,-0.6630549430847168,-0.24771450459957123
1772649767622679600,6.155679443359375,-0.34829819202423096,-0.6296684741973877,-0.31204953789711
1772649767632720400,6.165720458984375,-0.3033273220062256,-0.5274648070335388,-0.22666427493095398
1772649767642761500,6.175761474609375,-0.3723708391189575,-0.3982519209384918,-0.19723474979400635
1772649767652802600,6.185802490234375,-0.8065780401229858,-0.4425951838493347,-0.08026713132858276
1772649767662844400,6.195844482421875,-0.6453819274902344,0.7130689024925232,0.7672300934791565
1772649767672885500,6.205885498046875,0.09224993735551834,1.5795228481292725,1.391993761062622
1772649767682926300,6.21592626953125,0.534925103187561,1.4406019449234009,1.1486079692840576
1772649767692967400,6.225967529296875,0.6309512257575989,0.9491667151451111,0.7454938292503357
1772649767703008500,6.236008544921875,0.7843570113182068,0.6515653729438782,0.41255420446395874
1772649767713049300,6.24604931640625,0.8758770227432251,0.47035983204841614,0.01269535906612873
1772649767723090400,6.25609033203125,0.6909505724906921,-0.00852312333881855,-0.12192156910896301
1772649767733131500,6.266131591796875,0.15355442464351654,-0.7234967947006226,-0.04660492390394211
1772649767743173400,6.27617333984375,-0.2724964916706085,-1.1192667484283447,0.054319828748703
1772649767753214500,6.28621435546875,-0.3861422538757324,-1.1036994457244873,0.08407039195299149
1772649767763255300,6.29625537109375,-0.3136659264564514,-0.975878119468689,0.0706789568066597
1772649767773296400,6.30629638671875,-0.11361212283372879,-0.7951555252075195,0.024986695498228073
1772649767783337500,6.31633740234375,0.14768178761005402,-0.5293105244636536,-0.014187603257596493
1772649767793378300,6.32637841796875,0.3285677433013916,-0.2713303864002228,-0.051892172545194626
1772649767803419400,6.33641943359375,0.407436728477478,-0.04718063026666641,-0.11053045094013214
1772649767813460200,6.346460205078125,0.3784700930118561,0.16899488866329193,-0.08031357079744339
1772649767823502600,6.356502685546875,0.2982119917869568,0.4022952914237976,0.08312541991472244
1772649767833543400,6.36654345703125,0.17319835722446442,0.6532483696937561,0.28755801916122437
1772649767843584500,6.37658447265625,0.048687852919101715,0.8467448353767395,0.48630839586257935
1772649767853625600,6.38662548828125,-0.00623693410307169,0.9164649248123169,0.6200957894325256
1772649767863666400,6.39666650390625,0.027560176327824593,0.9091260433197021,0.6380835771560669
1772649767873707500,6.40670751953125,0.137065127491951,0.8372281193733215,0.558866560459137
1772649767883748600,6.41674853515625,0.2778930962085724,0.7516010999679565,0.4258307218551636
1772649767893789400,6.42678955078125,0.4455856382846832,0.6605362296104431,0.30729106068611145
1772649767903831600,6.43683154296875,0.6082323789596558,0.5828344821929932,0.21965733170509338
1772649767913872400,6.446872314453125,0.7175955772399902,0.4911012649536133,0.10978695750236511
1772649767923913500,6.45691357421875,0.7437547445297241,0.3374278247356415,-0.06762191653251648
1772649767933954600,6.46695458984375,0.6544155478477478,0.1363915503025055,-0.3258889615535736
1772649767943995400,6.476995361328125,0.39706653356552124,-0.08371765166521072,-0.6463119983673096
1772649767954036500,6.487036376953125,0.003872498171404004,-0.17072752118110657,-0.9278850555419922
1772649767964077600,6.49707763671875,-0.477110356092453,-0.07435092329978943,-1.073528528213501
1772649767974118400,6.507118408203125,-0.8745267391204834,0.011072530411183834,-1.118929386138916
1772649767984160500,6.517160400390625,-1.1301853656768799,-0.04175686091184616,-1.122002124786377
1772649767994201300,6.527201416015625,-1.2563279867172241,-0.15936845541000366,-1.0642259120941162
1772649768004242400,6.537242431640625,-1.1898802518844604,-0.22240015864372253,-0.9509715437889099
1772649768014283500,6.547283447265625,-0.9609206914901733,-0.20008867979049683,-0.8354902267456055
1772649768024324400,6.557324462890625,-0.7460179328918457,-0.16029466688632965,-0.7437059879302979
1772649768034365400,6.567365478515625,-0.627469003200531,-0.07323044538497925,-0.7004558444023132
1772649768044406500,6.577406494140625,-0.5251213312149048,-0.05048411712050438,-0.691443145275116
1772649768054447400,6.587447265625,-0.427002489566803,-0.05901565030217171,-0.6700721383094788
1772649768064488400,6.597488525390625,-0.34539657831192017,-0.07093622535467148,-0.568964958190918
1772649768074530300,6.6075302734375,-0.27757981419563293,-0.03708864375948906,-0.4496002197265625
1772649768084571400,6.6175712890625,-0.254818320274353,0.007935558445751667,-0.3425999879837036
1772649768094612500,6.627612548828125,-0.265818327665329,0.036865636706352234,-0.2730007469654083
1772649768104653300,6.6376533203125,-0.2816811800003052,0.048001378774642944,-0.21200986206531525
1772649768114694400,6.6476943359375,-0.36137425899505615,0.10625018179416656,-0.16748501360416412
1772649768124735200,6.6577353515625,-0.3138059377670288,0.10527466237545013,-0.14287634193897247
1772649768134776300,6.6677763671875,-0.22147274017333984,0.14837999641895294,-0.1251867115497589
1772649768144817400,6.6778173828125,-0.1285923272371292,0.19002145528793335,-0.2073683887720108
1772649768154859500,6.687859619140625,-0.0954432412981987,0.11771561950445175,-0.3016188442707062
1772649768164900600,6.697900634765625,-0.06253562122583389,0.06408888101577759,-0.31348562240600586
1772649768174941400,6.70794140625,0.021017348393797874,0.01604642905294895,-0.3690991699695587
1772649768184982500,6.717982421875,0.08323732018470764,-0.10381819307804108,-0.4717600345611572
1772649768195023600,6.728023681640625,0.14317144453525543,-0.11167993396520615,-0.5231525301933289
1772649768205064400,6.738064453125,0.24192224442958832,-0.09613346308469772,-0.4227457344532013
1772649768215105500,6.74810546875,0.3699263632297516,-0.07559559494256973,-0.14531616866588593
1772649768225146600,6.758146728515625,0.3420364260673523,-0.07787872105836868,0.23663759231567383
1772649768235188500,6.7681884765625,0.34213733673095703,-0.014147510752081871,0.7750788927078247
1772649768245229600,6.7782294921875,0.5715329647064209,0.25047802925109863,1.0362290143966675
1772649768255270400,6.7882705078125,0.6811877489089966,0.032319940626621246,0.6927981972694397
1772649768265311500,6.7983115234375,0.49558085203170776,-0.33306896686553955,0.4012505114078522
1772649768275352600,6.8083525390625,0.32335034012794495,-0.40159687399864197,0.2469988763332367
1772649768285393400,6.818393310546875,0.21937599778175354,-0.3145189583301544,0.020623531192541122
1772649768295434500,6.8284345703125,0.03408309072256088,-0.16579464077949524,-0.03396320715546608
1772649768305475600,6.8384755859375,-0.10777658224105835,-0.16411471366882324,0.16696058213710785
1772649768315517400,6.848517333984375,-0.3150623142719269,-0.22677089273929596,0.28363287448883057
1772649768325558500,6.85855859375,-0.41917404532432556,-0.19774803519248962,0.36991745233535767
1772649768335599400,6.868599365234375,-0.2887400686740875,-0.09009237587451935,0.49009114503860474
1772649768345640400,6.878640380859375,-0.045336734503507614,0.0983574315905571,0.5538637042045593
1772649768355681500,6.888681640625,0.1547611653804779,0.25385600328445435,0.5415681600570679
1772649768365722400,6.898722412109375,0.2801600992679596,0.35355037450790405,0.4624980688095093
1772649768375763200,6.90876318359375,0.3607025444507599,0.4780735373497009,0.4137642979621887
1772649768385804300,6.91880419921875,0.37779736518859863,0.6362850069999695,0.41904401779174805
1772649768395846400,6.928846435546875,0.3642255961894989,0.7012944221496582,0.42580997943878174
1772649768405887500,6.938887451171875,0.3398222327232361,0.6922450065612793,0.4706432521343231
1772649768415928300,6.94892822265625,0.3189827799797058,0.7199384570121765,0.5200196504592896
1772649768425969400,6.958969482421875,0.30710935592651367,0.7573961019515991,0.5291535258293152
1772649768436010200,6.96901025390625,0.32003992795944214,0.7546718120574951,0.5100994110107422
1772649768446051300,6.97905126953125,0.3543555438518524,0.7211721539497375,0.4515242576599121
1772649768456092400,6.989092529296875,0.399131178855896,0.6324514150619507,0.3607487082481384
1772649768466133200,6.99913330078125,0.4578533470630646,0.5054244995117188,0.29176485538482666
1772649768476174300,7.00917431640625,0.48911938071250916,0.3908456265926361,0.2603021264076233
1772649768486216200,7.01921630859375,0.5065218210220337,0.2885224521160126,0.2052854746580124
1772649768496257300,7.02925732421875,0.47796329855918884,0.19084788858890533,0.09061470627784729
1772649768506298400,7.03929833984375,0.3865015506744385,0.09357140213251114,-0.10275901854038239
1772649768516339200,7.049339111328125,0.150602787733078,-0.027773210778832436,-0.35110610723495483
1772649768526380300,7.05938037109375,-0.26353177428245544,-0.19874948263168335,-0.6251243352890015
1772649768536421400,7.06942138671875,-0.7443464994430542,-0.3240906000137329,-0.8068451285362244
1772649768546462200,7.079462158203125,-1.1042224168777466,-0.3499815762042999,-0.8531071543693542
1772649768556503300,7.08950341796875,-1.1913455724716187,-0.38103848695755005,-0.8304023146629333
1772649768566545200,7.099545166015625,-1.0601569414138794,-0.3468781113624573,-0.7524062991142273
1772649768576586200,7.109586181640625,-0.8215750455856323,-0.2594391107559204,-0.615785539150238
1772649768586627300,7.11962744140625,-0.6227056384086609,-0.1255079209804535,-0.4793691337108612
1772649768596668200,7.129668212890625,-0.46987342834472656,-0.029270857572555542,-0.3850957155227661
1772649768606709200,7.139709228515625,-0.3279133439064026,0.028307750821113586,-0.28338930010795593
1772649768616750300,7.149750244140625,-0.21969276666641235,0.14668254554271698,-0.1829235851764679
1772649768626791200,7.159791259765625,-0.16309313476085663,0.24061410129070282,-0.12296997755765915
1772649768636832300,7.169832275390625,-0.14662675559520721,0.3055993318557739,-0.09451694786548615
1772649768646874000,7.1798740234375,-0.2049981951713562,0.35730648040771484,-0.1058817207813263
1772649768656915200,7.189915283203125,-0.2900561988353729,0.3623051941394806,-0.15297037363052368
1772649768666956300,7.199956298828125,-0.3434682786464691,0.34285134077072144,-0.215243861079216
1772649768676997000,7.2099970703125,-0.35798677802085876,0.29886123538017273,-0.25845420360565186
1772649768687038200,7.2200380859375,-0.40223145484924316,0.29689982533454895,-0.2897487282752991
1772649768697079300,7.230079345703125,-0.3402951657772064,0.2590845227241516,-0.33099600672721863
1772649768707120000,7.2401201171875,-0.3884781301021576,0.183649942278862,-0.4397278130054474
1772649768717161200,7.2501611328125,-0.53842693567276,0.06349743902683258,-0.5388876795768738
1772649768727203000,7.260203125,-0.6625784039497375,0.059140775352716446,-0.5910712480545044
1772649768737244200,7.270244140625,-0.611306369304657,0.03597404435276985,-0.5928035974502563
1772649768747285200,7.28028515625,-0.5401677489280701,0.08754802495241165,-0.5019927024841309
1772649768757326300,7.290326416015625,-0.46236369013786316,0.2563546299934387,-0.35832878947257996
1772649768767367400,7.300367431640625,-0.4901130199432373,0.3339306712150574,-0.32765984535217285
1772649768777408300,7.310408203125,-0.6515262722969055,0.13550356030464172,-0.5729278922080994
1772649768787449300,7.320449462890625,-0.7122106552124023,-0.3217308521270752,-0.5064929723739624
1772649768797490400,7.330490478515625,-0.35177847743034363,0.4278227686882019,0.45761558413505554
1772649768807531300,7.34053125,0.07926134020090103,1.1904573440551758,1.2007826566696167
1772649768817573400,7.350573486328125,0.4710291028022766,1.0902888774871826,1.2124042510986328
1772649768827614200,7.3606142578125,0.610561192035675,0.5434204936027527,0.8528068661689758
1772649768837655300,7.3706552734375,0.7057410478591919,0.05735763907432556,0.5360909104347229
1772649768847696400,7.3806962890625,0.7730292677879333,-0.3069140613079071,0.29588553309440613
1772649768857737200,7.3907373046875,0.6857243776321411,-0.6268121600151062,0.0852324441075325
1772649768867778300,7.4007783203125,0.515682578086853,-1.134298324584961,0.06596820056438446
1772649768877819400,7.4108193359375,0.38809916377067566,-1.6325081586837769,0.20028190314769745
1772649768887860200,7.420860107421875,0.3879143297672272,-1.862849473953247,0.4238329529762268
1772649768897902300,7.43090234375,0.4815398156642914,-1.8581862449645996,0.5805676579475403
1772649768907943200,7.440943115234375,0.5782623291015625,-1.6711132526397705,0.5035514235496521
1772649768917984300,7.450984375,0.6328824162483215,-1.409934163093567,0.3357992470264435
1772649768928025300,7.461025390625,0.7249383330345154,-1.1509180068969727,0.34483882784843445
1772649768938066200,7.471066162109375,0.7992881536483765,-0.8475539684295654,0.43858373165130615
1772649768948107300,7.481107177734375,0.7811328768730164,-0.5562065839767456,0.5034937262535095
1772649768958148400,7.4911484375,0.7147879600524902,-0.3324606716632843,0.5967994332313538
1772649768968189200,7.501189208984375,0.5920929312705994,-0.1363457441329956,0.7060950398445129
1772649768978230300,7.511230224609375,0.47775015234947205,-0.02866940386593342,0.7587530016899109
1772649768988272000,7.521272216796875,0.42698603868484497,-0.0393204502761364,0.7243114113807678
1772649768998313200,7.531313232421875,0.4269944131374359,-0.047767605632543564,0.6789098978042603
1772649769008354300,7.541354248046875,0.4606407880783081,-0.046262651681900024,0.6647796630859375
1772649769018395100,7.55139501953125,0.522040069103241,-0.11891835927963257,0.6677566170692444
1772649769028436200,7.561436279296875,0.5685548186302185,-0.25798943638801575,0.6866442561149597
1772649769038477000,7.57147705078125,0.5901315212249756,-0.39473432302474976,0.7225902676582336
1772649769048518100,7.58151806640625,0.6060537695884705,-0.5220246315002441,0.7204916477203369
1772649769058559200,7.591559326171875,0.6153102517127991,-0.625778317451477,0.6749928593635559
1772649769068601000,7.60160107421875,0.6360189914703369,-0.655957043170929,0.6046414971351624
1772649769078642200,7.61164208984375,0.6277022957801819,-0.6140521168708801,0.5198511481285095
1772649769088683300,7.621683349609375,0.5473339557647705,-0.5852119326591492,0.3877735435962677
1772649769098724400,7.631724365234375,0.3739956319332123,-0.5885513424873352,0.18501201272010803
1772649769108765400,7.641765380859375,0.08525889366865158,-0.5846505761146545,0.0016075626481324434
1772649769118806300,7.65180615234375,-0.28909599781036377,-0.5827584266662598,-0.14472495019435883
1772649769128847400,7.661847412109375,-0.5325901508331299,-0.558020830154419,-0.2742041349411011
1772649769138888400,7.671888427734375,-0.6013314127922058,-0.5161810517311096,-0.33971190452575684
1772649769148930300,7.681930419921875,-0.54400634765625,-0.5187294483184814,-0.3707156181335449
1772649769158971400,7.691971435546875,-0.3626857101917267,-0.5003178119659424,-0.3494452238082886
1772649769169012200,7.70201220703125,-0.12495996057987213,-0.4666503965854645,-0.24920116364955902
1772649769179053300,7.71205322265625,0.058455176651477814,-0.38673868775367737,-0.07945887744426727
1772649769189094400,7.722094482421875,0.16536803543567657,-0.3398473560810089,0.06395101547241211
1772649769199135200,7.73213525390625,0.23551324009895325,-0.33196821808815,0.1328628808259964
1772649769209176300,7.74217626953125,0.2582169473171234,-0.355133980512619,0.14333470165729523
1772649769219217400,7.752217529296875,0.237253800034523,-0.3588393032550812,0.10788679867982864
1772649769229258200,7.76225830078125,0.1878660023212433,-0.32288503646850586,0.022199856117367744
1772649769239300400,7.77230029296875,0.11221655458211899,-0.2544934153556824,-0.09467220306396484
1772649769249341200,7.782341064453125,0.026162628084421158,-0.17355303466320038,-0.2484804093837738
1772649769259382300,7.79238232421875,-0.09568893909454346,-0.08558008819818497,-0.4310930371284485
1772649769269423400,7.80242333984375,-0.26563137769699097,-0.03960380703210831,-0.585946798324585
1772649769279464200,7.812464111328125,-0.40477198362350464,-0.03420189023017883,-0.6527706980705261
1772649769289505300,7.82250537109375,-0.441436767578125,0.03476040065288544,-0.6253159046173096
1772649769299546400,7.83254638671875,-0.3460922837257385,0.1306871473789215,-0.6085925102233887
1772649769309587200,7.842587158203125,-0.2938360273838043,0.20823520421981812,-0.6780008673667908
1772649769319629300,7.85262939453125,-0.3457302451133728,0.16019690036773682,-0.879888653755188
1772649769329670100,7.862670166015625,-0.42992928624153137,0.04901577904820442,-1.1198042631149292
1772649769339711200,7.872711181640625,-0.5190563201904297,-0.08079260587692261,-1.3682525157928467
1772649769349752000,7.882751953125,-0.525822103023529,-0.20020288228988647,-1.5672109127044678
1772649769359793200,7.892793212890625,-0.3999714255332947,-0.22602719068527222,-1.4319210052490234
1772649769369834500,7.90283447265625,-0.2827843427658081,-0.387625128030777,-0.7626944184303284
1772649769379875300,7.912875244140625,-0.11460305750370026,0.13198556005954742,0.0009776916122063994
1772649769389916400,7.92291650390625,0.0589628666639328,0.547965943813324,0.31294944882392883
1772649769399957500,7.93295751953125,0.4697493314743042,0.858337938785553,0.4643954336643219
1772649769409999400,7.942999267578125,0.8984226584434509,1.2429794073104858,0.5217418074607849
1772649769420040400,7.95304052734375,1.120180368423462,1.620542287826538,0.5119461417198181
1772649769430081300,7.963081298828125,1.1039329767227173,1.7735928297042847,0.3937470614910126
1772649769440122400,7.973122314453125,0.9454284310340881,1.6905394792556763,0.24386242032051086
1772649769450163500,7.98316357421875,0.6396951675415039,1.3507195711135864,0.2633250951766968
1772649769460204300,7.993204345703125,0.12496671080589294,0.8661552667617798,0.4221230149269104
1772649769470245400,8.003245361328124,-0.07827881723642349,0.4532800614833832,0.6466426849365234
1772649769480286500,8.013286376953126,-0.24834416806697845,0.2229982614517212,0.667816698551178
1772649769490328600,8.02332861328125,-0.1808335781097412,0.04192434996366501,0.46169230341911316
1772649769500369700,8.03336962890625,0.06540122628211975,-0.029815714806318283,0.23332327604293823
1772649769510410500,8.043410400390625,0.287850022315979,-0.12894763052463531,0.04663167893886566
1772649769520451600,8.05345166015625,0.3454607129096985,-0.1706390082836151,0.006241396069526672
1772649769530492700,8.06349267578125,0.27735650539398193,-0.16410309076309204,0.10435331612825394
1772649769540533500,8.073533447265625,0.14790362119674683,-0.08908870071172714,0.27754920721054077
1772649769550574600,8.08357470703125,0.07077234238386154,-0.005640680901706219,0.4576672911643982
1772649769560615400,8.093615478515625,0.08420927822589874,-0.014199638739228249,0.6325740218162537
1772649769570656500,8.103656494140624,0.1339978724718094,-0.09786497801542282,0.8038203120231628
1772649769580698400,8.113698486328126,0.20278829336166382,-0.2101026177406311,0.9113253951072693
1772649769590739500,8.123739501953125,0.2747412919998169,-0.2987813353538513,0.991008996963501
1772649769600780500,8.133780517578124,0.36174172163009644,-0.40833809971809387,1.0356087684631348
1772649769610821400,8.1438212890625,0.4453290104866028,-0.5558127760887146,1.049804449081421
1772649769620862500,8.153862548828124,0.4966546297073364,-0.712873637676239,0.9795345664024353
1772649769630903600,8.163903564453125,0.5306786298751831,-0.8184599876403809,0.8176484704017639
1772649769640944400,8.1739443359375,0.5730767846107483,-0.8944603204727173,0.5873110294342041
1772649769650985500,8.1839853515625,0.5570895671844482,-0.9873905181884766,0.34667980670928955
1772649769661026600,8.194026611328125,0.44176533818244934,-1.0775412321090698,0.10074256360530853
1772649769671068400,8.204068359375,0.16561709344387054,-1.1322585344314575,-0.1699802726507187
1772649769681109500,8.214109619140626,-0.19486258924007416,-1.1192458868026733,-0.36393025517463684
1772649769691150300,8.224150390625,-0.5023251175880432,-1.0555758476257324,-0.4772554934024811
1772649769701191400,8.23419140625,-0.6404340863227844,-0.8985429406166077,-0.4436098039150238
1772649769711232500,8.244232421875,-0.7265266180038452,-0.7348988652229309,-0.272339791059494
1772649769721273300,8.2542734375,-0.7030220031738281,-0.6674298644065857,-0.039570700377225876
1772649769731314400,8.264314453125,-0.49932506680488586,-0.5574468970298767,0.21892289817333221
1772649769741355500,8.27435546875,-0.1720672994852066,-0.3744730055332184,0.4418584108352661
1772649769751397400,8.2843974609375,0.15483970940113068,-0.15455980598926544,0.5718271136283875
1772649769761438500,8.2944384765625,0.34609732031822205,0.06910562515258789,0.6142914295196533
1772649769771479300,8.304479248046874,0.4668210744857788,0.2042730301618576,0.5606093406677246
1772649769781520400,8.314520263671875,0.5534049272537231,0.27909356355667114,0.4639776945114136
1772649769791561500,8.3245615234375,0.5878830552101135,0.2978094518184662,0.38362160325050354
1772649769801602300,8.334602294921876,0.5602761507034302,0.2859303951263428,0.32570162415504456
1772649769811643400,8.344643310546875,0.46248775720596313,0.2451307773590088,0.2750006318092346
1772649769821684500,8.3546845703125,0.30182376503944397,0.18283075094223022,0.19709178805351257
1772649769831726600,8.3647265625,0.15639333426952362,0.13068579137325287,0.08496444672346115
1772649769841767400,8.374767333984375,0.03983493894338608,0.1301964521408081,-0.043067336082458496
1772649769851808500,8.38480859375,-0.06068394333124161,0.176567941904068,-0.1296946406364441
1772649769861849600,8.394849609375,-0.1852392554283142,0.22616608440876007,-0.1438812017440796
1772649769871890400,8.404890380859374,-0.3285956084728241,0.26908132433891296,-0.21055211126804352
1772649769881931500,8.414931640625,-0.4320359230041504,0.29988130927085876,-0.34431761503219604
1772649769891972600,8.42497265625,-0.4892944097518921,0.2732531726360321,-0.4494647979736328
1772649769902013400,8.435013427734376,-0.4799990952014923,0.29378920793533325,-0.4669875502586365
1772649769912054500,8.445054443359375,-0.3757357895374298,0.3335999846458435,-0.4712475538253784
1772649769922096400,8.455096435546874,-0.21633416414260864,0.2918435037136078,-0.49604275822639465
1772649769932137500,8.465137451171875,-0.04969404637813568,0.2694138288497925,-0.6059138178825378
1772649769942178600,8.475178466796875,-0.07354186475276947,0.14575545489788055,-0.7678984999656677
1772649769952219400,8.485219482421876,-0.3420361578464508,-0.4154767096042633,-0.35673925280570984
1772649769962260500,8.495260498046875,-0.32112276554107666,-0.0064324126578867435,0.6273223161697388
1772649769972301600,8.505301513671874,-0.07112835347652435,0.3433524966239929,1.1846646070480347
1772649769982342400,8.51534228515625,0.1144518256187439,0.038239676505327225,1.3738279342651367
1772649769992383500,8.525383544921874,0.2573360204696655,-0.3645314872264862,1.3109699487686157
1772649770002424600,8.535424560546875,0.3083607852458954,-0.37536099553108215,0.9679559469223022
1772649770012466400,8.545466552734375,0.26069098711013794,-0.17696693539619446,0.5179096460342407
1772649770022507500,8.555507568359374,0.020186323672533035,-0.1540287584066391,0.1370212584733963
1772649770032548400,8.56554833984375,-0.2828505039215088,-0.33480730652809143,0.05470775067806244
1772649770042589400,8.57558935546875,-0.48641732335090637,-0.6150174736976624,0.15340079367160797
1772649770052630500,8.585630615234376,-0.4941183924674988,-0.8404220938682556,0.29395365715026855
1772649770062671400,8.59567138671875,-0.3604240119457245,-0.8053644895553589,0.3876167833805084
1772649770072712400,8.60571240234375,-0.152394637465477,-0.5766239762306213,0.47840234637260437
1772649770082753500,8.61575341796875,-0.017413312569260597,-0.32292670011520386,0.5724829435348511
1772649770092795400,8.62579541015625,0.057206060737371445,-0.1451236754655838,0.6871283054351807
1772649770102836500,8.63583642578125,0.07189138233661652,-0.04587936028838158,0.7688212990760803
1772649770112877300,8.645877197265625,0.020840980112552643,-0.0027609174139797688,0.7282930612564087
1772649770122918400,8.65591845703125,-0.008416162803769112,0.0407080352306366,0.615187406539917
1772649770132959500,8.66595947265625,0.007881583645939827,0.09003110975027084,0.5065852999687195
1772649770143000300,8.676000244140624,0.009359706193208694,0.11251281946897507,0.42418423295021057
1772649770153041400,8.68604150390625,0.017892207950353622,0.11691555380821228,0.3737812638282776
1772649770163082200,8.696082275390625,0.05379074066877365,0.10925892740488052,0.3492366075515747
1772649770173123300,8.706123291015626,0.13289062678813934,0.1114850640296936,0.3536345660686493
1772649770183165400,8.71616552734375,0.20757389068603516,0.11456723511219025,0.3726400136947632
1772649770193206500,8.72620654296875,0.206839919090271,0.09288191050291061,0.35686877369880676
1772649770203247600,8.73624755859375,0.14781300723552704,0.05881650373339653,0.2969611585140228
1772649770213288400,8.746288330078125,0.07481814920902252,0.008191408589482307,0.24004141986370087
1772649770223329500,8.75632958984375,0.017483826726675034,-0.010347451083362103,0.21038299798965454
1772649770233370600,8.76637060546875,-0.021748797968029976,-0.0005598022253252566,0.1887221783399582
1772649770243411500,8.776411376953124,-0.059777870774269104,0.027898574247956276,0.1495375782251358
1772649770253452500,8.78645263671875,-0.07592514902353287,0.06846889853477478,0.09810207784175873
1772649770263493600,8.79649365234375,-0.07896378636360168,0.09591048955917358,0.03776337578892708
1772649770273535500,8.806535400390626,-0.07864660024642944,0.1269264668226242,-0.025180432945489883
1772649770283576600,8.81657666015625,-0.08225789666175842,0.13284914195537567,-0.08413393050432205
1772649770293617400,8.826617431640624,-0.08248186856508255,0.10492856800556183,-0.13449828326702118
1772649770303658500,8.836658447265625,-0.07542609423398972,0.06210333853960037,-0.16992153227329254
1772649770313699600,8.846699462890625,-0.06994956731796265,0.024102427065372467,-0.1867460459470749
1772649770323740400,8.856740478515626,-0.05985255539417267,-0.002566684503108263,-0.17449533939361572
1772649770333781500,8.866781494140625,-0.04931682348251343,-0.016755206510424614,-0.14877212047576904
1772649770343822600,8.876822509765624,-0.040578849613666534,-0.02103540301322937,-0.12658779323101044
1772649770353863400,8.886863525390625,-0.026219619438052177,-0.018121371045708656,-0.10063395649194717
1772649770363905500,8.896905517578125,-0.01405244693160057,-0.014535661786794662,-0.0572463721036911
1772649770373946000,8.906946044921876,0.0008221064344979823,0.003952002618461847,-0.008948616683483124
1772649770383987200,8.9169873046875,-0.0013942893128842115,0.01643851026892662,0.05005376413464546
1772649770394028300,8.9270283203125,-0.06614212691783905,-0.02905280701816082,0.2960315942764282
1772649770404069000,8.937069091796875,-0.08860048651695251,-0.042536355555057526,0.27771079540252686
1772649770414110200,8.947110107421874,-0.08393915742635727,-0.0004235242959111929,0.0781092718243599
1772649770424151300,8.9571513671875,-0.0907561182975769,-0.01118076778948307,-0.08463370054960251
1772649770434192100,8.967192138671875,-0.08969111740589142,0.0019366324413567781,-0.17412950098514557
1772649770444233200,8.977233154296876,-0.07475422322750092,0.017268730327486992,-0.16953450441360474
1772649770454275000,8.987275146484375,-0.05384494736790657,-0.000023441622033715248,-0.04514038562774658
