time,seconds_elapsed,z,y,x
1772642709112291300,0.063291259765625,0.02431611061096191,-0.07081774954497813,0.005555149909108877
1772642709122333200,0.073333251953125,0.00019698387682437897,-0.07017535998821259,0.014496142864227294
1772642709132374300,0.083374267578125,-0.012975801429152488,-0.0706365477591753,0.026933161241561174
1772642709142416100,0.093416015625,-0.010242577072978019,-0.07923018858134746,0.02643397954776883
1772642709152457200,0.103457275390625,0.021007716715335845,-0.0648719928830862,0.04173354774937033
1772642709162499300,0.113499267578125,0.027680910868942737,-0.07480418883264064,0.028209026396274563
1772642709172540400,0.12354052734375,0.032010172244906425,-0.06330839682817459,0.02689209857881069
1772642709182582300,0.133582275390625,0.040545068617165086,-0.05207622419595718,0.02257131277024746
1772642709192623400,0.143623291015625,0.011791560080647467,-0.05880933184325695,0.018100304836034774
1772642709202665200,0.153665283203125,0.007922025170922279,-0.08276186983883381,0.01677826245203614
1772642709212706300,0.163706298828125,-0.0003121346890926361,-0.08923194263577461,0.01809811287894845
1772642709222748200,0.173748046875,0.006734861212968826,-0.07974047619104385,0.004026040645688772
1772642709232789200,0.183789306640625,0.019294483056664466,-0.07519231136739253,-0.004971212541311979
1772642709242831400,0.193831298828125,0.020324995148181913,-0.048938510692119595,-0.002800882764905691
1772642709252872400,0.20387255859375,0.025355975052714346,-0.04116495408117771,0.007710282116383313
1772642709262914300,0.213914306640625,0.01720423277914524,-0.034006314498186106,-0.003119739455729723
1772642709272955400,0.223955322265625,0.008085691300034522,-0.03914659999608993,-0.0011480009913444518
1772642709282997200,0.233997314453125,0.021077859342098236,-0.025994857478141783,0.009072218119353055
1772642709293038300,0.244038330078125,0.022865035019814968,-0.023660861572623253,-0.0035534546978771685
1772642709303080400,0.25408056640625,0.022687632626295088,-0.016956980019807815,-0.011012684662640094
1772642709313121300,0.264121337890625,0.028693010520935057,-0.025924714851379392,-0.023375030368566512
1772642709323162400,0.274162353515625,0.023107027082145213,-0.04368307438194752,-0.02053045459240675
1772642709333204200,0.284204345703125,-0.004865852470695972,-0.05734685807526111,-0.023769436513632534
1772642709343245300,0.294245361328125,0.0033551556468009946,-0.051340895658731456,-0.0229942143574357
1772642709353287400,0.304287353515625,0.0074687284454703325,-0.0650374125778675,-0.03242459826469421
1772642709363328500,0.31432861328125,0.004210603432357311,-0.055122167763113974,-0.034731413902342315
1772642709373370400,0.324370361328125,0.025010814876854418,-0.050744098809361454,-0.03277224265858531
1772642709383411500,0.334411376953125,0.024550796149671077,-0.0472562566936016,-0.02744491015598178
1772642709393453300,0.344453369140625,0.006506605415046215,-0.049395022287964815,-0.03255903829932213
1772642709403494400,0.354494384765625,0.00814940418601036,-0.058785366445779794,-0.04858195233941078
1772642709413536300,0.364536376953125,0.009607494039833546,-0.048124271699786184,-0.047246758212894195
1772642709423577300,0.374577392578125,0.015550035831332206,-0.0603407791942358,-0.03830824947580695
1772642709433619200,0.384619140625,0.0129448217689991,-0.05885843168199062,-0.04174421527385711
1772642709443660300,0.394660400390625,0.001781330458819866,-0.06055120707452297,-0.034438860696554184
1772642709453702400,0.404702392578125,0.021012100629508493,-0.05908464165329933,-0.0394420758113265
1772642709463743500,0.414743408203125,0.05102846870869398,-0.062245736032724375,-0.04784165536612272
1772642709473785300,0.424785400390625,0.0710477589085698,-0.055070729836821555,-0.05624474205225706
1772642709483826400,0.434826416015625,0.07002104620933532,-0.03199322111010551,-0.079583532063663
1772642709493868300,0.444868408203125,0.032841946893930433,-0.01618774921298027,-0.07768821983635425
1772642709503909400,0.454909423828125,0.025948972509801386,-0.01888648677766323,-0.06428206416592001
1772642709513951200,0.464951171875,0.03134206372499466,-0.025001754787564275,-0.06684373134747147
1772642709523992300,0.474992431640625,0.05123918884992599,-0.01085866314470768,-0.0740815736465156
1772642709534034200,0.4850341796875,0.041807343637943264,-0.0046247371912002564,-0.06452668657675385
1772642709544075300,0.4950751953125,0.04833469958007335,-0.007998013016581535,-0.05573781544342637
1772642709554117400,0.505117431640625,0.03507657407820224,-0.01497778890132904,-0.05688830065280199
1772642709564158500,0.515158447265625,0.032770050701498986,-0.026564181798696518,-0.04708148464858532
1772642709574200300,0.525200439453125,0.02772913392484188,-0.03463818266093731,-0.02801584191173315
1772642709584241400,0.535241455078125,0.016745675356686113,-0.053367433050274846,-0.03532733396887779
1772642709594283300,0.545283203125,0.03497399048656225,-0.04736030158996582,-0.025100246725976466
1772642709604324400,0.555324462890625,0.03577098608314991,-0.0237415255934,-0.007734539774805307
1772642709614366200,0.5653662109375,0.027095804457366465,-0.02978431288897991,-0.01511895093768835
1772642709624407300,0.5754072265625,0.03371609937995672,-0.02015431475639343,-0.0017199556604027748
1772642709634449200,0.58544921875,0.03346913888156414,-0.03655716802477836,0.010715163020789623
1772642709644490200,0.595490234375,0.016910802790522574,-0.06002747546136379,0.0003609422668814659
1772642709654532400,0.605532470703125,0.009662731358408927,-0.06376023224890232,-0.002809942854195833
1772642709664573400,0.615573486328125,-0.0010363573104143142,-0.0872761323928833,0.0076543141454458235
1772642709674615300,0.625615234375,0.009805354699492454,-0.10148702857494353,0.027604338501393794
1772642709684656400,0.635656494140625,-0.0095963881239295,-0.10740823531746864,0.04099412755891681
1772642709694698200,0.6456982421875,0.010798457390069962,-0.11118249315917492,0.04906052963659167
1772642709704739300,0.6557392578125,0.007167407411336898,-0.10188450345993041,0.04715732636377215
1772642709714781200,0.66578125,0.013969488641619681,-0.08955342967510223,0.054002369952946896
1772642709724822300,0.675822265625,0.01091477724611759,-0.08334697625041007,0.043099137014150614
1772642709734864400,0.685864501953125,0.018429682920873165,-0.0853635767698288,0.04844181321635842
1772642709744905700,0.69590576171875,0.01154313827753067,-0.08522036890685558,0.029795564935356376
1772642709754947600,0.705947509765625,0.023915713116526603,-0.06740881788432598,0.020862170764803886
1772642709764988700,0.71598876953125,0.040243455322086806,-0.045483986324071884,0.0022337504014372823
1772642709775030500,0.726030517578125,0.03779927704036236,-0.03185585846602917,-0.005329524459689855
1772642709785071600,0.736071533203125,0.05644114140719175,-0.033444004440307616,-0.019912322694063185
1772642709795113700,0.74611376953125,0.045886137384176254,-0.02437865445315838,-0.044710809994488954
1772642709805154800,0.75615478515625,0.026478549341857432,-0.018816928672790525,-0.039058921712636946
1772642709815196000,0.76619580078125,0.04400777629166841,-0.019917583391070366,-0.040586715801805257
1772642709825237800,0.77623779296875,0.051131052300333976,-0.014087562063336372,-0.03205561882182956
1772642709835279600,0.786279541015625,0.042678865775465966,-0.019613047486543654,-0.02469151979461312
1772642709845320700,0.79632080078125,0.05356850858032703,-0.02529869190752506,-0.016287702456116677
1772642709855361800,0.80636181640625,0.04210252719223499,-0.02605038705766201,-0.01964826493039727
1772642709865403600,0.816403564453125,0.04444441414326429,-0.03607026129066944,0.002013093388080597
1772642709875444700,0.82644482421875,0.04984744223058223,-0.043453357279300685,0.011173135921359061
1772642709885486800,0.83648681640625,0.04925415251255035,-0.0424462260633707,-0.004736819263547658
1772642709895528000,0.84652783203125,0.04271598291546106,-0.057358548513054844,-0.0022829963706433773
1772642709905569800,0.85656982421875,0.03675152155309915,-0.05888356612324714,0.0005627484492957592
1772642709915611000,0.86661083984375,0.03427256421893835,-0.05326689528524875,-0.004506079247593879
1772642709925652700,0.87665283203125,0.037354163621366024,-0.04320493547618389,-0.00045358898639678955
1772642709935693800,0.88669384765625,0.011599836900830269,-0.05267711269855499,0.002404430793225765
1772642709945735700,0.896735595703125,0.020730068817734718,-0.05524141022861004,0.01684621312171221
1772642709955776800,0.90677685546875,0.023874212062358856,-0.06270283215045928,0.015038871438801288
1772642709965818600,0.916818603515625,0.03418050202131271,-0.07930208477377891,0.01787351034283638
1772642709975859700,0.926859619140625,0.02692161693423986,-0.09529577271938323,0.03685468966662884
1772642709985901800,0.93690185546875,0.02324906590133905,-0.09835106863677501,0.033526422026753426
1772642709995943000,0.94694287109375,0.025686814442276953,-0.07930851451456546,0.011571341458708048
1772642710005984800,0.95698486328125,0.01992781252413988,-0.057232291784882545,0.002623480371385813
1772642710016025900,0.96702587890625,0.00144523037225008,-0.035651743617653844,0.01898249449804425
1772642710026067700,0.977067626953125,-0.003518529514968395,-0.03526420560479164,0.03394230935126543
1772642710036108800,0.98710888671875,-0.012668342915177344,-0.030512042641639706,0.040985651991516346
1772642710046150700,0.997150634765625,0.011049801802635192,-0.04385024764239788,0.04560673592090606
1772642710056191700,1.007191650390625,0.028928865103423594,-0.049180502754449844,0.05383914221525192
1772642710066233600,1.017233642578125,0.03370528572499752,-0.04603402142226696,0.0499674153484404
1772642710076274700,1.027274658203125,0.03767009770274162,-0.05721183351874351,0.05905263907983899
1772642710086316800,1.03731689453125,0.025293723471462724,-0.05936579668223858,0.05584376003593206
1772642710096358000,1.04735791015625,0.03633709553331137,-0.06570669014155864,0.03766922091990709
1772642710106399700,1.057399658203125,0.031070261046290397,-0.06933014133572578,0.024453034863620996
1772642710116440800,1.06744091796875,0.007047580423951149,-0.05808452470004558,0.007838292410224676
1772642710126482700,1.077482666015625,-0.00006429740786552428,-0.04096446307301521,0.003877718216180801
1772642710136523800,1.087523681640625,0.02337912202179432,-0.037542087408900256,0.003924041575938463
1772642710146565600,1.097565673828125,0.021229835033416748,-0.02978957358598709,0.0013245266020298003
1772642710156606700,1.107606689453125,0.02528729373067617,-0.03748305069804191,-0.0022885493285953996
1772642710166648600,1.117648681640625,0.033874504812061786,-0.060870356026291844,-0.023731442590802905
1772642710176689700,1.127689697265625,0.004645195457339287,-0.05265548538863658,-0.02594853411838412
1772642710186731800,1.137731689453125,0.021904665555059908,-0.05599076729118824,-0.05097893047854304
1772642710196772900,1.14777294921875,0.020469956576824187,-0.06236907015144825,-0.04294789197519421
1772642710206814700,1.157814697265625,0.020404197864234447,-0.05912029748857021,-0.0492693500816822
1772642710216855800,1.167855712890625,0.03278583279252052,-0.06302198110222816,-0.04470876416787505
1772642710226897700,1.177897705078125,0.04787000467777252,-0.03845043442547321,-0.03513414948433637
1772642710236938800,1.187938720703125,0.04394786279797554,-0.023963059389591215,-0.0416401703774929
1772642710246980600,1.197980712890625,0.049261751297116275,-0.010588614031672477,-0.05244301168173551
1772642710257021700,1.208021728515625,0.04790829086154699,-0.01764203967452049,-0.056780602494627234
1772642710267063600,1.2180634765625,0.03476970008611679,-0.040865678873658176,-0.052178515526652335
1772642710277104600,1.228104736328125,0.041247956189513206,-0.03736556179821491,-0.05154533218964934
1772642710287146800,1.238146728515625,0.040107846243679524,-0.04209902006089687,-0.050322512396425004
1772642710297187800,1.248187744140625,0.048183892932534216,-0.04033376395404339,-0.048901247421652076
1772642710307229700,1.258229736328125,0.04106792344748974,-0.04476736248731613,-0.05492036158069968
1772642710317270800,1.268270751953125,0.04017009782493114,-0.032680618852376934,-0.057076662831753486
1772642710327312600,1.278312744140625,0.04250584729611873,-0.0386468337804079,-0.03247545166909695
1772642710337353700,1.288353759765625,0.03771685945391655,-0.051235097196698186,-0.027152064689248797
1772642710347394800,1.298394775390625,0.02320727258622646,-0.04859714990854263,-0.013467968860268593
1772642710357436700,1.308436767578125,0.03858049054592848,-0.059985389885306356,0.000649549949914217
1772642710367477800,1.318477783203125,0.03591536298990249,-0.06506137797534466,-0.012181143920123576
1772642710377519900,1.328519775390625,0.029310557897388935,-0.06442249554991722,-0.007676818238198757
1772642710387561000,1.33856103515625,0.032359716334939004,-0.05540566087961197,0.00807400086224079
1772642710397602800,1.348602783203125,0.022333412361145017,-0.06630816316604614,0.008247165472060442
1772642710407644000,1.358643798828125,0.03964169003665447,-0.06810673702061176,0.0017211247041821478
1772642710417685800,1.368685791015625,0.017776479709148404,-0.05446165802776813,0.005549304690212011
1772642710427726800,1.378726806640625,0.022991876269876955,-0.06598375351727008,0.0027915304146707057
1772642710437768700,1.388768798828125,0.03506780624985695,-0.06888882730901241,-0.00041793315112590785
1772642710447809800,1.398809814453125,0.028343466430902478,-0.06315583661496639,-0.0067355918653309345
1772642710457851600,1.4088515625,0.03792845637798309,-0.04970189628005028,-0.014441197806596756
1772642710467892700,1.418892822265625,0.03971417075097561,-0.03329495135843753,-0.02547536364868283
1772642710477934800,1.428934814453125,0.027791677767038343,-0.035574586728215216,-0.014111673591285944
1772642710487976000,1.438975830078125,0.011813187390565872,-0.03932838630378246,-0.011729454629868269
1772642710498017800,1.449017822265625,0.00019873744249343872,-0.06072071842253208,-0.005508680418878794
1772642710508059000,1.459058837890625,0.017280220624804495,-0.0685626640945673,0.0026641046427190304
1772642710518100700,1.469100830078125,0.01791267330944538,-0.045642391756176945,0.005368249034881592
1772642710528141800,1.479141845703125,0.033240006300807,-0.0432043509542942,-0.0003546586565673351
1772642710538183700,1.48918359375,0.04862403791546821,-0.03968085300326347,0.0002463759765028953
1772642710548224800,1.499224853515625,0.041380058136582375,-0.023375614890456198,-0.005708002383261919
1772642710558266600,1.5092666015625,0.02200958723425865,-0.005426116701960563,-0.001412204885482788
1772642710568307700,1.5193076171875,-0.0029880759000778198,-0.019582067826390267,0.012201017664372921
1772642710578349800,1.529349853515625,-0.007072422604262828,-0.05147007499635219,0.005964607492834329
1772642710588391000,1.539390869140625,0.0031467735931277273,-0.06682195790708065,0.0025524609617888928
1772642710598432800,1.549432861328125,0.026158523607254028,-0.0645493367999792,0.001120674593001604
1772642710608473900,1.559473876953125,0.024040216279029844,-0.07205576690733433,-0.0016525895126163958
1772642710618515700,1.569515625,0.03036123599410057,-0.06564648438692093,0.012319237216562032
1772642710628556800,1.579556884765625,0.014714461790025233,-0.06327858621180057,-0.0005697627119719982
1772642710638598700,1.5895986328125,-0.0013569675669074057,-0.08790507794618606,0.00861468361020088
1772642710648639700,1.5996396484375,0.0006914893954992294,-0.09180909964740276,0.014809446597099303
1772642710658681600,1.609681640625,0.008095043650269508,-0.08374386661350726,0.009427169036865234
1772642710668722700,1.61972265625,0.028341128343343732,-0.05966565641164779,0.0330057591535151
1772642710678764800,1.629764892578125,0.030592414401471615,-0.04319266051650047,0.013558715883642434
1772642710688806000,1.639805908203125,0.03226239344030619,-0.026493454650044438,0.023951368951797485
1772642710698847700,1.64984765625,0.019160335282981396,-0.049525370669364924,0.015773615454137323
1772642710708888800,1.659888916015625,0.01297434012442827,-0.05579027628302574,-0.0021110008046031
1772642710718930700,1.6699306640625,0.012566051584482192,-0.0736035808712244,-0.006197539465874433
1772642710728971800,1.6799716796875,0.002259469364583492,-0.06719839000403881,-0.01932064041122794
1772642710739013600,1.690013671875,0.007006079369783401,-0.06727379332780838,-0.0059792205400764934
1772642710749055200,1.70005517578125,0.018738018217682836,-0.07392389886677264,-0.01971051651164889
1772642710759097000,1.71009716796875,0.007097849306464195,-0.05111760829687118,-0.01976268509030342
1772642710769138200,1.72013818359375,0.009693711018562316,-0.06878244432508945,-0.01984597945958376
1772642710779180000,1.730179931640625,0.02311374908387661,-0.059655135017633434,-0.023308687134087083
1772642710789221000,1.74022119140625,0.022530980759859084,-0.06374971085488795,-0.003311316505074501
1772642710799263000,1.750262939453125,0.022769173429906368,-0.031245617613196372,-0.00676540248170495
1772642710809304000,1.760303955078125,0.026907588408887385,-0.022455577436089516,-0.00974631798863411
1772642710819346000,1.770345947265625,0.024156828396022317,-0.01106558389365673,-0.019038608599454162
1772642710829387000,1.780386962890625,0.01816021832972765,-0.04031272116601467,-0.031882600342482324
1772642710839427800,1.790427734375,0.022651684530079364,-0.04158405627608299,-0.04003229678943753
1772642710849470200,1.80047021484375,0.010704933887720107,-0.06202127962708473,-0.03833133809044957
1772642710859511000,1.810510986328125,-0.00629851562231779,-0.09019465018808841,-0.04525923765748739
1772642710869553200,1.82055322265625,-0.001900280663371086,-0.0748059423983097,-0.04530599940866232
1772642710879594000,1.830593994140625,0.007694061633944511,-0.06021744507551193,-0.04499313406720757
1772642710889636000,1.840635986328125,0.002551145787537098,-0.05037409645318985,-0.03788374045342207
1772642710899677000,1.850677001953125,0.018729250389337537,-0.043699440994858736,-0.036696430364996195
1772642710909719000,1.860718994140625,0.036117607563734055,-0.04949672909677028,-0.013585019368678331
1772642710919760000,1.870759765625,0.015813655203580856,-0.06642389850020408,0.0034394729293882845
1772642710929802200,1.88080224609375,0.02356032380759716,-0.08399521102607249,0.009026187020540238
1772642710939843000,1.890843017578125,0.019929858350753782,-0.06497603777945041,0.01888458708152175
1772642710949885200,1.90088525390625,0.021654782447218895,-0.05851297924518585,0.01252235857322812
1772642710959926000,1.910926025390625,0.007614566656947135,-0.04912029699981212,0.02690554258227348
1772642710969968000,1.920968017578125,0.005334931287169456,-0.05719079073071479,0.017430296619981526
1772642710980009000,1.931009033203125,0.010370002844929695,-0.05056874224245548,0.022420944514125584
1772642710990051000,1.941051025390625,-0.008402502164244652,-0.05022445884943008,0.026753274630010128
1772642711000092000,1.951091796875,-0.01438917535841465,-0.06817746416926383,0.02919906034693122
1772642711010134000,1.961134033203125,0.0024734043762087822,-0.07548749492168426,0.0148357500821352
1772642711020175000,1.971175048828125,0.001740121665596962,-0.08143091349601746,0.01993862617909908
1772642711030217200,1.98121728515625,-0.004153028026223182,-0.09281564634144306,0.025493483827263116
1772642711040258000,1.991258056640625,-0.009643149875104427,-0.09481471120417118,0.038962621731311084
1772642711050300200,2.001300048828125,-0.012844284003973007,-0.09957388842999934,0.02819894339367747
1772642711060341000,2.011341064453125,-0.007038520334661007,-0.07822597997486591,0.012407207760959863
1772642711070383000,2.021383056640625,0.003344341991841793,-0.06372808354496956,-0.006088526133447885
1772642711080424200,2.031424072265625,0.008232406294345854,-0.05698971520066261,-0.005168196418136358
1772642711090466000,2.041466064453125,0.011501052701473235,-0.05893383500576019,-0.002374766307324171
1772642711100507100,2.051507080078125,0.00916764131784439,-0.05601999338567257,-0.009370324283093213
1772642711110549000,2.061549072265625,-0.005186170466244221,-0.03602116145193576,-0.007784370265901088
1772642711120590000,2.071590087890625,0.007164484801888466,-0.03366553823649883,-0.0018054419867694377
1772642711130632200,2.081632080078125,0.021591069561243056,-0.024072949504852295,-0.017855974686145783
1772642711140673300,2.09167333984375,0.04700725036859512,-0.01106909102499485,-0.026659897258132694
1772642711150715100,2.101715087890625,0.04835398880243301,-0.023037761238217352,-0.03604658815413713
1772642711160756200,2.111756103515625,0.038269524900615214,-0.032657237976789474,-0.015896657311916352
1772642711170798000,2.121798095703125,0.016569149746000766,-0.044106268230080604,-0.010412380681931972
1772642711180839200,2.131839111328125,0.003967150065302848,-0.06282149009406567,-0.011256722551584244
1772642711190881000,2.141881103515625,0.005998363631963729,-0.06908347309827804,-0.010614040733873844
1772642711200922000,2.151922119140625,0.024127310040593146,-0.06761866124272346,-0.023107465473562478
1772642711210964000,2.1619638671875,0.042165071034431456,-0.03701192605495453,-0.036775340820103884
1772642711221005000,2.172005126953125,0.03903524857610464,-0.016056231787800787,-0.026608459331840275
1772642711231047200,2.182047119140625,0.037725627282261844,-0.003996376159787178,-0.0220868902541697
1772642711241088300,2.192088134765625,0.019939795222878455,-0.01524140827357769,-0.008234890512377023
1772642711251130000,2.202130126953125,0.010614917516708374,-0.030180034208297728,0.0005804302364587784
1772642711261171200,2.212171142578125,0.017485387808084486,-0.05705284356474876,0.012413783632218837
1772642711271213000,2.222213134765625,0.03075812635719776,-0.07248948214948177,0.032132191189378496
1772642711281254100,2.232254150390625,0.029189854127168655,-0.09059154055118561,0.027933132064342496
1772642711291296000,2.2422958984375,0.04701104976087808,-0.10182195961773395,0.02748494990542531
1772642711301337000,2.252337158203125,0.052503801958262916,-0.09340309084057807,0.00324643457531929
1772642711311379000,2.26237890625,0.061008887714147565,-0.06524082619547844,0.007376520117372274
1772642711321420000,2.272419921875,0.031131343583762645,-0.053339960521459576,0.02573635267242789
1772642711331462100,2.282462158203125,0.007349193719029426,-0.06434475413858891,0.011907295414805412
1772642711341503200,2.292503173828125,-0.0018435820400714872,-0.06484744296371936,0.008181699020415545
1772642711351545000,2.302545166015625,0.05756342343538999,-0.051557168757915495,0.005336392591893673
1772642711361586200,2.312586181640625,0.02114303353279829,-0.025217443364858625,0.014473931032419203
1772642711371627000,2.322626953125,0.041513621388375756,-0.031080782440304756,-0.009283376652002334
1772642711381669000,2.332669189453125,0.045939621137082574,-0.016353168907761572,-0.025926322286576032
1772642711391710000,2.3427099609375,0.036165538358688354,-0.02523556354343891,-0.04600537984967232
1772642711401752000,2.352751953125,0.03539689207375049,-0.01906418143212795,-0.04108472845181822
1772642711411793000,2.36279296875,0.035952772390842436,-0.02793780823945999,-0.043767976186424494
1772642711421835000,2.3728349609375,0.034441783306002616,-0.03977203841805458,-0.022929186297208068
1772642711431875800,2.382875732421875,0.024983342348039148,-0.040890813314914704,-0.03875423967763781
1772642711441918200,2.392918212890625,0.028486089771986006,-0.04873217446506023,-0.027076807495951653
1772642711451959000,2.402958984375,0.04117956712841987,-0.02948153055012226,-0.041645138813555235
1772642711462001200,2.413001220703125,0.04954641345739364,-0.03177987062036991,-0.042715544524043796
1772642711472042000,2.4230419921875,0.06271949102431536,-0.030167174726724623,-0.04790595277398824
1772642711482084000,2.433083984375,0.05600508807748556,-0.044537645384669304,-0.041107086414098735
1772642711492125000,2.443125,0.042264732016623015,-0.05336860209405422,-0.040142625296115876
1772642711502167000,2.4531669921875,0.021376257766783237,-0.06042611939013004,-0.04467047798410058
1772642711512208000,2.463207763671875,0.018366846817731857,-0.0503892940223217,-0.034515725325047965
1772642711522250200,2.473250244140625,0.01730447828322649,-0.048155251359939574,-0.022799276307225225
1772642711532291000,2.483291015625,0.04441372674405575,-0.04968202253580093,-0.0029022973127663136
1772642711542333200,2.493333251953125,0.05219225179105997,-0.04711304883062839,0.007211831074953079
1772642711552374000,2.5033740234375,0.05311784220337867,-0.03826572550833225,-0.002032528740912676
1772642711562416000,2.513416015625,0.03094984953701496,-0.04249298781454563,-0.0065092357635498045
1772642711572457000,2.52345703125,0.03794453072994947,-0.060440732437372205,-0.0021473872922360897
1772642711582499000,2.5334990234375,0.03904430866539478,-0.06302256562411784,-0.003479658809304237
1772642711592540000,2.543539794921875,0.03220744838267565,-0.051560675889253615,0.004866729253530502
1772642711602582000,2.55358203125,0.036620296388864514,-0.045402737781405446,0.014689911870658396
1772642711612623000,2.563623046875,0.04970014271438122,-0.04228606706559658,-0.0029265549711883065
1772642711622665200,2.573665283203125,0.04835311201959848,-0.0405728334069252,-0.01570332669690251
1772642711632706000,2.5837060546875,0.05392506693303585,-0.019029694640636443,-0.025764555853605268
1772642711642748200,2.593748046875,0.048989364096522325,-0.022549100938439367,-0.020743805082142353
1772642711652789000,2.6037890625,0.04077420119792223,-0.03353752794265747,-0.009407733684033154
1772642711662831000,2.6138310546875,0.023777765950560567,-0.022816811963915825,0.0034460488006472587
1772642711672872200,2.6238720703125,0.021563597032427786,-0.04174363075196743,0.013351649004220962
1772642711682914000,2.6339140625,0.0173977095246315,-0.056084875315427773,0.029677199252694842
1772642711692955100,2.643955078125,0.029712708957493304,-0.06601531769931315,0.022838000882416963
1772642711702997000,2.6539970703125,0.04975567229390144,-0.07059855383634567,0.021197832459956406
1772642711713038000,2.6640380859375,0.05038695593476295,-0.0555740031838417,-0.0007383972771465778
1772642711723080200,2.674080078125,0.03331803997308016,-0.04436462690532207,0.0024085224464535713
1772642711733121300,2.684121337890625,0.020107845266163347,-0.04878010526001453,-0.006653466539829969
1772642711743162600,2.69416259765625,0.008152619056403637,-0.054849196040630335,-0.009718991590291262
1772642711753203700,2.70420361328125,-0.0012988076388835907,-0.06950842051208019,-0.0010012859970331192
1772642711763245800,2.714245849609375,0.01434387491196394,-0.06336217284202575,0.0002726794615387916
1772642711773287000,2.724286865234375,0.01878887162208557,-0.06341594885587692,0.0024010697923600673
1772642711783328800,2.734328857421875,0.026245617368817326,-0.038486090260744094,0.007293225748091936
1772642711793369900,2.744369873046875,0.036598669078946114,-0.04265957655310631,-0.008548924897611141
1772642711803411700,2.75441162109375,0.02571399471014738,-0.04474398161172866,-0.011399930414557457
1772642711813452800,2.764452880859375,0.013225976797938346,-0.03339081294834614,-0.014838964952528476
1772642711823494700,2.77449462890625,-0.00862783535271883,-0.04267945029735565,-0.010571370635926723
1772642711833535700,2.78453564453125,0.005468786799907684,-0.052424599242210386,-0.007383388249576091
1772642711843577600,2.79457763671875,0.03382072879821062,-0.04641863682568073,-0.010970014564692973
1772642711853618700,2.80461865234375,0.04463467601835727,-0.04436404238343238,-0.010689882449060677
1772642711863660800,2.814660888671875,0.0459188706099987,-0.037707507103681565,-0.027096973501145837
1772642711873702000,2.824701904296875,0.030942543013393876,-0.021833646145462987,-0.022357085497677325
1772642711883743700,2.83474365234375,0.02204056689441204,-0.032817981496453284,-0.01890942926183343
1772642711893784800,2.844784912109375,0.00774549956023693,-0.04360299488306045,-0.0321976576410234
1772642711903826700,2.85482666015625,0.01449409703761339,-0.04158873245120048,-0.009990063616633415
1772642711913867800,2.86486767578125,0.0151145670235157,-0.04770400046110153,-0.014521131175011396
1772642711923909600,2.87490966796875,0.013269231417775154,-0.04924538468420505,-0.017942483925819395
1772642711933950700,2.88495068359375,-0.015076280839741229,-0.05195639720857143,-0.008217939377576111
1772642711943991600,2.894991455078125,-0.01374824710637331,-0.03783960905075073,0.0009933949515223502
1772642711954033700,2.90503369140625,-0.0016539046868681907,-0.05605214208960533,0.0054603112325072286
1772642711964074500,2.915074462890625,0.006654489453136921,-0.05780395419299602,0.00654343029409647
1772642711974116900,2.925116943359375,0.001606266152858734,-0.06342120955288409,0.019823767627775667
1772642711984157700,2.93515771484375,0.01575812562406063,-0.07507482246756553,0.02420300562530756
1772642711994199800,2.94519970703125,0.007291326051950454,-0.08081541194617747,0.029389760613441465
1772642712004240600,2.95524072265625,0.001298223116993904,-0.09253449131250381,0.038289252514392136
1772642712014282800,2.96528271484375,0.013296703946590422,-0.09335925169885158,0.020921791997551918
1772642712024323600,2.975323486328125,0.019691957941651343,-0.07601999436318874,0.018351356987655162
1772642712034365700,2.98536572265625,0.008072247296571732,-0.06581891834437847,0.01751402938067913
1772642712044406500,2.995406494140625,-0.012248363937437534,-0.06900105551183223,0.026729163102060555
1772642712054449000,3.005448974609375,0.011593991681933402,-0.0559358222335577,0.01014408513456583
1772642712064489700,3.01548974609375,0.028721067571640013,-0.042541503131389616,0.0027022446960210797
1772642712074531800,3.02553173828125,0.03311082696318626,-0.03412263435423374,-0.004273877926915884
1772642712084572700,3.03557275390625,0.02741933732330799,-0.03386076854765415,-0.01466536195129156
1772642712094614800,3.04561474609375,0.02649696178138256,-0.020723639076948165,-0.024086247377842665
1772642712104655600,3.055655517578125,0.035327918490767475,-0.019165888240933418,-0.03846943138688803
1772642712114697700,3.06569775390625,0.035708442240953445,-0.025437808117270467,-0.04145268498137593
1772642712124738800,3.07573876953125,0.038214872103929515,-0.026612112593650816,-0.035600159560889
1772642712134780700,3.08578076171875,0.04063420820534229,-0.034575638818740845,-0.0767353030256927
1772642712144821800,3.09582177734375,0.05882745202183723,-0.014090484672784804,-0.07952844087556005
1772642712154863900,3.10586376953125,0.061950552478432654,-0.011706219884753226,-0.10390183463171124
1772642712164905000,3.115905029296875,0.05305208349078893,-0.03498948031663895,-0.08357771626636386
1772642712174946800,3.12594677734375,0.03177928609848022,-0.03216448602378368,-0.08051628286913037
1772642712184988000,3.13598779296875,0.013071078497171401,-0.05647825854718685,-0.052272769681364295
1772642712195029800,3.14602978515625,0.04060089045763016,-0.06592413228452206,-0.020203706856071948
1772642712205070800,3.15607080078125,0.038539866274595255,-0.06209551390707493,-0.00733355775848031
1772642712215112700,3.16611279296875,0.045670448806881904,-0.050692076361179346,-0.010478285524994134
1772642712225153800,3.17615380859375,0.04498042071610689,-0.03531681257486343,-0.011833791787177323
1772642712235195600,3.186195556640625,0.032084991046786304,-0.03274550078213215,-0.014771160413324833
1772642712245236700,3.19623681640625,0.03712590782344341,-0.028708792611956593,-0.025602058768272398
1772642712255278800,3.20627880859375,0.028650340422987936,-0.037333997616171836,-0.0055756081752479075
1772642712265320000,3.21631982421875,0.019175240591168402,-0.039463410860300065,-0.00509293922483921
1772642712275361800,3.22636181640625,0.025030980882048606,-0.053956046593189234,-0.008974749094247817
1772642712285403000,3.23640283203125,0.03912497268617153,-0.05642974323034286,-0.0028274785108864304
1772642712295444700,3.24644482421875,0.036813773134350775,-0.06007423721253872,0.006085019002109766
1772642712305485800,3.25648583984375,0.05948328558206558,-0.06093465343415737,0.00019727613776922225
1772642712315527700,3.266527587890625,0.038084523722529406,-0.07259469608962535,0.019748802695423364
1772642712325568800,3.27656884765625,0.020380232466757298,-0.06394201855659484,0.02823781409934163
1772642712335610600,3.286610595703125,0.02875818471163511,-0.06972469361126422,0.0225891406878829
1772642712345651700,3.296651611328125,0.019962007054686544,-0.05854220533967018,0.040019437307864426
1772642712355693800,3.30669384765625,0.018891162952780722,-0.05185059874653816,0.02682897021472454
1772642712365735000,3.31673486328125,0.007854512892663479,-0.07163432662487029,0.017537556386739015
1772642712375776800,3.32677685546875,0.017929916705191135,-0.07552139719128609,0.010130495000630617
1772642712385817900,3.33681787109375,0.020787351962924003,-0.06244213538765907,-0.00159881349876523
1772642712395859700,3.346859619140625,0.02939122191816568,-0.058768415310978886,-0.006689268505573272
1772642712405900800,3.35690087890625,0.014768822325766085,-0.04067921639084816,0.0050797874823212625
1772642712415942700,3.366942626953125,0.028301380854845046,-0.04574292952120304,-0.012370090620964764
1772642712425983700,3.376983642578125,0.019927228002250195,-0.045780923444032666,-0.006048778644949198
1772642712436025600,3.387025634765625,0.018380875343084333,-0.044267011749744414,-0.025508389135450123
1772642712446066700,3.397066650390625,0.02238601933121681,-0.03278758635818958,-0.03183101628571749
1772642712456108800,3.40710888671875,0.026264906591176983,-0.011856442010402679,-0.03854498084113002
1772642712466150000,3.41714990234375,0.02197860757410526,-0.02595803259909153,-0.03859232711419463
1772642712476191700,3.427191650390625,0.025383447581529616,-0.027788170635700223,-0.04820288989394903
1772642712486232800,3.43723291015625,0.019321955585479736,-0.02652268074452877,-0.045145986541360615
1772642712496274700,3.447274658203125,0.006819324626028537,-0.03348199836313724,-0.04077449345886707
1772642712506315800,3.457315673828125,0.03916764278411865,-0.04598667514920234,-0.026268267592042684
1772642712516357600,3.467357666015625,0.05418401013016701,-0.052443303942680354,-0.03259951644018292
1772642712526398700,3.477398681640625,0.034978082139790055,-0.05068506209850311,-0.02155950537919998
1772642712536440600,3.487440673828125,0.026065292365849018,-0.040488077732920645,-0.005838350764662027
1772642712546482000,3.49748193359375,0.029653087724745272,-0.03834346691966056,-0.008675181625783443
1772642712556523800,3.507523681640625,0.005450374360382556,-0.03784720783531666,-0.000789542942494154
1772642712566564900,3.51756494140625,0.010308043524622917,-0.04502046046555042,-0.009250935687124729
1772642712576606700,3.527606689453125,0.013734510841965674,-0.06673311057984828,-0.0008371814765036105
1772642712586647800,3.537647705078125,0.014386252748966216,-0.06812953337430953,-0.01273614745438099
1772642712596689700,3.547689697265625,0.011769055987894534,-0.055232642400264736,-0.0024244506679475305
1772642712606730800,3.557730712890625,0.004763268879055977,-0.06773381205499172,-0.02013283357694745
1772642712616772600,3.567772705078125,-0.003285597541928291,-0.0720826549142599,-0.012049626494944095
1772642712626813700,3.577813720703125,-0.0037114217385649678,-0.08005787157714367,-0.004075140484422445
1772642712636855800,3.587855712890625,-0.017339549596607683,-0.08745499609112739,0.0027032676093280313
1772642712646897000,3.59789697265625,-0.008394903379678726,-0.0946568902939558,0.029474224026501177
1772642712656938800,3.607938720703125,-0.003942015624046325,-0.09815934545695781,0.021745383340120314
1772642712666979800,3.617979736328125,0.03066314155012369,-0.07609422864317894,0.024454057776927947
1772642712677021700,3.628021728515625,0.031079321135580536,-0.047830841711163516,0.0019580021999776364
1772642712687062800,3.638062744140625,0.03464168979227543,-0.013863105657696722,0.004350888685882091
1772642712697104600,3.648104736328125,0.015207506003975867,-0.01137888762652874,-0.008039075679332017
1772642712707145700,3.658145751953125,0.013306348557770251,-0.018447510838508607,-0.00972863620147109
1772642712717187600,3.6681875,0.016083412055671212,-0.019018004202842713,-0.011542553755640983
1772642712727228700,3.678228759765625,0.01587882939428091,-0.04349427381157875,-0.01817293168082833
1772642712737270800,3.688270751953125,0.02616232299953699,-0.045774493703246114,-0.021455460482835767
1772642712747311600,3.6983115234375,0.030272680927813052,-0.050128012737631795,-0.014603402630984781
1772642712757353500,3.708353515625,0.039727322493493554,-0.07152151390016079,-0.012726064451783895
1772642712767394600,3.71839453125,0.04169774578362703,-0.053992286950349806,-0.03862301451340318
1772642712777436400,3.7284365234375,0.03485445576012134,-0.04687807103097438,-0.018149989196658133
1772642712787477500,3.7384775390625,0.023385844023525712,-0.04906710550785064,-0.016957272280752656
1772642712797519600,3.74851953125,0.02944967410713434,-0.04992050746679306,-0.018651655108481643
1772642712807560700,3.758560791015625,0.0037377252236008643,-0.051154433175921436,-0.011910364154726266
1772642712817602600,3.7686025390625,0.03642272799015045,-0.03930442090630531,-0.02211962347999215
1772642712827643600,3.7786435546875,0.0519838697373867,-0.03471533955037594,-0.016451660846173763
1772642712837685500,3.788685546875,0.048559740507602686,-0.034142508098483085,-0.01596767672151327
1772642712847726600,3.7987265625,0.04528524888157844,-0.03041559652984142,-0.011811579955369234
1772642712857768400,3.8087685546875,0.034650457620620724,-0.03301379632949829,-0.013277414724230765
1772642712867809500,3.8188095703125,0.02968494416773319,-0.039996494823694224,-0.01596738446056843
1772642712877851400,3.828851318359375,0.04204582856893539,-0.0412567240178585,-0.017875848430395126
1772642712887892700,3.838892822265625,0.03900514569878578,-0.04514145649671554,-0.024497166266292333
1772642712897934600,3.8489345703125,0.03337561537921428,-0.04333060768246651,-0.011708265711367129
1772642712907975700,3.8589755859375,0.04863718965798616,-0.05611234784424304,-0.01579801924303174
1772642712918017500,3.869017578125,0.03571779459118843,-0.06942424935996531,-0.005315495934337377
1772642712928058600,3.87905859375,0.05327361728698015,-0.05521452222168445,0.004178893119841814
1772642712938100500,3.8891005859375,0.03901829744130373,-0.055744683575630186,0.014676175606250763
1772642712948141600,3.8991416015625,0.021446984915435313,-0.05702712460160255,0.01796571867093444
1772642712958183400,3.909183349609375,0.033470307925343515,-0.026667642173171042,0.022592501688748597
1772642712968224500,3.919224609375,0.03052490212321281,-0.015045008918642997,0.0009539397239685058
1772642712978266600,3.9292666015625,0.025226795715093613,-0.03339373555779457,0.0022986323311924932
1772642712988307700,3.9393076171875,0.030030396604537962,-0.05141045376360416,0.004360094905644655
1772642712998349600,3.949349609375,0.01400222186744213,-0.07135609420537949,0.004774667055904865
1772642713008390700,3.959390625,0.00798076962083578,-0.07589198406934737,0.01005889106914401
1772642713018432500,3.9694326171875,0.01307458562850952,-0.09431669855415821,0.0070462652496993535
1772642713028473600,3.9794736328125,0.009329553881287575,-0.09044657912254334,0.012849398570507764
1772642713038515500,3.989515380859375,0.031042788517475127,-0.0636211160391569,0.0045341362982988355
1772642713048556500,3.999556640625,0.03181377288997173,-0.04352759155929088,0.005796995840966701
1772642713058598400,4.009598388671875,0.0454679119721055,-0.027252748584747313,-0.00004427753314375877
1772642713068639500,4.019639404296875,0.03093903588205576,-0.02850596351623535,0.009433452647179364
1772642713078681600,4.029681640625,0.023795301607251167,-0.003382628175616264,0.0008180383846163749
1772642713088722700,4.03972265625,0.023520284058153627,-0.0021855273455381394,0.000026741876453161238
1772642713098764500,4.0497646484375,0.03728080612421036,-0.030671617117524145,-0.009301204569637775
1772642713108805600,4.0598056640625,0.02723053675293922,-0.039815293037891386,-0.009160042533278465
1772642713118847500,4.069847412109375,0.02610913150757551,-0.04987257667183876,-0.01575637205839157
1772642713128888600,4.079888671875,0.032035014425218104,-0.056982116416096684,-0.015938596757501363
1772642713138930400,4.089930419921875,0.05230009607970714,-0.04204349048137664,-0.02693637611195445
1772642713148971500,4.099971435546875,0.04916355161964893,-0.02404313888847828,-0.036488194441795345
1772642713159013600,4.110013671875,0.023821020570397377,-0.03487725211381912,-0.029349866994470356
1772642713169054500,4.120054443359375,0.02492109076678753,-0.027271453285217285,-0.029529753606021402
1772642713179096600,4.1300966796875,0.036546354369819165,-0.04054360731244087,-0.019736381605267524
1772642713189137700,4.1401376953125,0.025127719254791736,-0.0638613545358181,-0.03587240063101053
1772642713199179800,4.1501796875,0.03099778033196926,-0.0483066425293684,-0.022925533035397527
1772642713209220600,4.160220703125,0.031468904975056645,-0.05147241308391094,-0.017849252684414386
1772642713219262700,4.1702626953125,0.021710019765794276,-0.04786825111210346,-0.008805530007183551
1772642713229303600,4.180303466796875,0.02567570852637291,-0.05750526350736618,-0.0090104049295187
1772642713239345700,4.190345703125,0.030333471204340455,-0.06534370204806328,-0.016533493910729884
1772642713249386500,4.200386474609375,0.021120529440045357,-0.06186228967308998,-0.01618687243014574
1772642713259428600,4.2104287109375,0.02421644962877035,-0.073259297478199,-0.011814648695290088
1772642713269469400,4.220469482421875,0.016165829642117022,-0.07854279083907603,-0.016592384491115806
1772642713279511800,4.23051171875,0.008873626807332039,-0.07711831099390982,-0.00369563964754343
1772642713289552600,4.240552734375,0.010470248349010943,-0.0804442405462265,-0.013779080636054276
1772642713299594800,4.2505947265625,-0.00128010293841362,-0.06848258459568023,-0.006860825680196285
1772642713309635600,4.260635498046875,0.007436287480592727,-0.0774029731541872,0.008384381985664368
1772642713319677700,4.270677734375,0.008866612544655799,-0.066871642267704,-0.006246639304608106
1772642713329718500,4.280718505859375,-0.003304302242398262,-0.07640811689794064,-0.003253010446578264
1772642713339760600,4.2907607421875,0.005990764847397804,-0.07371113289892674,0.007271598438173532
1772642713349801500,4.300801513671875,0.01397474933862686,-0.06704933692216873,-0.005059621477127075
1772642713359843600,4.310843505859375,0.037324937526881694,-0.05467793112695217,-0.016412936270982025
1772642713369884400,4.320884521484375,0.01255962184369564,-0.04063187011778355,-0.014171440954506396
1772642713379926800,4.3309267578125,-0.008272446043789386,-0.04966507140100002,-0.02077288504615426
1772642713389967600,4.340967529296875,-0.001476210032403469,-0.0403594829171896,0.0006387362949550152
1772642713400009700,4.351009765625,0.02733604295402765,-0.04954992058873176,-0.0046435880221426485
1772642713410051600,4.361051513671875,0.05514233376830816,-0.041433249628543854,-0.008906798424571752
1772642713420092700,4.3710927734375,-0.014894786792993544,-0.03530746022462845,0.004826397243142128
1772642713430134500,4.381134521484375,0.019615093313157556,-0.019593758264183997,0.0037292496562004087
1772642713440175600,4.391175537109375,0.011456921298801898,-0.03708674485683441,-0.0016761165186762808
1772642713450217500,4.401217529296875,0.012926993851363658,-0.0372615169018507,0.008412877427786588
1772642713460258800,4.4112587890625,-0.004020926079154014,-0.0706014764457941,0.012033259882032871
1772642713470300700,4.42130078125,-0.010344868403673171,-0.06832184107601642,0.01412818633466959
1772642713480341800,4.431341796875,-0.003626666064560413,-0.07444236978292465,-0.002759235580265522
1772642713490383600,4.441383544921875,-0.0177636202275753,-0.07845861968696118,-0.006402560518682003
1772642713500424700,4.4514248046875,-0.0014949147328734396,-0.0699351214915514,-0.008912205252051353
1772642713510466600,4.461466552734375,-0.0005544190123677253,-0.06876607771217823,-0.0073855802066624164
1772642713520507600,4.471507568359375,-0.005952770924568176,-0.07120236494839191,0.0014484452426433562
1772642713530549500,4.481549560546875,0.017079729616641996,-0.056634325891733166,0.03003989508524537
1772642713540590600,4.491590576171875,0.024089900639653203,-0.04370820882320404,0.01639013991728425
1772642713550632700,4.5016328125,0.028169278907775878,-0.04608370578289032,0.0038296412907540796
1772642713560673800,4.511673828125,0.03164133893251419,-0.037031215277314185,-0.003973725936561823
1772642713570715600,4.521715576171875,0.030377018085122106,-0.02069032132923603,-0.00554740499407053
1772642713580756700,4.5317568359375,0.020588906781375406,-0.025941665986180303,-0.010093962382525206
1772642713590798600,4.541798583984375,0.014026479525864123,-0.026216975796222685,-0.020231910037249324
1772642713600839700,4.551839599609375,0.013574059583246707,-0.02580196525454521,-0.029444559540599585
1772642713610881500,4.561881591796875,0.01891571287214756,-0.020986673927307128,-0.041921909928321836
1772642713620922600,4.571922607421875,0.02085807911157608,-0.020568156254291533,-0.04286781247630715
1772642713630964500,4.581964599609375,0.023280630083382128,-0.038490766435861586,-0.04425970522612333
1772642713641005600,4.592005615234375,0.045072482913732524,-0.04493512026965618,-0.05255465536266565
1772642713651047700,4.602047607421875,0.025988135476410386,-0.04778291091620922,-0.05133329687416553
1772642713661088800,4.6120888671875,0.03288987768888473,-0.062087330600619314,-0.03611190847530961
1772642713671130600,4.622130615234375,0.030658173114061354,-0.062353872582316394,-0.03750292444229126
1772642713681171700,4.632171630859375,0.019821137279272077,-0.05322773231863975,-0.034358488936722276
1772642713691213600,4.642213623046875,0.03969166665822267,-0.02722059988081455,-0.03743380472883582
1772642713701254700,4.652254638671875,0.03852349966168404,-0.010467033478617667,-0.030952918276935814
1772642713711296500,4.662296630859375,0.036280104649066926,-0.018834464329481125,-0.02568213826715946
1772642713721338600,4.672338623046875,0.032196634727716444,-0.01644610788822174,-0.024890695628523824
1772642713731379500,4.68237939453125,0.027163316735625265,-0.04049743008315563,-0.01608136622905731
1772642713741421800,4.692421875,0.030075989311933515,-0.041725510573387144,-0.011464812344312666
1772642713751462100,4.702462158203125,0.04489975669533014,-0.03717033148705959,-0.0020412965692579747
1772642713761504500,4.71250439453125,0.053046822793781756,-0.0372831442117691,-0.012091419810056686
1772642713771545300,4.72254541015625,0.058174541071057316,-0.05511515350043773,-0.015708733524382113
1772642713781587500,4.73258740234375,0.055739422878623004,-0.051982700693607324,-0.007451192788779735
1772642713791628300,4.742628173828125,0.035842590014636515,-0.06003039807081222,-0.0030848142728209494
1772642713801670400,4.75267041015625,0.03282031958401203,-0.07318447867631912,-0.012593962504714727
1772642713811711200,4.762711181640625,0.026435586982965466,-0.07431026783585548,-0.020229425819218157
1772642713821753300,4.77275341796875,0.030519056904315948,-0.06562076542377472,-0.019904431648552417
1772642713831794200,4.782794189453125,0.024498189179599283,-0.06565291412770748,-0.003936170405149459
1772642713841836300,4.792836181640625,0.03259527865648269,-0.04632686688899994,0.007735416557639836
1772642713851877000,4.802877197265625,0.041944706282019614,-0.051584056764841076,0.007335165193676948
1772642713861919500,4.81291943359375,0.04014496338367462,-0.04750117136538028,0.011614596078544854
1772642713871960300,4.822960205078125,0.055309507028758524,-0.05311258150637149,0.012829232565313577
1772642713882002400,4.83300244140625,0.04436842629760503,-0.04637772029340267,0.004198912994563579
1772642713892043300,4.843043212890625,0.041432665106654165,-0.04122457531392574,-0.010633037695288658
1772642713902085400,4.85308544921875,0.044187516772747036,-0.047425183519721026,-0.012990560606867074
1772642713912126200,4.863126220703125,0.02510755324959755,-0.037815059131383895,-0.01826397096514702
1772642713922168300,4.873168212890625,0.021324819840490818,-0.048697687673568725,-0.0067488897383213035
1772642713932210200,4.883210205078125,0.017922025659680367,-0.06115443366467952,0.006717325556278228
1772642713942251300,4.893251220703125,-0.0008282675176858902,-0.05476619393229484,0.008246873211115599
1772642713952293400,4.90329345703125,-0.0006070259824395179,-0.06486614766418934,0.017954905015975235
1772642713962334500,4.91333447265625,0.009339198492467404,-0.052687634092569345,0.02162321826517582
1772642713972376300,4.923376220703125,0.02785100673884153,-0.038377369189262385,0.024852555575221775
1772642713982417400,4.93341748046875,0.03891162219643592,-0.03952010948359966,0.025279694946110248
1772642713992459300,4.943459228515625,0.03498977257758379,-0.037224692022800446,0.01152457970753312
1772642714002500400,4.953500244140625,0.021258184345066548,-0.026903789016604424,0.011431786857545374
1772642714012542200,4.963542236328125,0.006342062503099441,-0.03758125037550926,0.0007769757218658923
1772642714022583300,4.973583251953125,0.011963409516215323,-0.06544014815986156,-0.005010229377448558
1772642714032625200,4.983625244140625,0.013436989200115204,-0.06468669944405556,0.004819967502355575
1772642714042666200,4.993666259765625,0.012147533911466597,-0.06229658943712711,0.005132394452393055
1772642714052708400,5.003708251953125,0.018393150302767752,-0.05055062206387519,-0.000583060584962368
1772642714062749400,5.01374951171875,0.020595921044051647,-0.03952069400548935,0.011070260068774223
1772642714072791300,5.023791259765625,0.019852116939425467,-0.04678337848484516,0.000630114597082138
1772642714082832400,5.033832275390625,0.02352583701610565,-0.04309446083903312,-0.0108534024477005
1772642714092874200,5.043874267578125,0.01251519818007946,-0.05785480759739876,-0.008656623055785894
1772642714102915300,5.053915283203125,-0.008147066098451615,-0.06768354317247867,-0.011557605194300413
1772642714112957200,5.063957275390625,0.009709785370528697,-0.06804127056896686,-0.012688216659426689
1772642714122998300,5.073998291015625,-0.0015343699604272842,-0.0674339523255825,-0.0055630409546196455
1772642714133040400,5.084040283203125,0.008030746242403984,-0.07222060208022595,0.00035699674412608144
1772642714143082500,5.09408251953125,0.02865940051227808,-0.07118599833548069,-0.01625233888179064
1772642714153123300,5.104123291015625,0.037949206905066965,-0.07795008564293385,-0.026867840920388696
1772642714163165400,5.11416552734375,0.030979660153388974,-0.06226151812374591,0.003516775949299335
1772642714173206300,5.124206298828125,0.03524199377298355,-0.05737666869163513,0.004164133942127227
1772642714183248400,5.134248291015625,0.029301205547153947,-0.04409925396740436,-0.00549684385061264
1772642714193289200,5.144289306640625,0.011930968551337719,-0.04599953463077545,0.0009599310733377933
1772642714203331300,5.154331298828125,0.012461714427173138,-0.044029111340641976,-0.0001510989084839821
1772642714213372200,5.1643720703125,0.019226970778405666,-0.0485679238140583,-0.006265051744133234
1772642714223414500,5.17441455078125,0.015325579425692558,-0.06021276890039444,-0.008762275387346745
1772642714233455400,5.184455322265625,0.011961071428656577,-0.06341361076831817,-0.001476648423820734
1772642714243497500,5.19449755859375,0.022170623014867306,-0.057660161808133124,-0.016135288373380897
1772642714253538300,5.204538330078125,0.023845570489764212,-0.07366729375720024,-0.016380933697521687
1772642714263580400,5.214580322265625,0.018510639202594756,-0.07174655482769011,0.008861790239065885
1772642714273621200,5.224621337890625,0.02018003371953964,-0.07368775202333927,0.007244564300775528
1772642714283663400,5.234663330078125,0.031468904975056645,-0.04904021750092506,0.006723609166592359
1772642714293704200,5.2447041015625,0.03250672359019518,-0.0457967055350542,0.0077425769507884976
1772642714303746300,5.254746337890625,0.045372342643141744,-0.03682487905025482,0.010019435841590166
1772642714313788400,5.264788330078125,0.032579204304516315,-0.014099252501130104,0.007504530411213636
1772642714323829500,5.27482958984375,0.005683598594367504,-0.02854337291717529,0.006950842051208019
1772642714333871400,5.284871337890625,0.013742694148421287,-0.027940730848908423,-0.004963467626273632
1772642714343912400,5.294912353515625,0.007964110746979712,-0.029801264023780822,-0.004154489330947399
1772642714353954300,5.304954345703125,0.009258826732635497,-0.039025019443035124,0.0019961422532796856
1772642714363995400,5.314995361328125,0.020035949073731896,-0.045892567124962806,-0.0012365560576319693
1772642714374037200,5.325037353515625,0.01723871957063675,-0.05127133755385875,-0.0007563713252544403
1772642714384078300,5.335078369140625,0.031028175470232962,-0.05171674323379993,0.0025499767437577245
1772642714394120200,5.3451201171875,0.0398497798293829,-0.045421442481875414,-0.001418050104379654
1772642714404161300,5.355161376953125,0.0448974186077714,-0.05348901360332965,-0.00007116554006934165
1772642714414203400,5.365203369140625,0.028114626111090182,-0.06027063656747341,0.01391162097454071
1772642714424244500,5.375244384765625,0.033326807801425454,-0.042319384813308714,0.015231471401453017
1772642714434286300,5.385286376953125,0.02478752751499414,-0.0368605348855257,0.006576163519918918
1772642714444327400,5.395327392578125,0.03983370547741651,-0.02703589096367359,0.016814502809196708
1772642714454369300,5.405369384765625,0.05211772525012493,-0.023755554118752478,-0.003236059311777353
1772642714464410400,5.415410400390625,0.04755611642301082,-0.024777882903814313,-0.014082885888218879
1772642714474452200,5.4254521484375,0.04713701422810554,-0.021904957816004753,-0.02655029940381646
1772642714484494300,5.435494384765625,0.03245733149051666,-0.03548515487909317,-0.02134352454096079
1772642714494535200,5.44553515625,0.034955870307981966,-0.03882219034731388,-0.01911181996613741
1772642714504577300,5.455577392578125,0.036216391763091084,-0.037731472501158714,-0.01737374412715435
1772642714514618400,5.465618408203125,0.04400573046505451,-0.05481470924913883,-0.015517740996927022
1772642714524660200,5.47566015625,0.047452071526646614,-0.050391632109880444,-0.024958792428672313
1772642714534701300,5.485701416015625,0.06717647043317555,-0.04060264402329922,-0.031206746907532213
1772642714544743400,5.495743408203125,0.05335808070003986,-0.035921792730689045,-0.02212386126369238
1772642714554784300,5.5057841796875,0.05701777225136757,-0.04609481169879436,-0.035470541831851006
1772642714564826400,5.515826416015625,0.03796674256175756,-0.03856090906262397,-0.03255859990790486
1772642714574867200,5.5258671875,0.03520546115487814,-0.04687514842152595,-0.034017274283617734
1772642714584909300,5.535909423828125,0.039379824230074884,-0.04193535393178463,-0.03023600217923522
1772642714594950100,5.5459501953125,0.04312719406485557,-0.03665536770224571,-0.049681584144383666
1772642714604992500,5.555992431640625,0.03760258542448282,-0.0416968690007925,-0.03233034410998225
1772642714615033300,5.566033447265625,0.06462474012374878,-0.006920154651999473,-0.04384761729389429
1772642714625075500,5.576075439453125,0.06503010605424642,-0.02307400159537792,-0.054961424243450165
1772642714635116300,5.5861162109375,0.061731649030745024,-0.021785130828619003,-0.05763824223726988
1772642714645158400,5.596158447265625,0.06476824024766684,-0.034352351456880564,-0.059058922690153115
1772642714655200300,5.6062001953125,0.05537789608985185,-0.03142798844277859,-0.04956657946258783
1772642714665241300,5.616241455078125,0.03348696679919958,-0.03776888190209866,-0.04808496260270476
1772642714675283200,5.626283203125,0.03896861308068037,-0.044098669445514674,-0.03478577443808317
1772642714685324500,5.636324462890625,0.04497399097532034,-0.035683892321586606,-0.03590717968344688
1772642714695366400,5.646366455078125,0.05062836347520351,-0.038328853872418404,-0.03428381626531481
1772642714705407500,5.656407470703125,0.039273441246151924,-0.029892449438571927,-0.030367227343469857
1772642714715449300,5.666449462890625,0.041943244977295395,-0.03222118464708328,-0.01596051632836461
1772642714725490400,5.676490478515625,0.045746728913486,-0.012456745991110801,-0.009171732971072197
1772642714735532300,5.6865322265625,0.048933249995112414,-0.02478197455704212,-0.0283098564222455
1772642714745574000,5.696573974609375,0.0405289942651987,-0.03671849606633186,-0.015011106649041175
1772642714755616000,5.706615966796875,0.03405716790258884,-0.053637482163310046,-0.02004661659821868
1772642714765656800,5.71665673828125,0.008563537944853305,-0.0769020378947258,-0.023576544290035962
1772642714775699000,5.726698974609375,0.0009857961669564248,-0.08096738763749599,-0.018379267907887697
1772642714785739800,5.73673974609375,0.03096066319197416,-0.06710194389224051,-0.009003098405897617
1772642714795782100,5.7467822265625,0.03101736181527376,-0.06214987444281578,-0.00750935271680355
1772642714805824000,5.756823974609375,0.02768850965350866,-0.06045534548461437,-0.02809036845266819
1772642714815865000,5.766864990234375,0.019650164626538753,-0.05017243640124797,-0.01518017960563302
1772642714825907000,5.776906982421875,0.01983195093423128,-0.03857201497852802,0.004152589634805918
1772642714835948000,5.786947998046875,0.029984511636197565,-0.0585410362958908,0.012287673034518956
1772642714845990000,5.796989990234375,0.018656185153126715,-0.058797641405463216,0.008204787635058164
1772642714856031000,5.807031005859375,0.01023380924463272,-0.05553425569534302,0.0068066112749278545
1772642714866072800,5.81707275390625,0.007229366731643676,-0.05942424887120723,0.012102233465015887
1772642714876114000,5.827114013671875,0.01109042607396841,-0.04146890546381473,0.026952888855338097
1772642714886156000,5.837156005859375,0.0008691840499639511,-0.059843351066112514,0.050414574594050646
1772642714896197000,5.847197021484375,0.0049514849275350565,-0.06212824713289737,0.031713527385890485
1772642714906239000,5.857239013671875,0.01106383032798767,-0.08944996930062771,0.03828589151352644
1772642714916280000,5.867280029296875,0.02115355492681265,-0.06804886935353278,0.0466999379850924
1772642714926322000,5.877322021484375,0.02837795322239399,-0.06031739831864834,0.03979658833742142
1772642714936363000,5.887363037109375,0.01409896024018526,-0.052201896402239795,0.02443769116401672
1772642714946404900,5.89740478515625,0.006394961734116077,-0.06112988374531269,0.036061785723268985
1772642714956446000,5.907446044921875,0.0019464578926563262,-0.06572481032013892,0.021164076320827008
1772642714966487800,5.91748779296875,-0.014727029010653495,-0.06432604943811893,0.027112463331222532
1772642714976530200,5.9275302734375,-0.0024827567264437676,-0.05432487990558147,0.007291618312895298
1772642714986571000,5.937571044921875,0.01571107161194086,-0.059174658024311065,0.00832344557866454
1772642714996613000,5.947613037109375,0.007699030070006847,-0.04533317967653274,-0.00976779916808009
1772642715006654000,5.957654052734375,0.023840602053701875,-0.03588672141730785,-0.019718553687632083
1772642715016696000,5.967696044921875,0.006881283946335315,-0.042887540090084074,-0.010945172384381294
1772642715026737000,5.97773681640625,0.012285481077432632,-0.061006549626588816,-0.020030542246252298
1772642715036779000,5.987779052734375,0.013420330326259135,-0.07263502810001372,-0.01961450879126787
1772642715046819800,5.99781982421875,0.018274492359161378,-0.07358136903941631,-0.03128288088366389
1772642715056862000,6.007862060546875,0.02192716964781284,-0.05639934809207916,-0.0110505324549973
1772642715066902800,6.01790283203125,0.025797873601317405,-0.042293665850162504,-0.004059504523873329
1772642715076945200,6.027945068359375,0.00895195274055004,-0.05213818351626396,-0.0015036825612187385
1772642715086986000,6.037986083984375,0.006221943254768848,-0.05809563061594963,0.006856880157440901
1772642715097028000,6.048028076171875,0.017029752995073793,-0.0694511373668909,0.01211845394745469
1772642715107069000,6.05806884765625,0.02968406738489866,-0.05748129810988903,0.013532704659551382
1772642715117111000,6.068111083984375,0.027965865290164947,-0.05490355657637119,0.017277298015356064
1772642715127151900,6.07815185546875,0.024567455023527144,-0.061271922564506524,0.01015036874487996
1772642715137194000,6.088194091796875,0.019295359839498996,-0.05824877535104751,0.013985709124058485
1772642715147235800,6.09823583984375,0.0012608137160539626,-0.0609855068385601,0.000036240357160568236
1772642715157277000,6.10827685546875,-0.01829553514719009,-0.07470540463328361,-0.01856529199928045
1772642715167319000,6.118319091796875,0.00032382512688636776,-0.07016951476931571,0.0029682021558284756
1772642715177360100,6.128360107421875,-0.0034568624556064603,-0.0960205798625946,0.009830489140748976
1772642715187402000,6.138402099609375,0.010787935996055603,-0.10148878214061259,0.005948971532285213
1772642715197443000,6.148443115234375,0.004758300442993641,-0.10287176093161106,0.015439561194181441
1772642715207485000,6.15848486328125,-0.011352584141492842,-0.10178630378246306,0.02102773659005761
1772642715217526000,6.168526123046875,0.009231646464765072,-0.07953121735453605,0.017085136444121598
1772642715227567900,6.17856787109375,0.009123802176117897,-0.05934475389420986,0.022189327715337274
1772642715237609000,6.18860888671875,0.006948796224594116,-0.05003215114772319,0.005666501329094171
1772642715247650800,6.19865087890625,0.005698211641609668,-0.05129413390755653,0.013908698365092276
1772642715257692000,6.20869189453125,-0.001652151121199131,-0.06262216812968253,-0.00029576807618141173
1772642715267734000,6.218734130859375,-0.014950900894403457,-0.0766793350547552,-0.016926000359654424
1772642715277775000,6.228775146484375,-0.009949147084355354,-0.06755261026918888,-0.01005100002363324
1772642715287817000,6.23881689453125,-0.0037552608802914615,-0.06348609148263931,-0.022489479705691335
1772642715297859000,6.248859130859375,0.008848784627020358,-0.05223579867184162,-0.024055267717689274
1772642715307900000,6.25889990234375,0.019674130024015902,-0.06489245114922523,-0.012155863348394632
1772642715317942000,6.26894189453125,0.006838029326498508,-0.0624450579971075,-0.016102993538975714
1772642715327982800,6.27898291015625,0.00934767405986786,-0.05326455719769001,-0.020935674392431974
1772642715338025200,6.289025146484375,0.011854103922843933,-0.03986088574528694,-0.014746464363485574
1772642715348066000,6.299066162109375,0.014473931032419203,-0.024723522368073462,-0.03859846459403634
1772642715358108200,6.309108154296875,0.02443476855456829,-0.011076689809560775,-0.047872488895803686
1772642715368149000,6.31914892578125,0.01604395682811737,-0.025282909816503524,-0.05102759192585945
1772642715378191000,6.329191162109375,0.001791267330944538,-0.03463467552959919,-0.05144508668556809
1772642715388232000,6.33923193359375,0.004127601324021816,-0.0356885684967041,-0.07712137973383068
1772642715398274000,6.349274169921875,0.00575520252585411,-0.02968377512395382,-0.07413198865950107
1772642715408315000,6.35931494140625,0.0056026423126459115,-0.02804360670149326,-0.07619520479962229
1772642715418357000,6.36935693359375,-0.0012605214551091194,-0.02772036609649658,-0.09348536229655147
1772642715428397800,6.379397705078125,0.00263122528642416,-0.03975976345837116,-0.08269786469191312
1772642715438440200,6.389440185546875,-0.006970715795457363,-0.039539983227849004,-0.0801445269472897
1772642715448481000,6.39948095703125,0.001401098969578743,-0.050042672541737554,-0.05129530295133591
1772642715458523100,6.409523193359375,0.018299042278528212,-0.05097498495578766,-0.035807957092672586
1772642715468565000,6.41956494140625,0.009090484428405762,-0.04947042561173439,-0.013590718457102774
1772642715478606000,6.429606201171875,0.028162849166989325,-0.052020694616436956,-0.015237755011767148
1772642715488648000,6.43964794921875,0.02224924120903015,-0.05170622183978557,-0.023893939676135775
1772642715498689000,6.44968896484375,0.020105214917659757,-0.05912438914179802,-0.024384938063472507
1772642715508731000,6.45973095703125,-0.004672375725209713,-0.07623919007182121,-0.03170490568801761
1772642715518772000,6.46977197265625,0.0036398178070783612,-0.09674597152769565,-0.027655191905796527
1772642715528814000,6.47981396484375,-0.009941548299789427,-0.10663725094497203,-0.020417349606752396
1772642715538855200,6.489855224609375,-0.008314239358901977,-0.11671090119183063,-0.0015070435620844363
1772642715548897000,6.49989697265625,-0.002057224790751934,-0.11058686535358428,0.018772797270119188
1772642715558938000,6.509938232421875,0.020410335344076155,-0.07811024464070797,0.022975948048382995
1772642715568980000,6.51997998046875,0.007712181812524795,-0.0549117398828268,0.02599281165152788
1772642715579021000,6.53002099609375,0.03329056744426489,-0.03924070802032947,0.02103562763556838
1772642715589063000,6.54006298828125,0.03212590757906437,-0.03001519903540611,0.02480842417255044
1772642715599104000,6.55010400390625,0.01849310354590416,-0.04527531200945377,0.032211978427320716
1772642715609145900,6.560145751953125,0.014420739540457724,-0.06171732824444771,0.04098725942671299
1772642715619187000,6.57018701171875,0.02385521510094404,-0.056063248005509374,0.03919730727002024
1772642715629229000,6.58022900390625,0.009684943190217017,-0.04470832577645779,0.03829363642856479
1772642715639271000,6.59027099609375,0.0034881343767046926,-0.05214402873516082,0.02740355523228645
1772642715649312000,6.60031201171875,0.019163257892429827,-0.045728316473960876,0.03210398800820112
1772642715659353900,6.610353759765625,0.013853753307461738,-0.05808627826571464,0.03315057445168495
1772642715669395000,6.62039501953125,0.024245383462309835,-0.05723638343811035,0.030297815369069576
1772642715679436800,6.630436767578125,0.01862812810242176,-0.058985857453942296,0.039448651682585475
1772642715689478000,6.640477783203125,0.033444004440307616,-0.058088616353273385,0.0328727804236114
1772642715699520000,6.65052001953125,0.0036062077984213826,-0.06913081937134266,0.03319163711443543
1772642715709560800,6.660560791015625,0.012139350605010986,-0.0650333209246397,0.04727262330651283
1772642715719603000,6.67060302734375,0.0054649874076247214,-0.055552960395812985,0.03155804456323385
1772642715729644000,6.68064404296875,0.015462357547879219,-0.06024608664810657,0.05583528446853161
1772642715739686000,6.690685791015625,0.015547405482828616,-0.06216098035871982,0.03393076504394412
1772642715749726500,6.7007265625,0.0011547229930758476,-0.060623687788844104,0.0416685196891427
1772642715759768600,6.7107685546875,-0.003920388314127922,-0.0750584558546543,0.03311155761554837
1772642715769809400,6.720809326171875,-0.009411971467733383,-0.08792144455909728,0.04254384121894836
1772642715779851500,6.7308515625,-0.016122575022280216,-0.09928922626972198,0.03354644190147519
1772642715789892400,6.740892333984375,-0.012934008114039898,-0.10910101071000099,0.03003025047406554
1772642715799934500,6.7509345703125,-0.010588029509782791,-0.09759119018018245,0.04080488859713077
1772642715809975300,6.760975341796875,0.0012432780593633651,-0.10672726731598377,0.027433950370550155
1772642715820017700,6.771017578125,-0.0007984569013118743,-0.10401800835728645,0.02238221993893385
1772642715830059500,6.7810595703125,-0.001395253750681877,-0.0896463686555624,0.027889292922616004
1772642715840100600,6.7911005859375,-0.00793283882588148,-0.08008008340895176,0.043747956311702724
1772642715850142500,6.801142578125,-0.00755816029459238,-0.08237550086975097,0.03459142090976238
1772642715860183600,6.81118359375,-0.008381459376215934,-0.07736322566568851,0.032745354651659724
1772642715870225400,6.821225341796875,-0.005501520025730133,-0.06593874533176422,0.019275047703832388
1772642715880266500,6.8312666015625,0.013502163390815258,-0.054530047088861465,0.007467705532163381
1772642715890308400,6.841308349609375,0.01689355939477682,-0.05154664736390113,-0.017945844926685092
1772642715900349400,6.851349365234375,0.01087386071383953,-0.047636195921897884,-0.024184885446727273
1772642715910391600,6.8613916015625,0.016102993538975714,-0.03095627927780151,-0.03976604706868529
1772642715920432600,6.8714326171875,0.015448036761581897,-0.031709727993607516,-0.030555443391948937
1772642715930474500,6.881474609375,0.009148352095484733,-0.029517770907282827,-0.02512625795006752
1772642715940515600,6.891515625,0.015026888740062713,-0.03814648304283619,-0.02972220743820071
1772642715950557400,6.901557373046875,0.007340425890684127,-0.03264437849521637,-0.028149405163526535
1772642715960598500,6.9115986328125,0.0036123452782630917,-0.040886721661686894,-0.02281754261627793
1772642715970640400,6.921640380859375,0.005442483314871788,-0.051100072640180585,-0.01312339320629835
1772642715980681500,6.931681396484375,-0.00250964473336935,-0.050640053912997245,0.0024736966371536255
1772642715990723300,6.941723388671875,-0.018265432269871235,-0.04525251565575599,0.026467151165008543
1772642716000765400,6.951765380859375,-0.01844078883677721,-0.05983692132532596,0.018707769209891558
1772642716010806500,6.961806640625,0.01068389109969139,-0.0660837067604065,0.025935528506338595
1772642716020848600,6.9718486328125,0.0018865443989634512,-0.08346972584724426,0.02651040578484535
1772642716030889500,6.981889404296875,0.009031155456602573,-0.0782610512882471,0.03711889356076717
1772642716040931600,6.991931640625,0.0072016019418835635,-0.0760305157572031,0.04195595832839608
1772642716050972400,7.001972412109375,-0.00770458302795887,-0.08732757031917572,0.041320729164779184
1772642716061014500,7.0120146484375,-0.005086509484052658,-0.09200432995855808,0.05272855062484741
1772642716071055400,7.022055419921875,0.009352350234985351,-0.08351239594519137,0.059416942347586155
1772642716081097500,7.032097412109375,-0.004253858052194118,-0.09086509679555893,0.05925371460989117
1772642716091138300,7.04213818359375,0.00962298386991024,-0.10178279665112495,0.05338759905546903
1772642716101180700,7.0521806640625,-0.004845394204556942,-0.09594809914827346,0.04490618643611669
1772642716111221500,7.062221435546875,-0.010003215359151362,-0.09237433231472969,0.045715895383805036
1772642716121263600,7.072263671875,-0.013707038313150404,-0.09220482096672057,0.04533960941731929
1772642716131304400,7.082304443359375,-0.00475917722582817,-0.09563070376217364,0.023914544072747228
1772642716141346600,7.0923466796875,0.0068324763685464855,-0.07969780609309673,0.009565116202831268
1772642716151387400,7.102387451171875,0.02243950308412313,-0.07086217320859432,-0.011725947498530148
1772642716161429500,7.112429443359375,0.02229980235248804,-0.0679956778615713,-0.011922492983937263
1772642716171471600,7.1224716796875,0.03733370535522699,-0.044812955194711686,-0.027061171535402533
1772642716181512700,7.1325126953125,0.04491933817863464,-0.04393032714128494,-0.03537555702477693
1772642716191554600,7.142554443359375,0.052776773680746555,-0.01580430285334587,-0.04707008647173643
1772642716201595600,7.152595703125,0.02523994745761156,-0.005062544086575508,-0.051528819446265695
1772642716211637500,7.162637451171875,0.02758271119147539,0.007576572734117507,-0.052916620542854065
1772642716221678600,7.1726787109375,0.028934418061375616,0.008250526472926139,-0.05881342349648475
1772642716231720400,7.182720458984375,0.05374941810518503,0.005739420434832573,-0.06073255499079823
1772642716241761500,7.192761474609375,0.039946225941181183,0.00253448691368103,-0.06761676154658199
1772642716251803400,7.202803466796875,0.0483890601158142,-0.0022287819653749466,-0.0815324741743505
1772642716261844500,7.212844482421875,0.03479629583209753,-0.0035386955201625824,-0.08879793513268232
1772642716271886600,7.222886474609375,0.01770838290899992,-0.01258183367550373,-0.08282616724669933
1772642716281927700,7.232927734375,0.0321025267034769,-0.017095511707663536,-0.07800956074520946
1772642716291969500,7.242969482421875,0.04532674993574619,-0.028856092128157613,-0.07650880079343915
1772642716302010600,7.2530107421875,0.04347556911110878,-0.04684299971759319,-0.06139657185748219
1772642716312052500,7.263052490234375,0.04500584741830826,-0.03866086230576038,-0.05723009982779622
1772642716322093600,7.273093505859375,0.021098902130126954,-0.046451370051503175,-0.05043824773058295
1772642716332135400,7.283135498046875,0.024692542707920075,-0.04514788623750209,-0.03933569282740354
1772642716342176500,7.293176513671875,0.01699380489885807,-0.04972819976508617,-0.02625716167613864
1772642716352218400,7.30321826171875,0.018338497506082057,-0.05727496188282966,0.0059440030962228775
1772642716362259500,7.313259521484375,0.01464841081649065,-0.07336509594023227,0.03558072420805693
1772642716372301600,7.323301513671875,0.004095452620089054,-0.06519289540052414,0.027218554054200646
1772642716382343400,7.333343505859375,0.028123101678490636,-0.07036299151480198,0.05193550055101514
1772642716392384500,7.343384521484375,0.0312660758793354,-0.07693360207676887,0.04716127188652754
1772642716402426400,7.35342626953125,0.012784078249335288,-0.08368892155587673,0.03704436701983213
1772642716412467500,7.363467529296875,-0.0032785832792520523,-0.08901040883958339,0.031226328390836715
1772642716422509300,7.37350927734375,0.0033007951110601425,-0.08139525766074657,0.030161037246882915
1772642716432550400,7.38355029296875,0.019248013566434383,-0.08595920457541942,0.025277502989023922
1772642716442592300,7.39359228515625,0.024556933629512785,-0.07667465887963772,0.028675182603299616
1772642716452633300,7.40363330078125,0.034219080466032024,-0.05556055918037891,0.026074790846556423
1772642716462675500,7.413675537109375,0.05097352365106344,-0.03477496078312397,0.014687866044044495
1772642716472716500,7.423716552734375,0.038600948812067506,-0.03618365853726864,-0.005693535466492176
1772642716482758400,7.43375830078125,0.026503976044058797,-0.02660451380908489,-0.019393997908383608
1772642716492799500,7.443799560546875,0.019321955585479736,-0.039565117669105525,-0.014153613036870955
1772642716502841600,7.453841552734375,0.019070611172914503,-0.04675239882469177,-0.010697627364099025
1772642716512882400,7.46388232421875,0.03625906186103821,-0.04598725967109203,-0.017674334508925676
1772642716522924500,7.473924560546875,0.04544248526990413,-0.02076046395599842,-0.023398411244153976
1772642716532965400,7.48396533203125,0.025533961968123912,-0.014925766453146933,-0.029286154108494517
1772642716543007500,7.494007568359375,0.01604132647961378,-0.029988895550370216,-0.03378448844105005
1772642716553048300,7.50404833984375,0.017015724469721317,-0.048598318952322,-0.02419350714460015
1772642716563090700,7.514090576171875,0.011480009913444519,-0.07503273689150809,-0.011512012486904859
1772642716573132500,7.524132568359375,0.003499532553553581,-0.06580079816579819,-0.010201222149282693
1772642716583173600,7.534173583984375,0.02667728678435087,-0.037323476222157474,-0.014785627330094576
1772642716593215500,7.544215576171875,0.0316366627573967,-0.03534896127879619,-0.017259908489137887
1772642716603256600,7.554256591796875,0.0314841025441885,-0.024010990184545517,-0.024804040258377787
1772642716613298400,7.56429833984375,0.02593523624539375,-0.019732874473929404,-0.030670740334689615
1772642716623339500,7.574339599609375,0.01232610534876585,-0.015769231539964675,-0.02139350116252899
1772642716633381400,7.58438134765625,0.02567658530920744,-0.031124621582031248,-0.02554623692780733
1772642716643422500,7.59442236328125,0.01813362258374691,-0.038619361251592633,-0.022703268586844204
1772642716653464600,7.604464599609375,0.017183189991116524,-0.053284430941939354,-0.03981514690741896
1772642716663505700,7.614505615234375,0.02305705046057701,-0.07037702004015445,-0.046235681474208826
1772642716673547500,7.624547607421875,0.028080431580543515,-0.06385024861991405,-0.03268164176568389
1772642716683588600,7.634588623046875,0.03440145129561424,-0.06067395667135715,-0.03639525546133518
1772642716693630500,7.64463037109375,0.016405775877833366,-0.058660278761386866,-0.03197685449719429
1772642716703671600,7.654671630859375,0.0020478724405169485,-0.06377659886181354,-0.01089870289415121
1772642716713713400,7.66471337890625,0.009753624512255192,-0.07365794140696526,0.0007538871072232723
1772642716723754500,7.67475439453125,0.0023731588721275327,-0.06691781949698924,-0.005870353338122368
1772642716733796600,7.684796630859375,0.022298633308708668,-0.06663023472726344,0.005250321743637323
1772642716743837700,7.694837646484375,0.02747252881526947,-0.05016892926990985,-0.007665712322294712
1772642716753879800,7.7048798828125,0.023938217209279536,-0.025440730726718902,-0.029978228025883433
1772642716763921000,7.7149208984375,0.03177724027186632,-0.03577098608314991,-0.024210750540345907
1772642716773962800,7.724962646484375,0.026899112841486928,-0.04670972872674465,-0.018230214826017617
1772642716784004600,7.735004638671875,0.012084405547380446,-0.0645323856651783,-0.018651947369426488
1772642716794045700,7.745045654296875,0.029682606080174444,-0.06372983711063862,-0.014991232904791832
1772642716804087600,7.755087646484375,0.04094225124120712,-0.06433890891969203,-0.007030044767260551
1772642716814128600,7.765128662109375,0.05783493385314941,-0.03873509658575058,-0.023705577497184275
1772642716824170500,7.77517041015625,0.0405573435768485,-0.02491875267922878,-0.02930675850510597
1772642716834211600,7.785211669921875,0.0342006680265069,-0.024060674545168876,-0.021788930220901965
1772642716844253700,7.795253662109375,0.03026449762135744,-0.02074701995253563,-0.007082943998277187
1772642716854294800,7.805294677734375,0.03406856607943773,-0.027315876948833463,-0.004696194992214441
1772642716864336600,7.815336669921875,0.024642858347296712,-0.041543724265694616,-0.013196896833926438
1772642716874377700,7.825377685546875,0.027220307619869707,-0.03648059565722942,-0.012591478286683559
1772642716884419600,7.835419677734375,0.014405541971325873,-0.03939794440865516,-0.010613456211984156
1772642716894460700,7.845460693359375,0.02312543952167034,-0.04207096301019191,-0.016127689588814973
1772642716904502500,7.85550244140625,0.00799041423201561,-0.036981530916690826,-0.005307604888826608
1772642716914543600,7.865543701171875,0.010239654463529587,-0.04808043255805969,-0.013378390880674123
1772642716924585500,7.87558544921875,0.0057578328743577,-0.08086509630680083,-0.012518266920000314
1772642716934626600,7.88562646484375,-0.001502221256494522,-0.09892740722000598,-0.00681684040799737
1772642716944668700,7.895668701171875,-0.004574468308687209,-0.08014262725114822,-0.0003141805157065391
1772642716954709800,7.905709716796875,0.016356091517210007,-0.05639993261396885,0.005712240166962147
1772642716964751600,7.915751708984375,0.03237871329635381,-0.04099719629883766,0.0027393618360161778
1772642716974792700,7.925792724609375,0.03855652514845133,-0.03831833247840404,0.02069222102537751
1772642716984834600,7.93583447265625,0.03244768687933683,-0.03024433161616325,0.039050153884291644
1772642716994875600,7.945875732421875,0.023235329636931416,-0.02268354097306728,0.03454889694228768
1772642717004917500,7.95591748046875,0.03083820585608482,-0.03175006000399589,0.03728606682121754
1772642717014959600,7.965959716796875,0.026615619724988937,-0.0456271941870451,0.03490443238168955
1772642717025000400,7.97600048828125,0.0253556827917695,-0.03828618377447128,0.03158361739590764
1772642717035042800,7.986042724609375,0.02658493232578039,-0.03644903147518635,0.007015870111435651
1772642717045083600,7.996083740234375,0.024794834038615224,-0.0538660302221775,-0.007860942633450031
1772642717055125800,8.006125732421875,0.030455928540229795,-0.06378069051504134,-0.013780834201723336
1772642717065166600,8.01616650390625,0.005320902761816978,-0.07141571543812751,-0.02971519317552447
1772642717075208700,8.026208740234376,-0.007330781279504299,-0.07245908701121807,-0.013137129470705985
1772642717085249500,8.03624951171875,0.011406944677233695,-0.06584697539508343,-0.02808262353762984
1772642717095291600,8.046291748046874,0.009006313276290893,-0.052772389766573904,-0.028609277760237455
1772642717105332700,8.056332763671875,0.016988251940906047,-0.048826867011189455,-0.03604395780563354
1772642717115374800,8.066374755859375,0.05183715474307537,-0.05943243217766284,-0.0372797832109034
1772642717125415700,8.076415771484376,0.04292319592535496,-0.05472820000946521,-0.03936345761716366
1772642717135457800,8.086457763671875,0.012160101132094859,-0.05457680884003639,-0.03106163934841752
1772642717145499000,8.096498779296875,0.01963058314323425,-0.046672319325804706,-0.045793052273243665
1772642717155540700,8.106540771484376,0.022562252680957316,-0.03850362591743469,-0.03169774529486894
1772642717165581800,8.116581787109375,0.04023556427657604,-0.04696107313930988,-0.038900954671949144
1772642717175623700,8.126623779296875,0.029181378559768198,-0.036280104649066926,-0.053786389114707706
1772642717185664800,8.136664794921876,0.038493104523420335,-0.027536241701245308,-0.05119111192449927
1772642717195706600,8.14670654296875,0.03615326339900493,-0.025359482184052467,-0.04625321713089943
1772642717205747700,8.156747802734374,0.0253252876535058,-0.022944822257757187,-0.04906710550785064
1772642717215789800,8.166789794921876,0.029224633179605004,-0.03746493051946163,-0.049478901179134845
1772642717225831000,8.176830810546875,0.04246843789517879,-0.042620413586497305,-0.02486716862246394
1772642717235872800,8.186872802734374,0.028612638761103152,-0.0362462023794651,-0.022468875309079882
1772642717245914600,8.19691455078125,0.020516718327999114,-0.03474105851352215,-0.03367912837043405
1772642717255955700,8.206955810546875,0.015403613097965717,-0.04479541953802108,-0.03751461488008499
1772642717265997600,8.21699755859375,0.02684592134952545,-0.048287937828898425,-0.048370647676289076
1772642717276038700,8.22703857421875,0.018540742079913616,-0.031556583258509636,-0.046770811264216894
1772642717286080500,8.23708056640625,0.008307809618115424,-0.04379296449720859,-0.03815978091582656
1772642717296121600,8.24712158203125,0.011273673686385153,-0.043187984341382976,-0.020459289052337407
1772642717306163700,8.257163818359375,0.006521218462288379,-0.06056055942475795,0.0013875088356435298
1772642717316204800,8.267204833984374,0.013070493975281714,-0.06553367166221141,-0.0005950432837009429
1772642717326246700,8.27724658203125,0.026181319960951802,-0.07139934882521629,-0.014509732998162507
1772642717336287700,8.287287841796875,0.009275777867436408,-0.08705576764047146,-0.0014499065473675726
1772642717346329600,8.29732958984375,-0.005001753810048103,-0.08404255729913711,0.007199117723852395
1772642717356370700,8.30737060546875,0.011812602868676185,-0.06635667848289012,0.029054975701123475
1772642717366412500,8.31741259765625,-0.0006315759018063545,-0.07898410486578941,0.02062543939948082
1772642717376453600,8.32745361328125,-0.0027671266257762906,-0.06604746640324592,0.025456220556795594
1772642717386495500,8.33749560546875,0.003008826427161693,-0.060032736158370965,0.027328444169461726
1772642717396536600,8.34753662109375,-0.0067693480044603346,-0.07183715572059154,0.03646642100140452
1772642717406578700,8.35757861328125,0.01140109945833683,-0.08096914120316505,0.03982026147395372
1772642717416619800,8.367619873046875,0.00452829107940197,-0.06917115138173104,0.028063334315270184
1772642717426661600,8.37766162109375,0.012474281647801398,-0.064963762819767,0.01714037376269698
1772642717436702700,8.38770263671875,0.025481062737107277,-0.05009411046802997,0.026597061154991386
1772642717446744600,8.39774462890625,0.019398235692083834,-0.031384733822941775,0.015124065504223107
1772642717456785700,8.40778564453125,0.028349311649799345,-0.028092706540226935,0.015629823069274424
1772642717466827500,8.41782763671875,0.029117957934737204,-0.02224573407769203,0.037714959757775064
1772642717476868600,8.42786865234375,0.04614186571091413,-0.014584990191459654,0.014245090712606906
1772642717486910500,8.437910400390624,0.04378478119075298,-0.021646599140763282,0.0005672784939408302
1772642717496951600,8.44795166015625,0.027194296395778656,-0.012426935374736785,-0.010538199018687008
1772642717506993700,8.45799365234375,0.019104513442516326,-0.016039865174889565,-0.03252630507349968
1772642717517035800,8.468035888671874,0.032085867829620834,-0.011513327661156654,-0.02797521764039993
1772642717527076600,8.47807666015625,0.04455313521474599,-0.027204233267903326,-0.026102555636316537
1772642717537118700,8.48811865234375,0.03905132292807102,-0.035250177079439164,-0.011309183391183614
1772642717547159600,8.49815966796875,0.03901858970224857,-0.04496317732036113,-0.021223697553575036
1772642717557201700,8.50820166015625,0.02785977456718683,-0.06381634635031223,-0.018300941974669693
1772642717567242500,8.518242431640624,0.021416297516226767,-0.06439502302110195,-0.02086874663606286
1772642717577284600,8.52828466796875,-0.0003305471286177635,-0.059302668318152424,-0.010608633906394242
1772642717587325700,8.53832568359375,0.023867197799682615,-0.0744967303186655,-0.033523791678249835
1772642717597367800,8.548367919921875,0.05038754045665264,-0.07308978613018989,-0.03139627813026309
1772642717607408600,8.55840869140625,0.05038227975964546,-0.07023615026473999,-0.012760989634692669
1772642717617450800,8.56845068359375,0.038270693944394585,-0.046591070783138275,-0.0018314532108604908
1772642717627491800,8.578491943359374,0.04183978460282087,-0.021338556104898453,-0.004016249904036521
1772642717637533700,8.58853369140625,0.05027414321005344,-0.008866612544655799,0.0015203414350748062
1772642717647574800,8.59857470703125,0.04185439765006303,-0.023117256215214727,0.002032528740912676
1772642717657616600,8.60861669921875,0.029725276178121565,-0.0419102194905281,0.0032606092311441895
1772642717667657700,8.61865771484375,0.008037760505080222,-0.06227028595209121,0.0038750878676772115
1772642717677699800,8.628699951171875,0.02693476867675781,-0.07631283982992172,0.01135857549086213
1772642717687741000,8.638740966796876,0.04163490968048572,-0.07744681229591369,0.009422638992220162
1772642717697782800,8.64878271484375,0.043457741193473336,-0.07544424030184746,0.0016571195572614669
1772642717707823900,8.658823974609374,0.0445268317297101,-0.06763210524618625,0.004350450294464826
1772642717717865700,8.66886572265625,0.008247311602532862,-0.06515607052147387,0.003243658096343279
1772642717727906800,8.67890673828125,-0.0037096681728959083,-0.06505319466888904,0.010214081630855798
1772642717737948700,8.68894873046875,-0.004791618190705776,-0.06415946069955826,0.019652064322680234
1772642717747989800,8.69898974609375,0.007448854701220989,-0.06256020880937575,0.007794599398970603
1772642717758031600,8.709031494140625,0.010847849489748478,-0.055580432924628255,-0.002105886238068342
1772642717768072700,8.71907275390625,0.040565234622359274,-0.05873685112893581,-0.015707710611075162
1772642717778114800,8.72911474609375,0.04370382490903139,-0.03504617893993854,-0.023566461287438868
1772642717788156000,8.739156005859375,0.04830751931220293,-0.022919687816500663,-0.040182957306504244
1772642717798197800,8.74919775390625,0.04446779501885176,-0.029306173983216284,-0.03397299675047397
1772642717808238800,8.75923876953125,0.030028935299813746,-0.03237432938218117,-0.022921587512642144
1772642717818280700,8.76928076171875,0.03489215742200613,-0.03937105640172958,-0.017789046929776668
1772642717828322600,8.779322509765626,0.0188093298882246,-0.04208382249176502,-0.006496084021031856
1772642717838363600,8.78936376953125,0.03967354647964239,-0.03274491626024246,-0.009499942012131214
1772642717848405500,8.799405517578125,0.05446691872477531,-0.03585515723526478,-0.02447363926023245
1772642717858446600,8.809446533203126,0.04533610228598117,-0.02111819135248661,-0.025283786599338054
1772642717868488700,8.81948876953125,0.04805588263869285,-0.008544540983438492,-0.019168080198019743
1772642717878529800,8.82952978515625,0.029852117428183556,-0.03218377524614334,-0.006861848593503236
1772642717888571600,8.839571533203125,0.027526304829120635,-0.058874213773012156,-0.0012232581846415996
1772642717898612700,8.84961279296875,0.02143792482614517,-0.06957564052939415,0.009997954662144183
1772642717908654600,8.859654541015624,0.0285778597086668,-0.07037702004015445,0.0038047991104424
1772642717918695700,8.86969580078125,0.03501227667033672,-0.06052782619893551,0.004841448681801557
1772642717928737500,8.879737548828125,0.04497077610492706,-0.03465104214251041,0.008788286611437797
1772642717938778600,8.889778564453126,0.03763444186747074,-0.016934183666110037,0.017996406070142985
1772642717948820500,8.899820556640625,0.03782441148161888,-0.013049451187252998,0.016488924116641282
1772642717958861600,8.909861572265624,0.04841097968667745,-0.029055998614430426,0.018839725026488303
1772642717968903700,8.919903564453126,0.049616556084156035,-0.039804771643877024,0.02549991356804967
1772642717978944800,8.92994482421875,0.0609463438719511,-0.05594400554001331,0.03637947337031364
1772642717988986600,8.939986572265624,0.06236556302011013,-0.0701835432946682,0.035747166816145176
1772642717999027700,8.95002783203125,0.055904842573404306,-0.08865969570577144,0.018872896643728015
1772642718009069600,8.960069580078125,0.04313040893524885,-0.06850479642748833,0.03157411891520023
1772642718019110700,8.970110595703124,0.03437719363719225,-0.06758183636367321,0.021838030059635638
1772642718029152500,8.980152587890625,0.021376550027728078,-0.0453004464507103,0.01371112996637821
1772642718039193600,8.990193603515625,0.016260522188246248,-0.05395195493996143,0.02485109427049756
1772642718049235500,9.0002353515625,0.03297463336288929,-0.05245850151181221,0.011894435933232307
1772642718059276500,9.010276611328125,0.03887742766588926,-0.06907528979182243,0.01953442929238081
1772642718069318700,9.020318603515625,0.04090133470892906,-0.05432429538369178,0.016007131949067114
1772642718079359700,9.03035986328125,0.03434095328003168,-0.04681318910121918,0.011982990999519823
1772642718089401600,9.040401611328125,0.015218027397990226,-0.04889291798472404,0.017343056727945803
1772642718099442700,9.050442626953124,0.02975157966315746,-0.056200610649585724,0.01574292805492878
1772642718109484800,9.06048486328125,0.02270750637054443,-0.03408171782195568,0.003611614625900984
1772642718119526700,9.070526611328125,0.026888299186527728,-0.05725859526991844,-0.009818360311537981
1772642718129567700,9.080567626953124,0.04184972147494554,-0.035029812327027315,-0.009581921207159757
1772642718139608600,9.090608642578125,0.05126987624913454,-0.036248540467023846,-0.014401450318098067
1772642718149650700,9.100650634765625,0.03790449098050594,-0.009682020580768584,-0.02513955582305789
1772642718159692800,9.11069287109375,0.033088322870433326,-0.025831191349029538,-0.021328326971828935
1772642718169734000,9.12073388671875,0.008534019589424133,-0.043459202498197555,-0.026126667164266107
1772642718179775700,9.130775634765625,-0.0028977672681212425,-0.044804187366366384,-0.015127426505088805
1772642718189816800,9.14081689453125,0.019234861823916434,-0.043314825591444964,-0.011027005448937416
1772642718199858700,9.150858642578125,0.037352117794752115,-0.03277589592039585,-0.019850947895646093
1772642718209899800,9.160899658203125,0.043082770401239395,-0.0359369902998209,-0.01702405390664935
1772642718219941600,9.170941650390626,0.04314589876532554,-0.02651099030673504,-0.0323651231624186
1772642718229982700,9.180982666015625,0.021615034958720206,-0.034489714100956914,-0.028222178138792513
1772642718240024800,9.19102490234375,0.007875263419747352,-0.050391632109880444,-0.011232903284579515
1772642718250066000,9.20106591796875,0.0048734512552618976,-0.05829378353655338,0.009766630124300717
1772642718260107800,9.211107666015625,0.01132657291740179,-0.05675649096667766,0.01952653824687004
1772642718270148900,9.22114892578125,0.0048792964741587634,-0.05748772785067558,0.020827683973312378
1772642718280190700,9.231190673828126,0.010105214428901672,-0.04415069189369678,0.03125014765784144
1772642718290231800,9.241231689453125,0.031164661331474778,-0.04773264203369617,0.0117465518951416
1772642718300273700,9.251273681640624,0.027184359523653983,-0.05758183587491512,-0.00496156793013215
1772642718310314800,9.261314697265625,0.015232055923342704,-0.08496960901618003,-0.011991466566920279
1772642718320356600,9.271356689453125,0.009407003031671047,-0.09733400054872035,-0.005791442883014679
1772642718330397700,9.281397705078126,-0.008623159177601336,-0.11101531989872455,0.007527911286801099
1772642718340439800,9.291439697265625,-0.0017404139265418052,-0.08898995057344436,-0.005607172357290983
1772642718350481000,9.30148095703125,-0.001740121665596962,-0.07892974433004855,0.006218289992958307
1772642718360522800,9.311522705078126,-0.008858429238200188,-0.0702402419179678,-0.0006933890916407107
1772642718370563800,9.321563720703125,-0.003620528584718704,-0.07158931843936443,-0.0033098552003502845
1772642718380605700,9.331605712890624,0.0007169160977005958,-0.055119829675555225,0.008815466879308223
1772642718390646800,9.341646728515625,0.0021519173368811607,-0.05971417172849178,0.010895488023757933
1772642718400688600,9.351688720703125,-0.017704875777661798,-0.054009238085150714,0.01767491903081536
1772642718410729700,9.361729736328124,-0.0016238018095493317,-0.05513794985413551,0.015540098959207533
1772642718420771600,9.371771484375,0.022485680313408373,-0.0442325249582529,0.006619418139755725
1772642718430812700,9.381812744140625,0.007619827353954315,-0.031301147192716594,0.007266776132583618
1772642718440854800,9.391854736328124,0.013522913917899131,-0.024511340922117233,0.003424421490728855
1772642718450896000,9.401895751953125,0.005585983438789844,-0.0378846172362566,-0.006476648668199777
1772642718460937700,9.411937744140625,-0.013270108200609683,-0.056309916242957114,-0.00595306318551302
1772642718470978800,9.421978759765626,-0.0029191023170948025,-0.0701397041529417,-0.0006312836408615112
1772642718481020700,9.432020751953125,-0.00450257211625576,-0.07638181341290473,-0.011588584854453802
1772642718491061800,9.442061767578124,0.006581131955981254,-0.06177753399908542,-0.004516746772080659
1772642718501103600,9.452103515625,0.01752279720902443,-0.038788872599601745,-0.017057517784833907
1772642718511144700,9.462144775390625,0.007666004583239555,-0.03729074299633503,-0.03307093334421515
1772642718521186600,9.4721865234375,0.017180851903557778,-0.024009821140766142,-0.03703983697518706
1772642718531227600,9.4822275390625,0.012753098589181899,-0.027620412853360175,-0.05687967895492911
1772642718541269800,9.492269775390625,0.008492810796201228,-0.050369420278072355,-0.05940466738790273
1772642718551310800,9.502310791015624,-0.010288169780373573,-0.06110416478216648,-0.036323067007958884
1772642718561352700,9.512352783203125,-0.005810732105374336,-0.08175941479802132,-0.039931759024411435
1772642718571393800,9.522393798828125,-0.008479951314628123,-0.06879062763154506,-0.04514963980317115
1772642718581435600,9.532435546875,0.015358604912459849,-0.04760989243686199,-0.0481331856586039
1772642718591477800,9.542477783203125,0.006883622033894062,-0.03929448403418064,-0.04557444108650088
1772642718601518600,9.5525185546875,0.02247545118033886,-0.034900048467516896,-0.04065539712384343
1772642718611560700,9.562560791015626,0.03010843027681112,-0.02936170356273651,-0.04206394874751568
1772642718621601500,9.5726015625,0.03305179025232792,-0.02092646817266941,-0.04000336295589804
1772642718631643600,9.5826435546875,0.02193418391048908,-0.04029109385609626,-0.0457541815675795
1772642718641684700,9.592684814453126,0.047563130685687065,-0.03264145588576794,-0.051355947097390886
1772642718651726800,9.602726806640625,0.04173632422834635,-0.03226736187636852,-0.06033814884573221
1772642718661767700,9.612767578125,0.03466887006014585,-0.03966390186846256,-0.039699849964678284
1772642718671809800,9.622809814453126,0.01720423277914524,-0.042836102163791655,-0.03930193668827414
1772642718681850600,9.6328505859375,0.009402619117498397,-0.05662321997582912,-0.04596723979637027
1772642718691892700,9.642892822265624,0.010625146649777888,-0.06862520793676376,-0.03720920219272375
1772642718701933600,9.65293359375,0.0037391865283250805,-0.0737730922192335,-0.02937938534989953
1772642718711975700,9.6629755859375,0.0065343702048063276,-0.06171791276633739,-0.04210910306349396
1772642718722016500,9.6730166015625,0.018258710268139838,-0.055748190706968306,-0.02442249359488487
1772642718732059000,9.683058837890625,0.008794424091279507,-0.038461540341377255,-0.019460341142863033
1772642718742100700,9.693100830078125,0.02702507730871439,-0.039969022294878954,-0.012586802111566067
1772642718752141300,9.703141357421876,0.012160393393039703,-0.03451777115166187,0.0036690439015626907
1772642718762183200,9.71318310546875,0.014873159483075141,-0.034731121641397474,0.0016924831315875053
1772642718772224300,9.723224365234374,0.017389233957231045,-0.026579963889718054,0.012811258517205715
1772642718782266000,9.73326611328125,0.04915712187886238,-0.05266892939209938,0.0016911679573357104
1772642718792307200,9.74330712890625,0.06232172387838363,-0.05038695593476295,0.0009197451934218406
1772642718802349300,9.753349365234374,0.017767711880803106,-0.017426351097226143,0.01334536539390683
1772642718812390400,9.763390380859375,-0.00431610963344574,-0.03038520139157772,-0.014203443527966738
1772642718822432300,9.773432373046875,-0.010045300935208798,-0.043756139618158336,-0.028525252738595006
1772642718832473300,9.783473388671876,-0.001423310801386833,-0.07958382432460784,-0.019219956515729428
1772642718842515200,9.79351513671875,-0.0006394669473171234,-0.08352057925164699,-0.011644552825391292
1772642718852556300,9.803556396484375,0.0059761518001556395,-0.06569266161620617,-0.007773410480469465
1772642718862598100,9.81359814453125,-0.001002162779867649,-0.055205754393339156,0.008166939842700957
1772642718872639200,9.82363916015625,0.01196048690676689,-0.07350830380320549,0.02711903920248151
1772642718882681000,9.83368115234375,0.03258066560924053,-0.0769581519961357,0.02004968533813953
