time,seconds_elapsed,z,y,x
1772642709112291300,0.063291259765625,-0.00043174176244065166,0.00695828115567565,0.013663224875926971
1772642709122333200,0.073333251953125,-0.004413818009197712,0.007759787607938051,0.012321528047323227
1772642709132374300,0.083374267578125,-0.003922997508198023,0.005791977513581514,0.010004045441746712
1772642709142416100,0.093416015625,-0.0050443680956959724,0.002308345166966319,0.009003487415611744
1772642709152457200,0.103457275390625,-0.002678947988897562,-0.001791857648640871,0.003786887973546982
1772642709162499300,0.113499267578125,-0.000007445050869137049,-0.004322079010307789,0.002516817534342408
1772642709172540400,0.12354052734375,-0.0005248973029665649,-0.005134076811373234,0.004151465836912394
1772642709182582300,0.133582275390625,0.0028610769659280777,-0.0044794147834181786,0.0028004501946270466
1772642709192623400,0.143623291015625,0.005636889953166246,-0.0034338580444455147,0.0023692843969911337
1772642709202665200,0.153665283203125,0.005485622212290764,-0.0006958621670491993,-0.0010563398245722055
1772642709212706300,0.163706298828125,0.006041423883289099,-0.00307353213429451,-0.0026899229269474745
1772642709222748200,0.173748046875,0.007529914379119873,-0.0029835051391273737,-0.0026503566186875105
1772642709232789200,0.183789306640625,0.010049797594547272,-0.004752110689878464,-0.003991791047155857
1772642709242831400,0.193831298828125,0.010804146528244019,-0.007151045836508274,-0.003792606061324477
1772642709252872400,0.20387255859375,0.010974322445690632,-0.008764122612774372,-0.0016290538478642702
1772642709262914300,0.213914306640625,0.013005918823182583,-0.008584564551711082,-0.0005655086133629084
1772642709272955400,0.223955322265625,0.012013625353574753,-0.009745435789227486,-0.0018326407298445702
1772642709282997200,0.233997314453125,0.014307355508208275,-0.010461308062076569,0.0024636827874928713
1772642709293038300,0.244038330078125,0.014451165683567524,-0.014961783774197102,0.00455319881439209
1772642709303080400,0.25408056640625,0.015709510073065758,-0.016888046637177467,0.004318308085203171
1772642709313121300,0.264121337890625,0.017862942069768906,-0.019048403948545456,0.00598145229741931
1772642709323162400,0.274162353515625,0.019178926944732666,-0.020535673946142197,0.00457663182169199
1772642709333204200,0.284204345703125,0.01697729155421257,-0.021864058449864388,0.002531590173020959
1772642709343245300,0.294245361328125,0.01763567514717579,-0.02197802998125553,-0.0006560587789863348
1772642709353287400,0.304287353515625,0.015362934209406376,-0.022824915125966072,-0.001281901728361845
1772642709363328500,0.31432861328125,0.01565827801823616,-0.02545931376516819,-0.0025122822262346745
1772642709373370400,0.324370361328125,0.013942670077085495,-0.02823512628674507,0.0004329077200964093
1772642709383411500,0.334411376953125,0.010714206844568253,-0.02701508440077305,0.0006158590549603105
1772642709393453300,0.344453369140625,0.010563471354544163,-0.028914449736475945,0.0005234474083408713
1772642709403494400,0.354494384765625,0.010541119612753391,-0.029511842876672745,0.0028629149310290813
1772642709413536300,0.364536376953125,0.00915094930678606,-0.027046820148825645,0.003071174258366227
1772642709423577300,0.374577392578125,0.007069576531648636,-0.02467912994325161,-0.00027072615921497345
1772642709433619200,0.384619140625,0.0065736956894397736,-0.023996828123927116,0.00029519572854042053
1772642709443660300,0.394660400390625,0.0043855998665094376,-0.020719699561595917,-0.002157703973352909
1772642709453702400,0.404702392578125,0.003390110097825527,-0.019562022760510445,-0.008013729006052017
1772642709463743500,0.414743408203125,0.00017760781338438392,-0.02148192748427391,-0.008724492974579334
1772642709473785300,0.424785400390625,-0.0008607587078586221,-0.019160715863108635,-0.00993197038769722
1772642709483826400,0.434826416015625,-0.00033480272395536304,-0.014636226929724216,-0.007078005466610193
1772642709493868300,0.444868408203125,-0.000611505180131644,-0.005722626578062773,-0.0038747554644942284
1772642709503909400,0.454909423828125,-0.0019272748613730073,-0.0007162682595662773,-0.004717264790087938
1772642709513951200,0.464951171875,-0.002637539990246296,0.004212710075080395,-0.0012309206649661064
1772642709523992300,0.474992431640625,-0.003122463822364807,0.008978082798421383,-0.00034938566386699677
1772642709534034200,0.4850341796875,-0.0027360389940440655,0.011007411405444145,0.001931878156028688
1772642709544075300,0.4950751953125,-0.000721196411177516,0.01115015335381031,0.005205830093473196
1772642709554117400,0.505117431640625,0.0025025601498782635,0.012701977044343948,0.00707856472581625
1772642709564158500,0.515158447265625,0.001693299738690257,0.012468365952372551,0.0087397126480937
1772642709574200300,0.525200439453125,0.006285388488322496,0.014154412783682346,0.007955411449074745
1772642709584241400,0.535241455078125,0.0023782027419656515,0.013128183782100677,0.005651501007378101
1772642709594283300,0.545283203125,0.0016154734184965491,0.01190925482660532,0.0043135290034115314
1772642709604324400,0.555324462890625,-0.0007002194761298597,0.01326805166900158,0.00633180420845747
1772642709614366200,0.5653662109375,-0.0017231395468115807,0.015533870086073875,0.0035714381374418736
1772642709624407300,0.5754072265625,-0.00028067867970094085,0.013895662501454353,0.005426876712590456
1772642709634449200,0.58544921875,0.0005148075288161635,0.013968100771307945,0.008510550484061241
1772642709644490200,0.595490234375,0.000982898403890431,0.012405985966324806,0.008843165822327137
1772642709654532400,0.605532470703125,0.003548055188730359,0.013413993641734123,0.007455391809344292
1772642709664573400,0.615573486328125,0.005294246133416891,0.010691819712519646,0.004901291336864233
1772642709674615300,0.625615234375,0.0024649042170494795,0.010220173746347427,0.001953172031790018
1772642709684656400,0.635656494140625,0.0020127303432673216,0.008824999444186687,-0.000662047415971756
1772642709694698200,0.6456982421875,-0.0021790852770209312,0.005861700512468815,-0.0007171747274696827
1772642709704739300,0.6557392578125,-0.0021442719735205173,0.002720021642744541,-0.0032925852574408054
1772642709714781200,0.66578125,-0.00494245532900095,0.0023021716624498367,-0.005666261073201895
1772642709724822300,0.675822265625,-0.005324854515492916,0.0003456035628914833,-0.011084724217653275
1772642709734864400,0.685864501953125,-0.006641787942498922,-0.00032924144761636853,-0.014843776822090149
1772642709744905700,0.69590576171875,-0.007212169002741575,0.00033264618832618,-0.014946728944778442
1772642709754947600,0.705947509765625,-0.009589040651917458,-0.0007816204451955855,-0.012386899441480637
1772642709764988700,0.71598876953125,-0.009413816034793854,0.002311274642124772,-0.009009068831801414
1772642709775030500,0.726030517578125,-0.011929171159863472,0.0038082373794168234,-0.007356044836342335
1772642709785071600,0.736071533203125,-0.01023325975984335,0.005469084717333317,-0.0057279313914477825
1772642709795113700,0.74611376953125,-0.009498227387666702,0.00880283024162054,-0.005671738181263208
1772642709805154800,0.75615478515625,-0.006781493313610554,0.010771063156425953,-0.003547739004716277
1772642709815196000,0.76619580078125,-0.007242752704769373,0.012723692692816257,-0.0015338568482547998
1772642709825237800,0.77623779296875,-0.006915677804499865,0.014269303530454636,-0.0008110455237329006
1772642709835279600,0.786279541015625,-0.005779839586466551,0.016111943870782852,-0.0006368746981024742
1772642709845320700,0.79632080078125,-0.00534584978595376,0.018523966893553734,-0.002656222553923726
1772642709855361800,0.80636181640625,-0.00435062637552619,0.017762301489710808,-0.0028506333474069834
1772642709865403600,0.816403564453125,-0.0027656001038849354,0.017572104930877686,-0.0005504542496055365
1772642709875444700,0.82644482421875,-0.0013610488967970014,0.016303639858961105,0.0008623526664450765
1772642709885486800,0.83648681640625,-0.003052045125514269,0.016076987609267235,-0.0008732548449188471
1772642709895528000,0.84652783203125,-0.002430729568004608,0.014357917942106724,-0.0011060149408876896
1772642709905569800,0.85656982421875,-0.0034643770195543766,0.016192089766263962,-0.002269951393827796
1772642709915611000,0.86661083984375,-0.004262792877852917,0.018734876066446304,-0.003993016667664051
1772642709925652700,0.87665283203125,-0.0056921313516795635,0.019980743527412415,-0.0012951202224940062
1772642709935693800,0.88669384765625,-0.0056950608268380165,0.021548813208937645,-0.0009238754864782095
1772642709945735700,0.896735595703125,-0.005132432095706463,0.021961722522974014,-0.0009665971156209707
1772642709955776800,0.90677685546875,-0.007965769618749619,0.020100438967347145,0.0007665881421416998
1772642709965818600,0.916818603515625,-0.009230826050043106,0.018369926139712334,0.0011740655172616243
1772642709975859700,0.926859619140625,-0.010178112424910069,0.015962962061166763,-0.0008672475814819336
1772642709985901800,0.93690185546875,-0.009345341473817825,0.010188428685069084,-0.002304289024323225
1772642709995943000,0.94694287109375,-0.00529520632699132,0.007599570322781801,-0.005722456146031618
1772642710005984800,0.95698486328125,-0.005271621979773045,0.005915015935897827,-0.0009753690101206303
1772642710016025900,0.96702587890625,-0.004361886531114578,0.005172526463866234,-0.0013450158294290304
1772642710026067700,0.977067626953125,-0.0022147404961287975,0.0062340665608644485,-0.0004244889132678509
1772642710036108800,0.98710888671875,0.0005213910480961204,0.0030824816785752773,-0.001454599667340517
1772642710046150700,0.997150634765625,0.0039029917679727077,0.000005662383046001196,-0.0012491615489125252
1772642710056191700,1.007191650390625,0.006156025920063257,-0.006543050520122051,-0.0016334557440131903
1772642710066233600,1.017233642578125,0.005591702181845903,-0.014127467758953571,0.002676071599125862
1772642710076274700,1.027274658203125,0.007934750989079475,-0.019293200224637985,0.0032870005816221237
1772642710086316800,1.03731689453125,0.00926840677857399,-0.023260237649083138,0.001333586173132062
1772642710096358000,1.04735791015625,0.011519310995936394,-0.024683430790901184,0.0012515608686953783
1772642710106399700,1.057399658203125,0.012646416202187538,-0.02400939166545868,0.0016707282047718763
1772642710116440800,1.06744091796875,0.011843739077448845,-0.02227034792304039,0.005409540142863989
1772642710126482700,1.077482666015625,0.010321173816919327,-0.022980915382504463,0.005861638579517603
1772642710136523800,1.087523681640625,0.010141409933567047,-0.023178521543741226,0.007445420138537884
1772642710146565600,1.097565673828125,0.009226321242749691,-0.021077366545796394,0.007435659412294626
1772642710156606700,1.107606689453125,0.009312341921031475,-0.02170454151928425,0.00700582517310977
1772642710166648600,1.117648681640625,0.011251737363636494,-0.01906660944223404,0.007615851238369942
1772642710176689700,1.127689697265625,0.01110979076474905,-0.015475601889193058,0.007087480276823044
1772642710186731800,1.137731689453125,0.011419188231229782,-0.010603196918964386,0.006981741636991501
1772642710196772900,1.14777294921875,0.009681475348770618,-0.006220699287950993,0.004771851003170013
1772642710206814700,1.157814697265625,0.00610251585021615,-0.001104653114452958,0.0019257415551692247
1772642710216855800,1.167855712890625,0.004872401710599661,0.0023691742680966854,0.001759826554916799
1772642710226897700,1.177897705078125,0.004093916621059179,0.001508283312432468,0.005610628053545952
1772642710236938800,1.187938720703125,0.0027639337349683046,0.003222027560696006,0.008768871426582336
1772642710246980600,1.197980712890625,0.00306118605658412,0.0023691742680966854,0.011138680391013622
1772642710257021700,1.208021728515625,0.002008971059694886,0.0033127320930361748,0.012522991746664047
1772642710267063600,1.2180634765625,0.0009386585443280637,0.003803919767960906,0.012388093397021294
1772642710277104600,1.228104736328125,-0.0006025127950124443,0.008368577808141708,0.010147842578589916
1772642710287146800,1.238146728515625,-0.00042660743929445744,0.010098095051944256,0.0070856185629963875
1772642710297187800,1.248187744140625,-0.0009211564902216196,0.009097279980778694,0.006674692966043949
1772642710307229700,1.258229736328125,-0.002956920303404331,0.008120806887745857,0.008320396766066551
1772642710317270800,1.268270751953125,-0.0019473157590255141,0.007616404443979263,0.009618155658245087
1772642710327312600,1.278312744140625,-0.0013197020161896944,0.007614370435476303,0.006628208793699741
1772642710337353700,1.288353759765625,-0.001048592384904623,0.008543280884623528,0.008743823505938053
1772642710347394800,1.298394775390625,-0.0037485912907868624,0.0054758042097091675,0.00952467042952776
1772642710357436700,1.308436767578125,-0.002111812587827444,0.004418262746185064,0.008547023870050907
1772642710367477800,1.318477783203125,-0.0036292385775595903,0.004965432919561863,0.00891147367656231
1772642710377519900,1.328519775390625,-0.003642820520326495,0.0043654232285916805,0.003699667751789093
1772642710387561000,1.33856103515625,-0.0024229951668530703,0.002056610072031617,0.004135207738727331
1772642710397602800,1.348602783203125,-0.0023114087525755167,0.0019231857731938362,0.0016281077405437827
1772642710407644000,1.358643798828125,-0.0036721585784107447,0.0020624306052923203,0.0030907399486750364
1772642710417685800,1.368685791015625,-0.004943817853927612,-0.002983460668474436,0.003068635705858469
1772642710427726800,1.378726806640625,-0.004735429305583239,-0.0034381235018372536,0.0030109656509011984
1772642710437768700,1.388768798828125,-0.004932503215968609,-0.004502322990447283,-0.0001419507898390293
1772642710447809800,1.398809814453125,-0.003618499729782343,-0.006039499305188656,-0.0002900224644690752
1772642710457851600,1.4088515625,-0.0027625595685094595,-0.0061667985282838345,0.0020218677818775177
1772642710467892700,1.418892822265625,0.001490458962507546,-0.00414879247546196,0.003347355406731367
1772642710477934800,1.428934814453125,0.004764549434185028,-0.0020390362478792667,0.006321573629975319
1772642710487976000,1.438975830078125,0.005639899522066116,-0.0009253583266399801,0.0066201104782521725
1772642710498017800,1.449017822265625,0.006109947804361582,0.000562549801543355,0.0041894433088600636
1772642710508059000,1.459058837890625,0.004334114491939545,0.00007528020069003105,0.0028873980045318604
1772642710518100700,1.469100830078125,0.006767977029085159,-0.005318153649568558,0.00266076298430562
1772642710528141800,1.479141845703125,0.006701547186821699,-0.006855168845504522,0.004371580667793751
1772642710538183700,1.48918359375,0.006146011874079704,-0.012403865344822407,0.008168715983629227
1772642710548224800,1.499224853515625,0.006552131846547127,-0.01300583966076374,0.009580066427588463
1772642710558266600,1.5092666015625,0.007433637976646423,-0.011455081403255463,0.012265598401427269
1772642710568307700,1.5193076171875,0.00540303997695446,-0.010625394061207771,0.010856262408196926
1772642710578349800,1.529349853515625,0.00343762687407434,-0.009106593206524849,0.009441325441002846
1772642710588391000,1.539390869140625,0.003612980479374528,-0.008845231495797634,0.008157413452863693
1772642710598432800,1.549432861328125,0.005077718757092953,-0.010470292530953884,0.0073225125670433044
1772642710608473900,1.559473876953125,0.004385309759527445,-0.010232637636363506,0.006568696349859238
1772642710618515700,1.569515625,0.007480169180780649,-0.008842467330396175,0.005368676036596298
1772642710628556800,1.579556884765625,0.007902075536549091,-0.008862328715622425,0.004454688169062138
1772642710638598700,1.5895986328125,0.006218691822141409,-0.0081033268943429,0.0015004439046606421
1772642710648639700,1.5996396484375,0.0058457436971366405,-0.008447411470115185,0.00001213117502629757
1772642710658681600,1.609681640625,0.005685155279934406,-0.010176069103181362,0.0015226760879158974
1772642710668722700,1.61972265625,0.0041841669008135796,-0.014466212131083012,0.00172080984339118
1772642710678764800,1.629764892578125,0.0068915365263819695,-0.016565850004553795,0.0032265610061585903
1772642710688806000,1.639805908203125,0.006906931288540363,-0.017368271946907043,0.005535632371902466
1772642710698847700,1.64984765625,0.008630529046058655,-0.018506241962313652,0.006646437104791403
1772642710708888800,1.659888916015625,0.007265220861881971,-0.018982509151101112,0.005743910558521748
1772642710718930700,1.6699306640625,0.005821520928293467,-0.015757687389850616,0.003497800324112177
1772642710728971800,1.6799716796875,0.0060631753876805305,-0.0138729652389884,0.0030758287757635117
1772642710739013600,1.690013671875,0.004575267434120178,-0.012872681953012943,0.0026920672971755266
1772642710749055200,1.70005517578125,0.005944421980530024,-0.014284488745033741,0.004654264077544212
1772642710759097000,1.71009716796875,0.005556133110076189,-0.013004040345549583,0.0019538188353180885
1772642710769138200,1.72013818359375,0.005345488898456097,-0.016518782824277878,0.0029741970356553793
1772642710779180000,1.730179931640625,0.004375032614916563,-0.015176016837358475,0.0014079920947551727
1772642710789221000,1.74022119140625,0.0022547063417732716,-0.01391254086047411,0.00004541524685919285
1772642710799263000,1.750262939453125,0.00046532851411029696,-0.013329308480024338,0.0012851166538894176
1772642710809304000,1.760303955078125,-0.0005580066354013979,-0.012981660664081573,0.004385299980640411
1772642710819346000,1.770345947265625,-0.0014275286812335253,-0.008711548522114754,0.005410883575677872
1772642710829387000,1.780386962890625,-0.0022586581762880087,-0.007347587496042252,0.008371382020413876
1772642710839427800,1.790427734375,-0.003166796173900366,-0.003531011054292321,0.009830261580646038
1772642710849470200,1.80047021484375,-0.003194183809682727,0.0030926940962672234,0.006634863559156656
1772642710859511000,1.810510986328125,-0.0033742135856300592,0.008356697857379913,0.0034135039895772934
1772642710869553200,1.82055322265625,-0.00468806829303503,0.012439485639333725,-0.00024780677631497383
1772642710879594000,1.830593994140625,-0.0027136006392538548,0.015086401253938675,-0.00001238333061337471
1772642710889636000,1.840635986328125,-0.003040456911548972,0.014431482180953026,0.003154922043904662
1772642710899677000,1.850677001953125,-0.003064425429329276,0.012827993370592594,0.008409605361521244
1772642710909719000,1.860718994140625,-0.004117055330425501,0.013443820178508759,0.00627561192959547
1772642710919760000,1.870759765625,-0.003371902508661151,0.012047525495290756,0.005160546395927668
1772642710929802200,1.88080224609375,-0.004275935236364603,0.010915805585682392,0.004139380995184183
1772642710939843000,1.890843017578125,-0.004887929651886225,0.010951758362352848,-0.0005150255747139454
1772642710949885200,1.90088525390625,-0.005923824850469828,0.011859843507409096,-0.0007284772582352161
1772642710959926000,1.910926025390625,-0.004731793887913227,0.009284567087888718,-0.0025860322639346123
1772642710969968000,1.920968017578125,-0.005100838840007782,0.0057088350877165794,-0.0016878971364349127
1772642710980009000,1.931009033203125,-0.0025695045478641987,0.0029042598325759172,-0.0012327628210186958
1772642710990051000,1.941051025390625,-0.002277245745062828,0.0009034091490320861,-0.003019239753484726
1772642711000092000,1.951091796875,-0.0020436865743249655,-0.0026396603789180517,-0.004396893084049225
1772642711010134000,1.961134033203125,-0.0010882301721721888,-0.00680276146158576,-0.002605374902486801
1772642711020175000,1.971175048828125,-0.0014661327004432678,-0.00799399334937334,-0.0033486629836261272
1772642711030217200,1.98121728515625,-0.0038410539273172617,-0.00835160817950964,-0.003332694061100483
1772642711040258000,1.991258056640625,-0.0039579663425683975,-0.006671686191111803,-0.005667220801115036
1772642711050300200,2.001300048828125,-0.0036018944811075926,-0.005789258051663637,-0.009177240543067455
1772642711060341000,2.011341064453125,-0.005044794641435146,-0.00556528614833951,-0.010082715190947056
1772642711070383000,2.021383056640625,-0.0035273449029773474,-0.006595619488507509,-0.011047727428376675
1772642711080424200,2.031424072265625,-0.0038487885612994432,-0.005465373862534761,-0.01105198822915554
1772642711090466000,2.041466064453125,-0.00310156075283885,-0.007722926791757345,-0.008469773456454277
1772642711100507100,2.051507080078125,-0.00005144235910847783,-0.007893635891377926,-0.007406905759125948
1772642711110549000,2.061549072265625,-0.0020245974883437157,-0.007326338440179825,-0.008042484521865845
1772642711120590000,2.071590087890625,-0.0012983535416424274,-0.008246194571256638,-0.005132714752107859
1772642711130632200,2.081632080078125,-0.00012549752136692405,-0.009950883686542511,-0.0038488046266138554
1772642711140673300,2.09167333984375,0.0006324179703369737,-0.012043020687997341,0.0020113291684538126
1772642711150715100,2.101715087890625,0.000438900722656399,-0.01239678356796503,0.007178947329521179
1772642711160756200,2.111756103515625,0.001257023774087429,-0.009641743265092373,0.006938197650015354
1772642711170798000,2.121798095703125,0.0008827321580611169,-0.005878801457583904,0.005645768716931343
1772642711180839200,2.131839111328125,0.0005058948299847543,-0.0037514683790504932,0.0019426430808380246
1772642711190881000,2.141881103515625,0.0014686821959912777,-0.0029405453242361546,-0.00215251580812037
1772642711200922000,2.151922119140625,0.001210355549119413,-0.0018031091894954443,-0.0017908585723489523
1772642711210964000,2.1619638671875,0.0013887208187952638,-0.0021331659518182278,-0.001631709048524499
1772642711221005000,2.172005126953125,0.0012220069766044617,0.0017478587105870247,0.00313188717700541
1772642711231047200,2.182047119140625,-0.0008756669121794403,0.005239943508058786,0.004243338480591774
1772642711241088300,2.192088134765625,-0.003611798631027341,0.007767816074192524,0.003835874842479825
1772642711251130000,2.202130126953125,-0.0015335350763052702,0.011299874633550644,0.006541537120938301
1772642711261171200,2.212171142578125,-0.0022765567991882563,0.01004872191697359,0.005448043346405029
1772642711271213000,2.222213134765625,-0.0015344391576945782,0.009515552781522274,0.003046797588467598
1772642711281254100,2.232254150390625,-0.0012593346182256937,0.008024715818464756,-0.0014606022741645575
1772642711291296000,2.2422958984375,-0.0015196192543953657,0.0033387131989002228,-0.0054835909977555275
1772642711301337000,2.252337158203125,-0.0020493220072239637,-0.0015159632312133908,-0.00739707238972187
1772642711311379000,2.26237890625,-0.00027839961694553494,-0.003915663808584213,-0.007002627477049828
1772642711321420000,2.272419921875,-0.00315834186039865,-0.0032352267298847437,-0.004412968643009663
1772642711331462100,2.282462158203125,-0.0054797399789094925,-0.0024081221781671047,-0.005939790979027748
1772642711341503200,2.292503173828125,-0.006250458769500256,-0.0021308870054781437,-0.009004822932183743
1772642711351545000,2.302545166015625,-0.006354655139148235,-0.0018622658681124449,-0.005776382051408291
1772642711361586200,2.312586181640625,-0.006892879959195852,-0.0012579946778714657,-0.006484516896307468
1772642711371627000,2.322626953125,-0.0065415105782449245,-0.0038506994023919106,-0.0062990449368953705
1772642711381669000,2.332669189453125,-0.0037619697395712137,-0.003717541228979826,-0.003675564657896757
1772642711391710000,2.3427099609375,-0.0031701840925961733,-0.0033302609808743,-0.003255844349041581
1772642711401752000,2.352751953125,-0.0035861695650964975,0.0010415841825306416,-0.0014851086307317019
1772642711411793000,2.36279296875,-0.003632273757830262,0.0037539571058005095,0.0023695447016507387
1772642711421835000,2.3728349609375,-0.0016205217689275742,0.005582217127084732,-0.0005735144950449467
1772642711431875800,2.382875732421875,-0.0033177633304148912,0.008496123366057873,-0.000540523324161768
1772642711441918200,2.392918212890625,-0.001699094194918871,0.010351547971367836,-0.001103249378502369
1772642711451959000,2.402958984375,-0.0035234177485108376,0.007910526357591152,0.0002085445448756218
1772642711462001200,2.413001220703125,-0.0008978074765764177,0.0064710876904428005,0.000022655818611383438
1772642711472042000,2.4230419921875,-0.0010986533015966415,0.008250454440712929,0.0014619643334299326
1772642711482084000,2.433083984375,-0.0035410381387919188,0.008963915519416332,0.002429490676149726
1772642711492125000,2.443125,-0.002150205196812749,0.012531958520412445,0.0026149700861424208
1772642711502167000,2.4531669921875,-0.005662914365530014,0.014625735580921173,0.0010202693520113826
1772642711512208000,2.463207763671875,-0.005953900050371885,0.018500518053770065,-0.0020630236249417067
1772642711522250200,2.473250244140625,-0.010133199393749237,0.019081884995102882,-0.006319020874798298
1772642711532291000,2.483291015625,-0.008455779403448105,0.016182497143745422,-0.004211803432554007
1772642711542333200,2.493333251953125,-0.008291196078062057,0.015184876509010792,-0.004327384755015373
1772642711552374000,2.5033740234375,-0.009167858399450779,0.013877810910344124,-0.0033682247158139944
1772642711562416000,2.513416015625,-0.009999829344451427,0.013145175762474537,-0.001953819999471307
1772642711572457000,2.52345703125,-0.011620691977441311,0.012997522950172424,-0.002384464256465435
1772642711582499000,2.5334990234375,-0.011673422530293465,0.011698433198034763,-0.0038601215928792953
1772642711592540000,2.543539794921875,-0.013242309913039207,0.008400416001677513,-0.005016351584345102
1772642711602582000,2.55358203125,-0.01334723923355341,0.006682144943624735,-0.005982812959700823
1772642711612623000,2.563623046875,-0.013090353459119797,0.006777238566428423,-0.007510105147957802
1772642711622665200,2.573665283203125,-0.010563812218606472,0.00722704641520977,-0.010459821671247482
1772642711632706000,2.5837060546875,-0.010195206850767136,0.007292760536074638,-0.012673195451498032
1772642711642748200,2.593748046875,-0.008397573605179787,0.00856628455221653,-0.008970070630311966
1772642711652789000,2.6037890625,-0.007009514141827822,0.010068263858556747,-0.006107554771006107
1772642711662831000,2.6138310546875,-0.008212730288505554,0.009627776220440865,-0.00690543744713068
1772642711672872200,2.6238720703125,-0.00909271277487278,0.009259514510631561,-0.008428101427853107
1772642711682914000,2.6339140625,-0.008529987186193466,0.007495436817407608,-0.008995087817311287
1772642711692955100,2.643955078125,-0.008902916684746742,0.0023152735084295273,-0.010012674145400524
1772642711702997000,2.6539970703125,-0.005523897707462311,-0.00009249040158465505,-0.010044632479548454
1772642711713038000,2.6640380859375,-0.0036717939656227827,-0.002239491790533066,-0.010006306692957878
1772642711723080200,2.674080078125,-0.003046483965590596,-0.002195283304899931,-0.009963961318135262
1772642711733121300,2.684121337890625,-0.001486456603743136,0.0024593740236014128,-0.008513765409588814
1772642711743162600,2.69416259765625,-0.004699294455349445,0.005777672864496708,-0.01047784648835659
1772642711753203700,2.70420361328125,-0.005794933065772057,0.009266071952879429,-0.012243470177054405
1772642711763245800,2.714245849609375,-0.005391464568674564,0.00851639173924923,-0.012855997309088707
1772642711773287000,2.724286865234375,-0.005633012857288122,0.008611466735601425,-0.014090105891227722
1772642711783328800,2.734328857421875,-0.006746214348822832,0.006390123628079891,-0.012597937136888504
1772642711793369900,2.744369873046875,-0.006871637422591448,0.00582217238843441,-0.012787962332367897
1772642711803411700,2.75441162109375,-0.004786381963640451,0.006383034400641918,-0.008525306358933449
1772642711813452800,2.764452880859375,-0.005565145518630743,0.008170289918780327,-0.007173473946750164
1772642711823494700,2.77449462890625,-0.005577928852289915,0.010407079011201859,-0.008513309992849827
1772642711833535700,2.78453564453125,-0.006272159516811371,0.011734922416508198,-0.011050515808165073
1772642711843577600,2.79457763671875,-0.005929410923272371,0.008388660848140717,-0.013243628665804863
1772642711853618700,2.80461865234375,-0.003502719337120652,0.007028806488960981,-0.01214279793202877
1772642711863660800,2.814660888671875,-0.0012582074850797653,0.006183252669870853,-0.008962185122072697
1772642711873702000,2.824701904296875,-0.00024381629191339016,0.008738167583942413,-0.007576565258204937
1772642711883743700,2.83474365234375,0.0038278906140476465,0.01030810084193945,-0.006619958207011223
1772642711893784800,2.844784912109375,0.0039528473280370235,0.012504667043685913,-0.0069211795926094055
1772642711903826700,2.85482666015625,0.0031232726760208607,0.01378165278583765,-0.003699287073686719
1772642711913867800,2.86486767578125,0.0023185713216662407,0.010607701726257801,0.00010438170284032822
1772642711923909600,2.87490966796875,0.0017537148669362068,0.011581087484955788,-0.0015217442996799946
1772642711933950700,2.88495068359375,-0.000024278124328702688,0.0125660989433527,0.0003945583011955023
1772642711943991600,2.894991455078125,0.0021235612221062183,0.012186598964035511,-0.004227624274790287
1772642711954033700,2.90503369140625,0.0039827884174883366,0.011377744376659393,-0.00577958021312952
1772642711964074500,2.915074462890625,0.0065146554261446,0.007243186701089144,-0.004189938772469759
1772642711974116900,2.925116943359375,0.0048856548964977264,0.007839726284146309,-0.0056379130110144615
1772642711984157700,2.93515771484375,0.005246779415756464,0.0035877234768122435,-0.008299742825329304
1772642711994199800,2.94519970703125,0.0051369741559028625,0.0027072099037468433,-0.008312426507472992
1772642712004240600,2.95524072265625,0.004197943489998579,-0.001431075856089592,-0.009348662570118904
1772642712014282800,2.96528271484375,0.002142376033589244,-0.005319860763847828,-0.009234650060534477
1772642712024323600,2.975323486328125,0.004138148855417967,-0.008508729748427868,-0.006414362229406834
1772642712034365700,2.98536572265625,0.0037907666992396116,-0.00769141037017107,-0.006983621045947075
1772642712044406500,2.995406494140625,0.003184897592291236,-0.009793976321816444,-0.009633200243115425
1772642712054449000,3.005448974609375,0.0022267780732363462,-0.011350812390446663,-0.009852921590209007
1772642712064489700,3.01548974609375,0.0009170353878289461,-0.016742650419473648,-0.0084299948066473
1772642712074531800,3.02553173828125,0.00007132929749786854,-0.01703999564051628,-0.011222416535019875
1772642712084572700,3.03557275390625,0.001661236397922039,-0.01769060641527176,-0.013223515823483467
1772642712094614800,3.04561474609375,0.0018684337846934795,-0.016039203852415085,-0.010405264794826508
1772642712104655600,3.055655517578125,-0.0026144650764763355,-0.014521733857691288,-0.005456046666949987
1772642712114697700,3.06569775390625,-0.002512402832508087,-0.011637949384748936,-0.0018373290076851845
1772642712124738800,3.07573876953125,-0.003145436057820916,-0.0089204590767622,-0.0032115201465785503
1772642712134780700,3.08578076171875,-0.001068683573976159,-0.006632314529269934,-0.0051267147064208984
1772642712144821800,3.09582177734375,-0.0011829331051558256,-0.003827206790447235,-0.003773562842980027
1772642712154863900,3.10586376953125,0.0022177628707140684,0.000924941967241466,0.001182186882942915
1772642712164905000,3.115905029296875,0.00043557549361139536,0.005591332912445068,0.001191508024930954
1772642712174946800,3.12594677734375,-0.001982339657843113,0.010497085750102997,-0.001724126050248742
1772642712184988000,3.13598779296875,-0.002458512783050537,0.014024442061781883,-0.000652203569188714
1772642712195029800,3.14602978515625,-0.007793921045958996,0.017015380784869194,-0.003964383155107498
1772642712205070800,3.15607080078125,-0.008739342913031578,0.0189720056951046,-0.005937518551945686
1772642712215112700,3.16611279296875,-0.013595711439847946,0.01974468305706978,-0.0068528675474226475
1772642712225153800,3.17615380859375,-0.014933949336409569,0.01921684481203556,-0.005755378399044275
1772642712235195600,3.186195556640625,-0.014529768377542496,0.018750745803117752,-0.003740953281521797
1772642712245236700,3.19623681640625,-0.013974498957395554,0.020495647564530373,0.00019919360056519508
1772642712255278800,3.20627880859375,-0.0113019198179245,0.018032902851700783,-0.00109419459477067
1772642712265320000,3.21631982421875,-0.008403069339692593,0.0175362229347229,0.0002672134432941675
1772642712275361800,3.22636181640625,-0.005415738094598055,0.01818481832742691,-0.0008723377250134945
1772642712285403000,3.23640283203125,-0.00355046009644866,0.01667081005871296,-0.008516674861311913
1772642712295444700,3.24644482421875,-0.0018109064549207687,0.012492910958826542,-0.01022027712315321
1772642712305485800,3.25648583984375,-0.00008517812239006162,0.008711221627891064,-0.013844573870301247
1772642712315527700,3.266527587890625,0.0004958991194143891,0.004203087650239468,-0.012126817367970943
1772642712325568800,3.27656884765625,-0.00014059635577723384,-0.0006430668290704489,-0.008180011995136738
1772642712335610600,3.286610595703125,-0.002458927920088172,-0.0023024948313832283,-0.005178781226277351
1772642712345651700,3.296651611328125,-0.001938812667503953,-0.006698574870824814,-0.003583281533792615
1772642712355693800,3.30669384765625,-0.0022055753506720066,-0.0072135827504098415,-0.005970016121864319
1772642712365735000,3.31673486328125,-0.0024441941641271114,-0.007830371148884296,-0.012018321081995964
1772642712375776800,3.32677685546875,-0.00009246281115338206,-0.005832738243043423,-0.014898138120770454
1772642712385817900,3.33681787109375,0.0005538862897083163,-0.004397827200591564,-0.014890415593981743
1772642712395859700,3.346859619140625,0.0009041348821483552,-0.0026578272227197886,-0.01063961535692215
1772642712405900800,3.35690087890625,-0.001391243771649897,-0.0010354294208809733,-0.01275176927447319
1772642712415942700,3.366942626953125,-0.0003046311321668327,-0.0016097165644168854,-0.006266577634960413
1772642712425983700,3.376983642578125,-0.004375272896140814,0.00003744865534827113,-0.007746763061732054
1772642712436025600,3.387025634765625,-0.005714854225516319,0.002113283146172762,-0.005083722062408924
1772642712446066700,3.397066650390625,-0.0060935551300644875,0.002800645073875785,-0.0036797039210796356
1772642712456108800,3.40710888671875,-0.004807526245713234,0.009067496284842491,-0.0032148375175893307
1772642712466150000,3.41714990234375,-0.006915417965501547,0.010249673388898373,-0.0002062646672129631
1772642712476191700,3.427191650390625,-0.003524914849549532,0.01224015187472105,0.004270337987691164
1772642712486232800,3.43723291015625,-0.002781360177323222,0.016073770821094513,0.0022990661673247814
1772642712496274700,3.447274658203125,-0.003683841787278652,0.01622755080461502,0.00466103944927454
1772642712506315800,3.457315673828125,-0.001156501704826951,0.017348742112517357,0.0011877448996528983
1772642712516357600,3.467357666015625,-0.002585980575531721,0.01695113629102707,0.00015165121294558048
1772642712526398700,3.477398681640625,-0.004023554734885693,0.013452010229229927,0.0022970938589423895
1772642712536440600,3.487440673828125,-0.003222070634365082,0.013674420304596424,0.0053786057978868484
1772642712546482000,3.49748193359375,-0.004274551756680012,0.013844862580299377,0.004801765084266663
1772642712556523800,3.507523681640625,-0.0041550518944859505,0.014180765487253666,0.005667337216436863
1772642712566564900,3.51756494140625,-0.006286912597715855,0.013859587721526623,0.0038718339055776596
1772642712576606700,3.527606689453125,-0.00804448127746582,0.0144309401512146,0.004460656084120274
1772642712586647800,3.537647705078125,-0.008231434971094131,0.01289402972906828,0.004586889408528805
1772642712596689700,3.547689697265625,-0.00593743147328496,0.012715442106127739,0.006377737037837505
1772642712606730800,3.557730712890625,-0.00596912344917655,0.01073831133544445,0.00602699862793088
1772642712616772600,3.567772705078125,-0.004510295111685991,0.009362773969769478,0.008758444339036942
1772642712626813700,3.577813720703125,-0.0036421045660972595,0.009422694332897663,0.0018986738286912441
1772642712636855800,3.587855712890625,-0.003899302566424012,0.009314685128629208,-0.0016976443585008383
1772642712646897000,3.59789697265625,-0.006140086334198713,0.006431812886148691,-0.0028020574245601892
1772642712656938800,3.607938720703125,-0.0074112871661782265,0.002399839460849762,-0.0026575825177133083
1772642712666979800,3.617979736328125,-0.007500236853957176,-0.004205865319818258,-0.001699643675237894
1772642712677021700,3.628021728515625,-0.009201218374073505,-0.005192791111767292,-0.0011189619544893503
1772642712687062800,3.638062744140625,-0.009417201392352581,-0.00674408208578825,0.0014424663968384266
1772642712697104600,3.648104736328125,-0.008804344572126865,-0.00633677002042532,0.0028579519130289555
1772642712707145700,3.658145751953125,-0.006311358883976936,-0.00465338584035635,0.0028196023777127266
1772642712717187600,3.6681875,-0.005060301627963781,-0.004250355996191502,0.0030182504560798407
1772642712727228700,3.678228759765625,-0.0028085990343242884,-0.002572830766439438,0.0038001546636223793
1772642712737270800,3.688270751953125,-0.001825370592996478,-0.0008357497281394899,0.003513745963573456
1772642712747311600,3.6983115234375,0.0035648674238473177,-0.0019622668623924255,0.0035877819173038006
1772642712757353500,3.708353515625,0.0030451463535428047,-0.002329580020159483,0.0034675216302275658
1772642712767394600,3.71839453125,0.004350627772510052,-0.0021711220033466816,0.00477060629054904
1772642712777436400,3.7284365234375,0.004355453420430422,-0.002716213231906295,0.004643848165869713
1772642712787477500,3.7384775390625,0.0018254504539072514,-0.0037793470546603203,0.005260103847831488
1772642712797519600,3.74851953125,0.0007562865503132343,-0.0005785877001471817,0.0050300294533371925
1772642712807560700,3.758560791015625,0.0004665346350520849,0.0011508690658956766,0.003595384769141674
1772642712817602600,3.7686025390625,-0.0005102382274344563,0.0031918359454721212,-0.00020952359773218632
1772642712827643600,3.7786435546875,-0.0008737597381696105,0.005280287005007267,0.00020539690740406513
1772642712837685500,3.788685546875,-0.000049947528168559074,0.0045163994655013084,0.0011540419654920697
1772642712847726600,3.7987265625,-0.0014238724252209067,0.002417828654870391,0.005152512341737747
1772642712857768400,3.8087685546875,-0.0005140939611010253,0.0016989316791296005,0.0060551841743290424
1772642712867809500,3.8188095703125,0.0002630164963193238,0.00009757291991263628,0.007710338570177555
1772642712877851400,3.828851318359375,0.0010792432585731149,-0.00022818951401859522,0.009372941218316555
1772642712887892700,3.838892822265625,-0.0006494145491160452,0.0015931462403386831,0.007302599959075451
1772642712897934600,3.8489345703125,-0.00014543789438903332,0.0006032551173120737,0.007393823936581612
1772642712907975700,3.8589755859375,-0.0014975247904658318,-0.0008071549818851054,0.005951722152531147
1772642712918017500,3.869017578125,-0.001760293496772647,-0.0009756867657415569,0.0026379378978163004
1772642712928058600,3.87905859375,-0.0030250288546085358,-0.000057162484154105186,-0.002920878352597356
1772642712938100500,3.8891005859375,-0.002595067024230957,0.0005137836560606956,-0.00454084575176239
1772642712948141600,3.8991416015625,-0.002620366867631674,-0.0005291101988404989,-0.0037434955593198538
1772642712958183400,3.909183349609375,-0.002780115231871605,-0.0028704344294965267,0.0014368219999596477
1772642712968224500,3.919224609375,0.0003016948467120528,-0.004009201657027006,0.0030874493531882763
1772642712978266600,3.9292666015625,-0.00024612725246697664,-0.005412785802036524,0.004378434736281633
1772642712988307700,3.9393076171875,0.0005533536896109581,-0.0067883082665503025,0.004223971161991358
1772642712998349600,3.949349609375,0.003119851928204298,-0.006404715124517679,0.0008344149682670832
1772642713008390700,3.959390625,0.0033139963634312153,-0.007111518643796444,-0.0025531258434057236
1772642713018432500,3.9694326171875,0.003474724479019642,-0.006927961949259043,-0.002123934682458639
1772642713028473600,3.9794736328125,0.005626292433589697,-0.0090654157102108,-0.004486691206693649
1772642713038515500,3.989515380859375,0.006672605872154236,-0.01104190293699503,-0.006744379177689552
1772642713048556500,3.999556640625,0.006054486148059368,-0.011962557211518288,-0.005327044054865837
1772642713058598400,4.009598388671875,0.01029287464916706,-0.013966378755867481,-0.0051222569309175014
1772642713068639500,4.019639404296875,0.0066201090812683105,-0.01656668819487095,0.0004815667634829879
1772642713078681600,4.029681640625,0.00698617659509182,-0.016914602369070053,-0.00026571121998131275
1772642713088722700,4.03972265625,0.008076475001871586,-0.01744537055492401,0.0014538918621838093
1772642713098764500,4.0497646484375,0.007960841059684753,-0.015561704523861408,0.004274467937648296
1772642713108805600,4.0598056640625,0.006708356086164713,-0.01607462950050831,0.006053725723177195
1772642713118847500,4.069847412109375,0.006981521844863892,-0.016697490587830544,0.0023411442525684834
1772642713128888600,4.079888671875,0.008500855416059494,-0.015998678281903267,0.0032924253027886152
1772642713138930400,4.089930419921875,0.008513584733009338,-0.016636254265904427,0.005328243598341942
1772642713148971500,4.099971435546875,0.010169538669288158,-0.013892400078475475,0.00631121639162302
1772642713159013600,4.110013671875,0.009735539555549622,-0.010921736247837543,0.008780261501669884
1772642713169054500,4.120054443359375,0.008336581289768219,-0.008393331430852413,0.007768793031573296
1772642713179096600,4.1300966796875,0.007896040566265583,-0.00786574836820364,0.0063693225383758545
1772642713189137700,4.1401376953125,0.006363657768815756,-0.004059824626892805,0.007845778949558735
1772642713199179800,4.1501796875,0.006057010032236576,-0.003506286535412073,0.005376843735575676
1772642713209220600,4.160220703125,0.0029706726782023907,-0.0024593982379883528,0.006838919594883919
1772642713219262700,4.1702626953125,0.002753592561930418,-0.001462635351344943,0.004131539259105921
1772642713229303600,4.180303466796875,0.0011871211463585496,-0.0011281422339379787,0.0033831908367574215
1772642713239345700,4.190345703125,0.0009795238729566336,-0.0011987497564405203,0.003223174251616001
1772642713249386500,4.200386474609375,-0.0021044164896011353,-0.0007145869894884527,0.004018127918243408
1772642713259428600,4.2104287109375,-0.0025217372458428144,-0.0014536462258547544,0.0013052341528236866
1772642713269469400,4.220469482421875,-0.0034455880522727966,0.00021029688650742173,-0.001703338697552681
1772642713279511800,4.23051171875,-0.0001503382227383554,0.00020217732526361942,-0.0003334821667522192
1772642713289552600,4.240552734375,-0.0021977764554321766,0.004511171951889992,0.0012526966165751219
1772642713299594800,4.2505947265625,-0.002971638459712267,0.0033106065820902586,0.0016505488893017173
1772642713309635600,4.260635498046875,-0.005554904695600271,0.0033401676919311285,-0.0034438117872923613
1772642713319677700,4.270677734375,-0.005360559560358524,0.003663092153146863,-0.005616440437734127
1772642713329718500,4.280718505859375,-0.006677492521703243,0.002632715040817857,-0.0036600821185857058
1772642713339760600,4.2907607421875,-0.00817096047103405,0.003938521724194288,-0.007019382435828447
1772642713349801500,4.300801513671875,-0.009708669036626816,0.0051273563876748085,-0.00919065810739994
1772642713359843600,4.310843505859375,-0.007271344307810068,0.007198496721684933,-0.007119250949472189
1772642713369884400,4.320884521484375,-0.009078032337129116,0.010915204882621765,-0.008180255070328712
1772642713379926800,4.3309267578125,-0.007952292449772358,0.011499729007482529,-0.008099665865302086
1772642713389967600,4.340967529296875,-0.008024729788303375,0.01330854743719101,-0.007398455403745174
1772642713400009700,4.351009765625,-0.011246804147958755,0.012081143446266651,-0.007937494665384293
1772642713410051600,4.361051513671875,-0.010173549875617027,0.012330149300396442,-0.0009557511657476425
1772642713420092700,4.3710927734375,-0.010304407216608524,0.010109727270901203,0.00007878430187702179
1772642713430134500,4.381134521484375,-0.01259445957839489,0.008321413770318031,0.0016860021278262138
1772642713440175600,4.391175537109375,-0.010029945522546768,0.006058754399418831,0.004243623465299606
1772642713450217500,4.401217529296875,-0.008730056695640087,0.004584694281220436,0.004352813120931387
1772642713460258800,4.4112587890625,-0.006644992623478174,0.003222169354557991,0.004073317628353834
1772642713470300700,4.42130078125,-0.005573336500674486,-0.001567259430885315,0.003856003750115633
1772642713480341800,4.431341796875,-0.005465072114020586,-0.0007466738461516798,0.002220981987193227
1772642713490383600,4.441383544921875,-0.0045103286392986774,-0.0038386036176234484,-0.002342610852792859
1772642713500424700,4.4514248046875,-0.0017134868539869785,-0.005156965926289558,-0.004154740367084742
1772642713510466600,4.461466552734375,-0.003139875829219818,-0.007262461353093386,-0.004524919670075178
1772642713520507600,4.471507568359375,-0.0023940515238791704,-0.007696225307881832,-0.005240356549620628
1772642713530549500,4.481549560546875,-0.0006235818727873266,-0.011183102615177631,-0.007750918157398701
1772642713540590600,4.491590576171875,-0.0018695155158638954,-0.013018826022744179,-0.008874384686350822
1772642713550632700,4.5016328125,-0.00013925984967499971,-0.014250004664063454,-0.00915561430156231
1772642713560673800,4.511673828125,-0.0002583914319984615,-0.014347555115818977,-0.0069698765873909
1772642713570715600,4.521715576171875,-0.0005912866326980293,-0.014705217443406582,-0.0019602039828896523
1772642713580756700,4.5317568359375,-0.000049277383368462324,-0.013878285884857178,0.000396868446841836
1772642713590798600,4.541798583984375,-0.001042902935296297,-0.013687336817383766,0.0015042107552289963
1772642713600839700,4.551839599609375,-0.000858135346788913,-0.012739804573357105,0.004581318236887455
1772642713610881500,4.561881591796875,-0.00043416005792096257,-0.012026876211166382,0.0077052065171301365
1772642713620922600,4.571922607421875,0.0008209690568037331,-0.012091252952814102,0.008623503148555756
1772642713630964500,4.581964599609375,0.0014502740232273936,-0.010145813226699829,0.01198494527488947
1772642713641005600,4.592005615234375,0.0032232843805104494,-0.008179208263754845,0.012616447173058987
1772642713651047700,4.602047607421875,0.005667800083756447,-0.0021218478213995695,0.010866750031709671
1772642713661088800,4.6120888671875,0.005794333294034004,0.0013981113443151116,0.00788668543100357
1772642713671130600,4.622130615234375,0.0064843581058084965,0.0046937731094658375,0.007824900560081005
1772642713681171700,4.632171630859375,0.0034832421224564314,0.008328455500304699,0.007301323115825653
1772642713691213600,4.642213623046875,0.0008866599528118968,0.007410463877022266,0.0098118856549263
1772642713701254700,4.652254638671875,-0.0010704731103032827,0.007406697608530521,0.011005680076777935
1772642713711296500,4.662296630859375,-0.0007226643501780927,0.007364086806774139,0.013465375639498234
1772642713721338600,4.672338623046875,-0.0007674710941500962,0.008540553972125053,0.011648543179035187
1772642713731379500,4.68237939453125,-0.001231127418577671,0.01224660873413086,0.011268509551882744
1772642713741421800,4.692421875,-0.0012398597318679094,0.012678859755396843,0.010774669237434864
1772642713751462100,4.702462158203125,-0.002038008999079466,0.011133694089949131,0.007581273093819618
1772642713761504500,4.71250439453125,-0.002091203350573778,0.008657134138047695,0.007410493213683367
1772642713771545300,4.72254541015625,-0.000605958397500217,0.004248537123203278,0.006438972428441048
1772642713781587500,4.73258740234375,-0.0006777974776923656,0.0030547603964805603,0.00793436262756586
1772642713791628300,4.742628173828125,0.0013989354483783245,0.0035359933972358704,0.007430226542055607
1772642713801670400,4.75267041015625,0.00016270478954538703,0.004568064585328102,0.006114735268056393
1772642713811711200,4.762711181640625,-0.002289267722517252,0.005866621620953083,0.0017293081618845463
1772642713821753300,4.77275341796875,-0.002777975285425782,0.007034224923700094,0.0017663692124187946
1772642713831794200,4.782794189453125,-0.004298107698559761,0.009569021873176098,0.00004889653064310551
1772642713841836300,4.792836181640625,-0.005437558051198721,0.009002993814647198,-0.0014455176424235106
1772642713851877000,4.802877197265625,-0.005001066252589226,0.008306576870381832,-0.003571252804249525
1772642713861919500,4.81291943359375,-0.006811473518610001,0.007182763423770666,-0.00415080226957798
1772642713871960300,4.822960205078125,-0.0037997043691575527,0.006137206219136715,-0.002297774888575077
1772642713882002400,4.83300244140625,-0.004699045792222023,0.006581517402082682,-0.0014025757554918528
1772642713892043300,4.843043212890625,-0.004401836544275284,0.007439588196575642,0.0006022518500685692
1772642713902085400,4.85308544921875,-0.002756754169240594,0.005544673651456833,0.00027421675622463226
1772642713912126200,4.863126220703125,-0.000980425626039505,0.005781961604952812,0.001838291180320084
1772642713922168300,4.873168212890625,0.0011305545922368765,0.004616555757820606,0.0001563576515763998
1772642713932210200,4.883210205078125,0.0011310873087495565,0.003918274771422148,-0.000693456968292594
1772642713942251300,4.893251220703125,0.002510439371690154,0.005080715287476778,0.00045696611050516367
1772642713952293400,4.90329345703125,0.0027615753933787346,0.005107612814754248,-0.00402113888412714
1772642713962334500,4.91333447265625,0.004064543638378382,0.00136816524900496,-0.0043572233989834785
1772642713972376300,4.923376220703125,0.005011297762393951,-0.0033677341416478157,-0.0013497155159711838
1772642713982417400,4.93341748046875,0.006105049047619104,-0.00634018424898386,0.001980989705771208
1772642713992459300,4.943459228515625,0.007064319681376219,-0.010988997295498848,0.0041908808052539825
1772642714002500400,4.953500244140625,0.009522001259028912,-0.011781451292335987,0.00604043947532773
1772642714012542200,4.963542236328125,0.011312178336083889,-0.010360654443502426,0.0064753335900604725
1772642714022583300,4.973583251953125,0.011512581259012222,-0.011443201452493668,0.005393235944211483
1772642714032625200,4.983625244140625,0.009650232270359993,-0.012947354465723038,0.007444402668625116
1772642714042666200,4.993666259765625,0.010210320353507996,-0.018664665520191193,0.008633943274617195
1772642714052708400,5.003708251953125,0.008587656542658806,-0.025917252525687218,0.01494643371552229
1772642714062749400,5.01374951171875,0.011158579960465431,-0.030781123787164688,0.020141635090112686
1772642714072791300,5.023791259765625,0.011480290442705154,-0.031944390386343,0.022130217403173447
1772642714082832400,5.033832275390625,0.011152112856507301,-0.02952698804438114,0.019816596060991287
1772642714092874200,5.043874267578125,0.012336953543126583,-0.024017440155148506,0.01663837768137455
1772642714102915300,5.053915283203125,0.011980374343693256,-0.02164703607559204,0.011761819012463093
1772642714112957200,5.063957275390625,0.010743335820734501,-0.016185425221920013,0.010518122464418411
1772642714122998300,5.073998291015625,0.008176581002771854,-0.01282211858779192,0.007001950405538082
1772642714133040400,5.084040283203125,0.005821281112730503,-0.012915595434606075,0.006061322055757046
1772642714143082500,5.09408251953125,0.0048422361724078655,-0.01321185939013958,0.006770228035748005
1772642714153123300,5.104123291015625,0.004000943619757891,-0.012416373006999493,0.006806446239352226
1772642714163165400,5.11416552734375,0.0003119498142041266,-0.009373576380312443,0.003569968044757843
1772642714173206300,5.124206298828125,0.0006376543897204101,-0.007898718118667603,0.0023459792137145996
1772642714183248400,5.134248291015625,0.0003268386353738606,-0.004947366192936897,-0.0009120351169258356
1772642714193289200,5.144289306640625,0.0032568485476076603,-0.0036578632425516844,-0.0001085593830794096
1772642714203331300,5.154331298828125,0.0032302248291671276,-0.0031379193533211946,0.0030873422510921955
1772642714213372200,5.1643720703125,0.004262998700141907,-0.0019349695648998022,0.003926504403352737
1772642714223414500,5.17441455078125,0.005455296020954847,-0.002342433203011751,0.00282075977884233
1772642714233455400,5.184455322265625,0.005314947105944157,-0.002104080282151699,0.0004651937633752823
1772642714243497500,5.19449755859375,0.005922372918576002,0.0003855542163364589,-0.002195160137489438
1772642714253538300,5.204538330078125,0.0030826441943645477,-0.00017211167141795158,-0.0014177835546433926
1772642714263580400,5.214580322265625,0.0030020668637007475,0.0015824821311980486,-0.0015003490261733532
1772642714273621200,5.224621337890625,0.002846271963790059,0.0007537063793279231,-0.00195548334158957
1772642714283663400,5.234663330078125,0.0019512089202180505,0.0010796415153890848,-0.0020788819529116154
1772642714293704200,5.2447041015625,0.0031062220223248005,0.0007539368816651404,-0.002720703836530447
1772642714303746300,5.254746337890625,0.002161715179681778,0.0010986534180119634,-0.00031507760286331177
1772642714313788400,5.264788330078125,0.002215510932728648,0.002730372129008174,0.004322817549109459
1772642714323829500,5.27482958984375,0.002271901350468397,0.0017016805941239,0.00690056337043643
1772642714333871400,5.284871337890625,0.0012026422191411257,0.0008739701588638127,0.009130960330367088
1772642714343912400,5.294912353515625,0.0016982564702630043,-0.0008714656578376889,0.009620982222259045
1772642714353954300,5.304954345703125,0.004487577825784683,0.0006016399129293859,0.008328046649694443
1772642714363995400,5.314995361328125,0.0059699080884456635,-0.0014344243099913,0.005744726862758398
1772642714374037200,5.325037353515625,0.008639194071292877,-0.0016197803197428584,0.0055756159126758575
1772642714384078300,5.335078369140625,0.009870351292192936,-0.003434209618717432,0.005563311278820038
1772642714394120200,5.3451201171875,0.009708431549370289,-0.0035561826080083847,0.0050855400040745735
1772642714404161300,5.355161376953125,0.011026479303836823,-0.0027545872144401073,0.0022383187897503376
1772642714414203400,5.365203369140625,0.009256275370717049,-0.0032802955247461796,0.002754439599812031
1772642714424244500,5.375244384765625,0.010971331968903542,-0.0026862823870033026,0.005278244614601135
1772642714434286300,5.385286376953125,0.010746827349066734,-0.0037824397440999746,0.007080405950546265
1772642714444327400,5.395327392578125,0.01133080292493105,-0.005752189550548792,0.007425487041473389
1772642714454369300,5.405369384765625,0.012642143294215202,-0.007166328374296427,0.007081140298396349
1772642714464410400,5.415410400390625,0.013115329667925835,-0.008068687282502651,0.010005749762058258
1772642714474452200,5.4254521484375,0.010468414053320885,-0.009905469603836536,0.010791915468871593
1772642714484494300,5.435494384765625,0.00907886028289795,-0.007501123007386923,0.011940782889723778
1772642714494535200,5.44553515625,0.008803755044937134,-0.0054805828258395195,0.01168645080178976
1772642714504577300,5.455577392578125,0.009834772907197475,-0.005320252850651741,0.009817861020565033
1772642714514618400,5.465618408203125,0.007551379036158323,-0.0064773960039019585,0.009311061352491379
1772642714524660200,5.47566015625,0.00874272733926773,-0.006975037977099419,0.009944620542228222
1772642714534701300,5.485701416015625,0.007640977390110493,-0.007235228084027767,0.01008417084813118
1772642714544743400,5.495743408203125,0.008866339921951294,-0.006165015045553446,0.007572399452328682
1772642714554784300,5.5057841796875,0.010262634605169296,-0.002374271396547556,0.007913284003734589
1772642714564826400,5.515826416015625,0.011005397886037827,-0.0005837331409566104,0.005388449877500534
1772642714574867200,5.5258671875,0.008266070857644081,0.0005054997745901346,0.003213712479919195
1772642714584909300,5.535909423828125,0.004930202849209309,0.0013644639402627945,0.004531817976385355
1772642714594950100,5.5459501953125,0.0057320804335176945,0.0021969680674374104,0.005367517936974764
1772642714604992500,5.555992431640625,0.0042949640192091465,0.0036364581901580095,0.004270691424608231
1772642714615033300,5.566033447265625,0.005673415958881378,0.005018106196075678,0.0029758624732494354
1772642714625075500,5.576075439453125,0.007897714152932167,0.004268924240022898,0.005997658707201481
1772642714635116300,5.5861162109375,0.008280943147838116,0.005087579600512981,0.008284248411655426
1772642714645158400,5.596158447265625,0.00711040897294879,0.006414418108761311,0.008883323520421982
1772642714655200300,5.6062001953125,0.0026000794023275375,0.007534810341894627,0.01245195884257555
1772642714665241300,5.616241455078125,0.003570610424503684,0.010361171327531338,0.011459535919129848
1772642714675283200,5.626283203125,0.0018366260919719934,0.012170257046818733,0.0082240616902709
1772642714685324500,5.636324462890625,-0.0001547108986414969,0.014788004569709301,0.005970138590782881
1772642714695366400,5.646366455078125,0.0015968501102179289,0.015633024275302887,0.007357113063335419
1772642714705407500,5.656407470703125,-0.0011289617978036404,0.01577112451195717,0.006857743952423334
1772642714715449300,5.666449462890625,-0.0019502805080264807,0.017419088631868362,0.007357086520642042
1772642714725490400,5.676490478515625,-0.0027670387644320726,0.01928549073636532,0.0074311355128884315
1772642714735532300,5.6865322265625,-0.003909002058207989,0.02091987431049347,0.00859040953218937
1772642714745574000,5.696573974609375,-0.005189583636820316,0.024576688185334206,0.007483011111617088
1772642714755616000,5.706615966796875,-0.004973068833351135,0.02754238434135914,0.009586907923221588
1772642714765656800,5.71665673828125,-0.008488682098686695,0.031100332736968994,0.005726296454668045
1772642714775699000,5.726698974609375,-0.007024742662906647,0.03371502086520195,0.0037172078154981136
1772642714785739800,5.73673974609375,-0.005587405525147915,0.033486902713775635,0.00016337772831320763
1772642714795782100,5.7467822265625,-0.002783362753689289,0.03206610679626465,-0.0022209505550563335
1772642714805824000,5.756823974609375,-0.004121547564864159,0.02894454635679722,0.00020021619275212288
1772642714815865000,5.766864990234375,-0.002837637672200799,0.02623957395553589,0.0012151469709351659
1772642714825907000,5.776906982421875,-0.005128455348312855,0.025332028046250343,0.000169071601703763
1772642714835948000,5.786947998046875,-0.0029736915603280067,0.0262747872620821,-0.00004318240098655224
1772642714845990000,5.796989990234375,-0.0030008642934262753,0.023182228207588196,-0.0019892638083547354
1772642714856031000,5.807031005859375,-0.0019036419689655304,0.020708950236439705,0.003501908155158162
1772642714866072800,5.81707275390625,0.00021006731549277902,0.01663469336926937,0.005799559876322746
1772642714876114000,5.827114013671875,0.002152577042579651,0.013140890747308731,0.0037428010255098343
1772642714886156000,5.837156005859375,0.0029600474517792463,0.008253990672528744,0.006251764949411154
1772642714896197000,5.847197021484375,0.0032769637182354927,0.0019281839486211538,0.005932185798883438
1772642714906239000,5.857239013671875,0.0034083740320056677,-0.0026933623012155294,0.003739332314580679
1772642714916280000,5.867280029296875,0.002198500093072653,-0.005836424883455038,0.0006101179169490933
1772642714926322000,5.877322021484375,0.007241935469210148,-0.006914230063557625,0.0016237979289144278
1772642714936363000,5.887363037109375,0.00543444836512208,-0.008973386138677597,0.003064035438001156
1772642714946404900,5.89740478515625,0.006895588710904121,-0.007082250434905291,0.0016450402326881886
1772642714956446000,5.907446044921875,0.0049884989857673645,-0.007469207514077425,0.002514828694984317
1772642714966487800,5.91748779296875,0.005274367518723011,-0.007473248057067394,0.001744377426803112
1772642714976530200,5.9275302734375,0.004764372017234564,-0.00949538592249155,0.006322351284325123
1772642714986571000,5.937571044921875,0.0066621494479477406,-0.012634891085326672,0.006489708088338375
1772642714996613000,5.947613037109375,0.00796789675951004,-0.012695344164967537,0.0069983722642064095
1772642715006654000,5.957654052734375,0.010281250812113285,-0.013540072366595268,0.008280094712972641
1772642715016696000,5.967696044921875,0.01217502448707819,-0.012212218716740608,0.008171970956027508
1772642715026737000,5.97773681640625,0.013512947596609592,-0.008559677749872208,0.005806054919958115
1772642715036779000,5.987779052734375,0.015277558006346226,-0.00440940773114562,0.0005412518512457609
1772642715046819800,5.99781982421875,0.017572661861777306,-0.001444872235879302,-0.0025222923140972853
1772642715056862000,6.007862060546875,0.020830240100622177,-0.0001950509031303227,-0.0020692881662398577
1772642715066902800,6.01790283203125,0.018251152709126472,0.0007734964601695538,0.000777650042437017
1772642715076945200,6.027945068359375,0.017789892852306366,0.001110652694478631,0.0007643342250958085
1772642715086986000,6.037986083984375,0.016500523313879967,-0.0021370435133576393,0.0010172813199460506
1772642715097028000,6.048028076171875,0.015036850236356258,-0.005122713278979063,0.00019889185205101967
1772642715107069000,6.05806884765625,0.01487603597342968,-0.006246944889426231,0.002052307827398181
1772642715117111000,6.068111083984375,0.013264823704957962,-0.005692475009709597,0.00428004190325737
1772642715127151900,6.07815185546875,0.011974680237472057,-0.004944934044033289,0.004812256433069706
1772642715137194000,6.088194091796875,0.011892921291291714,-0.004601652268320322,0.0016750528011471033
1772642715147235800,6.09823583984375,0.011539088562130928,-0.0024155504070222378,0.0006439199205487967
1772642715157277000,6.10827685546875,0.011039745062589645,-0.002616885583847761,-0.0004919182974845171
1772642715167319000,6.118319091796875,0.010442772880196571,-0.004794544540345669,0.0010185104329138994
1772642715177360100,6.128360107421875,0.010719475336372852,-0.007396186701953411,-0.0011796627659350634
1772642715187402000,6.138402099609375,0.007147592026740313,-0.0070389858447015285,-0.00493027176707983
1772642715197443000,6.148443115234375,0.003593070898205042,-0.009653144516050816,-0.008125798776745796
1772642715207485000,6.15848486328125,0.0009135247673839331,-0.00968895386904478,-0.009965827688574791
1772642715217526000,6.168526123046875,-0.0002729134284891188,-0.008762440644204617,-0.010792206041514874
1772642715227567900,6.17856787109375,-0.00048356130719184875,-0.009675809182226658,-0.009739083237946033
1772642715237609000,6.18860888671875,0.0005058030365034938,-0.011687028221786022,-0.007516141980886459
1772642715247650800,6.19865087890625,-0.0015234352322295308,-0.010956650599837303,-0.007768257986754179
1772642715257692000,6.20869189453125,-0.0019450137624517083,-0.009833329357206821,-0.0068385484628379345
1772642715267734000,6.218734130859375,-0.0012777573429048061,-0.009517771191895008,-0.009772761724889278
1772642715277775000,6.228775146484375,0.000843983085360378,-0.011134843342006207,-0.010740021243691444
1772642715287817000,6.23881689453125,0.0017737755551934242,-0.01104318629950285,-0.010248688980937004
1772642715297859000,6.248859130859375,0.003186316229403019,-0.009201344102621078,-0.0097733149304986
1772642715307900000,6.25889990234375,0.0023120492696762085,-0.008872460573911667,-0.00983913242816925
1772642715317942000,6.26894189453125,0.0031778430566191673,-0.008760874159634113,-0.009082794189453125
1772642715327982800,6.27898291015625,0.0006702516693621874,-0.008835021406412125,-0.00902434904128313
1772642715338025200,6.289025146484375,0.0006606642855331302,-0.007186791393905878,-0.0069838352501392365
1772642715348066000,6.299066162109375,0.0021199192851781845,-0.0080954534932971,-0.0034059921745210886
1772642715358108200,6.309108154296875,0.0020639928989112377,-0.007592914626002312,0.0004481344949454069
1772642715368149000,6.31914892578125,0.0031199203804135323,-0.0058245002292096615,0.0060541387647390366
1772642715378191000,6.329191162109375,0.003968137316405773,-0.0033826478756964207,0.006338031496852636
1772642715388232000,6.33923193359375,0.0037181158550083637,-0.0011469400487840176,0.008249080739915371
1772642715398274000,6.349274169921875,0.003802538150921464,0.000764410593546927,0.007501797750592232
1772642715408315000,6.35931494140625,0.004215619992464781,0.001859733136370778,0.007724343799054623
1772642715418357000,6.36935693359375,0.0032203965820372105,0.007399906869977713,0.006994904018938541
1772642715428397800,6.379397705078125,0.0027116243727505207,0.009028955362737179,0.010918920859694481
1772642715438440200,6.389440185546875,-0.0019212105544283986,0.01120315957814455,0.011022517457604408
1772642715448481000,6.39948095703125,-0.006497053895145655,0.015135849826037884,0.010212916880846024
1772642715458523100,6.409523193359375,-0.009687254205346107,0.01843843422830105,0.006706865504384041
1772642715468565000,6.41956494140625,-0.01136139314621687,0.01985076069831848,0.00525024626404047
1772642715478606000,6.429606201171875,-0.011646883562207222,0.01803874596953392,0.00810195878148079
1772642715488648000,6.43964794921875,-0.013369016349315643,0.018552975729107857,0.009246105328202248
1772642715498689000,6.44968896484375,-0.011904277838766575,0.018402505666017532,0.010321756824851036
1772642715508731000,6.45973095703125,-0.016071725636720657,0.018628370016813278,0.009023413062095642
1772642715518772000,6.46977197265625,-0.013844524510204792,0.020043041557073593,0.005825222469866276
1772642715528814000,6.47981396484375,-0.015752486884593964,0.021921686828136444,-0.0014088584575802088
1772642715538855200,6.489855224609375,-0.01524781808257103,0.023363789543509483,-0.0035298001021146774
1772642715548897000,6.49989697265625,-0.015294107608497143,0.02126040868461132,-0.009037787094712257
1772642715558938000,6.509938232421875,-0.011835993267595768,0.02035653032362461,-0.01194675825536251
1772642715568980000,6.51997998046875,-0.012954995036125183,0.014764449559152126,-0.011382512748241425
1772642715579021000,6.53002099609375,-0.012626361101865768,0.013178271241486073,-0.0060106501914560795
1772642715589063000,6.54006298828125,-0.013129300437867641,0.008379015140235424,-0.0029065278358757496
1772642715599104000,6.55010400390625,-0.014703229069709778,0.0059182546101510525,-0.0023054522462189198
1772642715609145900,6.560145751953125,-0.015841245651245117,0.0031424586195498705,-0.002822867361828685
1772642715619187000,6.57018701171875,-0.01371764112263918,0.0009522748878225684,-0.0031837255228310823
1772642715629229000,6.58022900390625,-0.012881149537861347,-0.0010787470964714885,-0.0024535958655178547
1772642715639271000,6.59027099609375,-0.012598056346178055,-0.0037688063457608223,-0.0014099031686782837
1772642715649312000,6.60031201171875,-0.008134424686431885,-0.006902632303535938,0.00048260297626256943
1772642715659353900,6.610353759765625,-0.007348259910941124,-0.00967604760080576,0.000654110568575561
1772642715669395000,6.62039501953125,-0.003966743126511574,-0.009679330512881279,-0.004687879234552383
1772642715679436800,6.630436767578125,-0.0037299878895282745,-0.008730978704988956,-0.007379536516964436
1772642715689478000,6.640477783203125,-0.00016220088582485914,-0.010523270815610886,-0.00951695442199707
1772642715699520000,6.65052001953125,0.0012687155976891518,-0.009059064090251923,-0.008970740251243114
1772642715709560800,6.660560791015625,-0.0013272019568830729,-0.006491275038570166,-0.010734503157436848
1772642715719603000,6.67060302734375,-0.00091680878540501,-0.00545131042599678,-0.010101735591888428
1772642715729644000,6.68064404296875,-0.0003485472989268601,-0.004507774021476507,-0.006264300085604191
1772642715739686000,6.690685791015625,-0.0014612157829105854,-0.004685406573116779,-0.004781452007591724
1772642715749726500,6.7007265625,-0.000467374746222049,-0.005476084537804127,-0.004663974978029728
1772642715759768600,6.7107685546875,-0.0005973369698040187,-0.004036379978060722,-0.0059103346429765224
1772642715769809400,6.720809326171875,0.00025141151854768395,-0.001944410614669323,-0.006308853626251221
1772642715779851500,6.7308515625,0.0007779184961691499,-0.000019744096789509058,-0.00946656335145235
1772642715789892400,6.740892333984375,0.0007144114933907986,-0.0006567036616615951,-0.01064484566450119
1772642715799934500,6.7509345703125,0.0010760687291622162,-0.0021866897586733103,-0.01021687500178814
1772642715809975300,6.760975341796875,-0.00023744371719658375,-0.004517643246799707,-0.009398341178894043
1772642715820017700,6.771017578125,-0.0015711546875536442,-0.00703113479539752,-0.008024949580430984
1772642715830059500,6.7810595703125,-0.003108372911810875,-0.007300268858671188,-0.008748653344810009
1772642715840100600,6.7911005859375,-0.007052247878164053,-0.011009519919753075,-0.008975287899374962
1772642715850142500,6.801142578125,-0.007594700902700424,-0.012211078777909279,-0.009058631025254726
1772642715860183600,6.81118359375,-0.00841468758881092,-0.011579909361898899,-0.011407539248466492
1772642715870225400,6.821225341796875,-0.011319315060973167,-0.014385239221155643,-0.009353996254503727
1772642715880266500,6.8312666015625,-0.005729872267693281,-0.01566888391971588,-0.011609161272644997
1772642715890308400,6.841308349609375,-0.006304249167442322,-0.014569677412509918,-0.013297311961650848
1772642715900349400,6.851349365234375,-0.00441313860937953,-0.010758694261312485,-0.010609649121761322
1772642715910391600,6.8613916015625,-0.002061442704871297,-0.007963772863149643,-0.010563208721578121
1772642715920432600,6.8714326171875,-0.0022542555816471577,-0.005046546924859285,-0.008387405425310135
1772642715930474500,6.881474609375,-0.00011885020649060607,-0.0017766744131222367,-0.0044206492602825165
1772642715940515600,6.891515625,-0.0014328539837151766,-0.0015401857672259212,-0.0015026235487312078
1772642715950557400,6.901557373046875,-0.0011054014321416616,0.0019239508546888828,-0.00001976778730750084
1772642715960598500,6.9115986328125,-0.0039701638743281364,0.004023054614663124,0.0006747845327481627
1772642715970640400,6.921640380859375,-0.004979176912456751,0.004088858142495155,0.001158599043264985
1772642715980681500,6.931681396484375,-0.002557830885052681,0.005269703920930624,0.003094717161729932
1772642715990723300,6.941723388671875,-0.004581592045724392,0.006858315318822861,0.0012367258314043283
1772642716000765400,6.951765380859375,-0.005510236136615276,0.003075295127928257,-0.0003009834326803684
1772642716010806500,6.961806640625,-0.008122606202960014,0.0017948991153389215,-0.0004941993393003941
1772642716020848600,6.9718486328125,-0.007589174900203943,-0.0013580173254013062,-0.0026244616601616144
1772642716030889500,6.981889404296875,-0.009278560057282448,-0.005620208568871021,-0.0010333897080272436
1772642716040931600,6.991931640625,-0.010486037470400333,-0.006700386758893728,-0.0002592087257653475
1772642716050972400,7.001972412109375,-0.011128582991659641,-0.009452073834836483,-0.002201740862801671
1772642716061014500,7.0120146484375,-0.012973088771104813,-0.01064170803874731,-0.004997793585062027
1772642716071055400,7.022055419921875,-0.014129298739135265,-0.011355937458574772,-0.009970763698220253
1772642716081097500,7.032097412109375,-0.015128516592085361,-0.011923723854124546,-0.01455965731292963
1772642716091138300,7.04213818359375,-0.012505161575973034,-0.010694341734051704,-0.015361105091869831
1772642716101180700,7.0521806640625,-0.015144088305532932,-0.01015531737357378,-0.016972053796052933
1772642716111221500,7.062221435546875,-0.01192402746528387,-0.01199896540492773,-0.01854064129292965
1772642716121263600,7.072263671875,-0.011122682131826878,-0.011348887346684933,-0.021585432812571526
1772642716131304400,7.082304443359375,-0.01146931853145361,-0.011506481096148491,-0.022136399522423744
1772642716141346600,7.0923466796875,-0.01210767775774002,-0.010509660467505455,-0.019729433581233025
1772642716151387400,7.102387451171875,-0.011883939616382122,-0.011208206415176392,-0.022229228168725967
1772642716161429500,7.112429443359375,-0.01187275443226099,-0.010256126523017883,-0.021673426032066345
1772642716171471600,7.1224716796875,-0.010376623831689358,-0.007112856488674879,-0.02340901829302311
1772642716181512700,7.1325126953125,-0.009503905661404133,-0.0067634498700499535,-0.023736855015158653
1772642716191554600,7.142554443359375,-0.008830499835312366,-0.004095235839486122,-0.02324697934091091
1772642716201595600,7.152595703125,-0.007775088772177696,-0.0008464454440400004,-0.017924387007951736
1772642716211637500,7.162637451171875,-0.00872080959379673,-0.0014417209895327687,-0.013818602077662945
1772642716221678600,7.1726787109375,-0.007492294069379568,-0.0004387744702398777,-0.00876711867749691
1772642716231720400,7.182720458984375,-0.007179555017501116,-0.0007287483313120902,-0.008024383336305618
1772642716241761500,7.192761474609375,-0.009151360020041466,0.001514698495157063,-0.006062698550522327
1772642716251803400,7.202803466796875,-0.008170600980520248,0.0015796353109180927,-0.002060480648651719
1772642716261844500,7.212844482421875,-0.0076020159758627415,0.004141063429415226,0.0021915221586823463
1772642716271886600,7.222886474609375,-0.008238112553954124,0.005305159837007523,0.003061523661017418
1772642716281927700,7.232927734375,-0.005832745227962732,0.006852989085018635,0.0020207604393363
1772642716291969500,7.242969482421875,-0.006142470519989729,0.008502817712724209,-0.0016552009619772434
1772642716302010600,7.2530107421875,-0.0055299438536167145,0.008676722645759583,-0.003280794247984886
1772642716312052500,7.263052490234375,-0.004172622226178646,0.0071074478328228,-0.0004989458248019218
1772642716322093600,7.273093505859375,-0.004654121585190296,0.004611799493432045,-0.002860370557755232
1772642716332135400,7.283135498046875,-0.005064015276730061,0.002523289527744055,0.00025258539244532585
1772642716342176500,7.293176513671875,-0.006576158106327057,-0.0005875490605831146,0.0022765877656638622
1772642716352218400,7.30321826171875,-0.008042811416089535,-0.0019042009953409433,0.002586344489827752
1772642716362259500,7.313259521484375,-0.012121974490582943,-0.004575085360556841,-0.0037320051342248917
1772642716372301600,7.323301513671875,-0.014843183569610119,-0.009275468997657299,-0.004012856632471085
1772642716382343400,7.333343505859375,-0.013654083013534546,-0.012231577187776566,-0.0043622637167572975
1772642716392384500,7.343384521484375,-0.014352438040077686,-0.01363074965775013,-0.006763239856809378
1772642716402426400,7.35342626953125,-0.013611014001071453,-0.014764191582798958,-0.007519843522459269
1772642716412467500,7.363467529296875,-0.013914914801716805,-0.012135976925492287,-0.01022163312882185
1772642716422509300,7.37350927734375,-0.01235297042876482,-0.012058213353157043,-0.012530327774584293
1772642716432550400,7.38355029296875,-0.012806390412151814,-0.013416321948170662,-0.015513608232140541
1772642716442592300,7.39359228515625,-0.012256714515388012,-0.01636337675154209,-0.017883820459246635
1772642716452633300,7.40363330078125,-0.01020775269716978,-0.017880260944366455,-0.015266870148479939
1772642716462675500,7.413675537109375,-0.006984529085457325,-0.019573764875531197,-0.013994411565363407
1772642716472716500,7.423716552734375,-0.005879824981093407,-0.01806432195007801,-0.010587260127067566
1772642716482758400,7.43375830078125,-0.002363653387874365,-0.017442207783460617,-0.005548559129238129
1772642716492799500,7.443799560546875,-0.0039517381228506565,-0.014252694323658943,-0.007442456670105457
1772642716502841600,7.453841552734375,-0.0007000183104537427,-0.011600186116993427,-0.008841948583722115
1772642716512882400,7.46388232421875,-0.00017775542801246047,-0.010486526414752007,-0.008464356884360313
1772642716522924500,7.473924560546875,0.0020060366950929165,-0.00778554892167449,-0.005582017824053764
1772642716532965400,7.48396533203125,0.0036245856899768114,-0.006161185912787914,-0.005972337909042835
1772642716543007500,7.494007568359375,0.003138558706268668,-0.005830421112477779,-0.0034918696619570255
1772642716553048300,7.50404833984375,0.00305517902597785,-0.0036231542471796274,-0.0024518005084246397
1772642716563090700,7.514090576171875,0.0007062710355967283,-0.0020337796304374933,-0.0057703647762537
1772642716573132500,7.524132568359375,-0.0016997875645756721,-0.0012593257706612349,-0.006375288590788841
1772642716583173600,7.534173583984375,-0.002951206872239709,-0.000813778955489397,-0.005786464549601078
1772642716593215500,7.544215576171875,-0.002898299368098378,0.00035713339457288384,-0.006603177171200514
1772642716603256600,7.554256591796875,-0.0021560764871537685,-0.0007619268144480884,-0.006291853729635477
1772642716613298400,7.56429833984375,-0.0011046936269849539,0.0005666649667546153,-0.0034918191377073526
1772642716623339500,7.574339599609375,-0.0007686027092859149,0.0009722643299028277,-0.0000052086543291807175
1772642716633381400,7.58438134765625,-0.0007908507832325995,0.0025018565356731415,0.003395848674699664
1772642716643422500,7.59442236328125,-0.0005807274137623608,0.0000887662754394114,0.002994510345160961
1772642716653464600,7.604464599609375,-0.00014842156087979674,-2.352171577513218e-7,0.0037278146483004093
1772642716663505700,7.614505615234375,-0.0016989139840006828,-0.0032732603140175343,0.0039611076936125755
1772642716673547500,7.624547607421875,-0.0008316863677464426,-0.004445877857506275,0.003502187319099903
1772642716683588600,7.634588623046875,0.0008727366803213954,-0.002385656116530299,0.0005255722207948565
1772642716693630500,7.64463037109375,-0.0013116298941895366,0.0006539205205626786,-0.004689287394285202
1772642716703671600,7.654671630859375,-0.0023800902999937534,0.0032888520509004593,-0.003613369772210717
1772642716713713400,7.66471337890625,-0.0027312773745507,0.0017445292323827744,-0.002086332766339183
1772642716723754500,7.67475439453125,-0.00526580773293972,-0.0007231557392515242,-0.001794716576114297
1772642716733796600,7.684796630859375,-0.0051087564788758755,-0.0028874550480395555,-0.001767422305420041
1772642716743837700,7.694837646484375,-0.005971620324999094,-0.005438230466097593,0.0005239613819867373
1772642716753879800,7.7048798828125,-0.005105961114168167,-0.00445715244859457,-0.0002943791914731264
1772642716763921000,7.7149208984375,-0.006012767553329468,-0.00489151431247592,-0.0027609991375356913
1772642716773962800,7.724962646484375,-0.006347209215164185,-0.0036675389856100082,-0.0010400938335806131
1772642716784004600,7.735004638671875,-0.006550941616296768,-0.002138884738087654,-0.005623128265142441
1772642716794045700,7.745045654296875,-0.004133540205657482,-0.000652323302347213,-0.008428800851106644
1772642716804087600,7.755087646484375,-0.0029319217428565025,-0.0003031829255633056,-0.009480481967329979
1772642716814128600,7.765128662109375,-0.0027918564155697823,-0.0007403997587971389,-0.007545119151473045
1772642716824170500,7.77517041015625,0.0010438943281769753,-0.0008083104039542377,-0.006326722912490368
1772642716834211600,7.785211669921875,0.0017305407673120499,-0.002010150346904993,-0.004974654410034418
1772642716844253700,7.795253662109375,0.00034569710260257125,-0.00035739265149459243,-0.0029983227141201496
1772642716854294800,7.805294677734375,-0.00032835773890838027,0.00295148859731853,-0.0035137557424604893
1772642716864336600,7.815336669921875,-0.0020064155105501413,0.005290276370942593,-0.004699395038187504
1772642716874377700,7.825377685546875,-0.0059361206367611885,0.008327897638082504,-0.003124494105577469
1772642716884419600,7.835419677734375,-0.004209859296679497,0.009123118594288826,-0.003296800423413515
1772642716894460700,7.845460693359375,-0.0027890349738299847,0.009434998966753483,-0.0032554473727941513
1772642716904502500,7.85550244140625,-0.002693959977477789,0.010781226679682732,0.0017425068654119968
1772642716914543600,7.865543701171875,0.00018172123236581683,0.009704244323074818,0.000645817257463932
1772642716924585500,7.87558544921875,0.004318008199334145,0.009523650631308556,-0.002972307614982128
1772642716934626600,7.88562646484375,0.0057022953405976295,0.009337267838418484,-0.00808068085461855
1772642716944668700,7.895668701171875,0.009368936531245708,0.007806483190506697,-0.012966516427695751
1772642716954709800,7.905709716796875,0.009367842227220535,0.005622132681310177,-0.015333078801631927
1772642716964751600,7.915751708984375,0.008483406156301498,0.0017291237600147724,-0.011531415395438671
1772642716974792700,7.925792724609375,0.008394727483391762,-0.0009355724905617535,-0.005557236727327108
1772642716984834600,7.93583447265625,0.007689522113651037,-0.006931413430720568,-0.0017917933873832226
1772642716994875600,7.945875732421875,0.005764412693679333,-0.010576934553682804,-0.0008589637000113726
1772642717004917500,7.95591748046875,0.005225389264523983,-0.013978855684399605,-0.0021857505198568106
1772642717014959600,7.965959716796875,0.005170195829123259,-0.01766638644039631,-0.002828128170222044
1772642717025000400,7.97600048828125,0.004446614999324083,-0.02044353075325489,-0.0043147047981619835
1772642717035042800,7.986042724609375,0.006928606424480677,-0.025134902447462082,-0.0011281021870672703
1772642717045083600,7.996083740234375,0.00849907286465168,-0.026416948065161705,-0.0020655347034335136
1772642717055125800,8.006125732421875,0.00998421385884285,-0.02571677789092064,-0.0006081988103687763
1772642717065166600,8.01616650390625,0.009803385473787785,-0.020283930003643036,-0.0018843854777514935
1772642717075208700,8.026208740234376,0.008049389347434044,-0.019416630268096924,-0.006130479276180267
1772642717085249500,8.03624951171875,0.006547100841999054,-0.016776638105511665,-0.007119311019778252
1772642717095291600,8.046291748046874,0.00522403372451663,-0.017496054992079735,-0.006161215715110302
1772642717105332700,8.056332763671875,0.004530014004558325,-0.018157318234443665,-0.0058229947462677956
1772642717115374800,8.066374755859375,0.006093746982514858,-0.01680198311805725,-0.0061802612617611885
1772642717125415700,8.076415771484376,0.0044473810121417046,-0.013398196548223495,-0.006529668346047401
1772642717135457800,8.086457763671875,0.0036841104738414288,-0.010977214202284813,-0.006543361581861973
1772642717145499000,8.096498779296875,0.0012832705397158861,-0.006495379842817783,-0.007091706618666649
1772642717155540700,8.106540771484376,-0.0001142308465205133,-0.005325253587216139,-0.006928083021193743
1772642717165581800,8.116581787109375,0.00003384094452485442,-0.0023204085882753134,-0.005275325383991003
1772642717175623700,8.126623779296875,-0.00012594874715432525,-0.0026152206119149923,-0.0073185027576982975
1772642717185664800,8.136664794921876,0.0002421001554466784,-0.0015779193490743637,-0.006719024386256933
1772642717195706600,8.14670654296875,-0.0007947520934976637,-0.0017723746132105589,-0.004042529501020908
1772642717205747700,8.156747802734374,-0.0017926385626196861,-0.0014373490121215582,0.00005527632310986519
1772642717215789800,8.166789794921876,-0.0022868465166538954,-0.0015258179046213627,0.0002130719367414713
1772642717225831000,8.176830810546875,-0.004017634782940149,0.00022334634559229016,0.002171826781705022
1772642717235872800,8.186872802734374,-0.00390589889138937,0.0023812020663172007,0.0004921769723296165
1772642717245914600,8.19691455078125,-0.0034502320922911167,0.0037998678162693977,0.0009683502139523625
1772642717255955700,8.206955810546875,-0.005683325231075287,0.006742868106812239,-0.00006922939792275429
1772642717265997600,8.21699755859375,-0.0071632438339293,0.009073933586478233,0.0009923066245391965
1772642717276038700,8.22703857421875,-0.0035452560987323523,0.009336032904684544,0.002557960571721196
1772642717286080500,8.23708056640625,-0.006368206813931465,0.009798889979720116,0.00352095952257514
1772642717296121600,8.24712158203125,-0.005559030454605818,0.010105693712830544,0.006815704517066479
1772642717306163700,8.257163818359375,-0.006845337338745594,0.008231893181800842,0.005422072485089302
1772642717316204800,8.267204833984374,-0.006727933883666992,0.006291891448199749,0.002389140659943223
1772642717326246700,8.27724658203125,-0.007268821820616722,0.0061994800344109535,-0.003365151584148407
1772642717336287700,8.287287841796875,-0.004618210718035698,0.005715524777770042,-0.005924194119870663
1772642717346329600,8.29732958984375,-0.003252541646361351,0.0035746092908084393,-0.005586239509284496
1772642717356370700,8.30737060546875,-0.001468657748773694,0.0033225843217223883,-0.007803819607943296
1772642717366412500,8.31741259765625,0.00028024002676829696,0.0015949917724356055,-0.006790486630052328
1772642717376453600,8.32745361328125,-0.00019274710211902857,-0.0006152631249278784,-0.00755439605563879
1772642717386495500,8.33749560546875,-0.002139517804607749,-0.0017050285823643208,-0.007854001596570015
1772642717396536600,8.34753662109375,-0.0021934304386377335,-0.00481650372967124,-0.008417521603405476
1772642717406578700,8.35757861328125,-0.00018540723249316216,-0.008309239521622658,-0.00904363114386797
1772642717416619800,8.367619873046875,0.0004334138357080519,-0.010413311421871185,-0.010529706254601479
1772642717426661600,8.37766162109375,0.0034494437277317047,-0.01062849536538124,-0.00996644701808691
1772642717436702700,8.38770263671875,0.004213504493236542,-0.012114538811147213,-0.009889481589198112
1772642717446744600,8.39774462890625,0.005783704575151205,-0.013899389654397964,-0.009582686237990856
1772642717456785700,8.40778564453125,0.005228201858699322,-0.0157073512673378,-0.008255088701844215
1772642717466827500,8.41782763671875,0.006170427892357111,-0.0169712882488966,-0.009214892983436584
1772642717476868600,8.42786865234375,0.007281316909939051,-0.01945970021188259,-0.007064673118293285
1772642717486910500,8.437910400390624,0.006158261559903622,-0.020151589065790176,-0.002174842869862914
1772642717496951600,8.44795166015625,0.010817485861480236,-0.01877344213426113,-0.0015445761382579803
1772642717506993700,8.45799365234375,0.011165560223162174,-0.01660855859518051,-0.0010348469950258732
1772642717517035800,8.468035888671874,0.012306085787713528,-0.013960051350295544,0.0011653103865683079
1772642717527076600,8.47807666015625,0.014179352670907974,-0.011773329228162766,0.0031640129163861275
1772642717537118700,8.48811865234375,0.013709613122045994,-0.011251194402575493,0.0026871655136346817
1772642717547159600,8.49815966796875,0.013518132269382477,-0.009330788627266884,0.004135392606258392
1772642717557201700,8.50820166015625,0.012151622213423252,-0.006751939654350281,0.0030774599872529507
1772642717567242500,8.518242431640624,0.008999770507216454,-0.005835546180605888,0.003361619310453534
1772642717577284600,8.52828466796875,0.00863522570580244,-0.005127521697431803,-0.0012031800579279661
1772642717587325700,8.53832568359375,0.006040241569280624,-0.0032918048091232777,-0.0006870594806969166
1772642717597367800,8.548367919921875,0.003961316309869289,-0.0038221252616494894,0.0007783876499161124
1772642717607408600,8.55840869140625,0.0013602067483589053,-0.003159797051921487,-0.0006224350072443485
1772642717617450800,8.56845068359375,0.00012933608377352357,-0.001490904251113534,0.0023814707528799772
1772642717627491800,8.578491943359374,0.001984494039788842,0.0005946171004325151,0.005365543067455292
1772642717637533700,8.58853369140625,0.0027336280327290297,0.00014680984895676374,0.005155105609446764
1772642717647574800,8.59857470703125,0.007039959542453289,0.0019444436766207218,0.00911655742675066
1772642717657616600,8.60861669921875,0.0038126371800899506,0.0024259688798338175,0.008622593246400356
1772642717667657700,8.61865771484375,0.003867232007905841,0.0026233091484755278,0.006804453209042549
1772642717677699800,8.628699951171875,0.0016641773981973529,0.001099370769225061,0.003055871929973364
1772642717687741000,8.638740966796876,-0.001986483810469508,-0.0031960417982190847,0.002440148964524269
1772642717697782800,8.64878271484375,-0.0029381155036389828,-0.006988960783928633,0.002706747967749834
1772642717707823900,8.658823974609374,-0.002128780819475651,-0.009472358040511608,0.0018995439168065786
1772642717717865700,8.66886572265625,-0.004381605423986912,-0.008594335056841373,-0.0013981589581817389
1772642717727906800,8.67890673828125,-0.0035847872495651245,-0.006362872663885355,-0.006658967584371567
1772642717737948700,8.68894873046875,-0.002919002901762724,-0.004508311860263348,-0.008423225954174995
1772642717747989800,8.69898974609375,-0.004391464404761791,-0.004045987036079168,-0.009616854600608349
1772642717758031600,8.709031494140625,-0.0035395228769630194,-0.004206873942166567,-0.009009052067995071
1772642717768072700,8.71907275390625,-0.004214900080114603,-0.003406327683478594,-0.007007953245192766
1772642717778114800,8.72911474609375,-0.003636204870417714,-0.005856533069163561,-0.004645310342311859
1772642717788156000,8.739156005859375,-0.003825288964435458,-0.004998462274670601,-0.0015541794709861279
1772642717798197800,8.74919775390625,-0.004312755074352026,-0.0017576683312654495,-0.002688832813873887
1772642717808238800,8.75923876953125,-0.002513257088139653,-0.0008607158088125288,-0.002516260137781501
1772642717818280700,8.76928076171875,-0.0038879550993442535,0.0018525347113609314,-0.003931131213903427
1772642717828322600,8.779322509765626,-0.004972394090145826,0.0023651933297514915,-0.004467491991817951
1772642717838363600,8.78936376953125,-0.0031284987926483154,0.0024123224429786205,-0.00687183253467083
1772642717848405500,8.799405517578125,-0.0039005493745207787,-0.00004684051964432001,-0.006286470219492912
1772642717858446600,8.809446533203126,-0.003911650273948908,0.001341244438663125,-0.002866188297048211
1772642717868488700,8.81948876953125,-0.003820037469267845,0.0028358104173094034,-0.001283205347135663
1772642717878529800,8.82952978515625,-0.003898974508047104,0.004738632123917341,-0.0025214559864252806
1772642717888571600,8.839571533203125,-0.005945614073425531,0.00637354701757431,-0.004527349025011063
1772642717898612700,8.84961279296875,-0.007297443691641092,0.009804400615394115,-0.009577615186572075
1772642717908654600,8.859654541015624,-0.009155530482530594,0.011517878621816635,-0.012880733236670494
1772642717918695700,8.86969580078125,-0.010869317688047886,0.012884722091257572,-0.012326654978096485
1772642717928737500,8.879737548828125,-0.012083719484508038,0.011275107972323895,-0.011553805321455002
1772642717938778600,8.889778564453126,-0.010975876823067665,0.011804219335317612,-0.009244855493307114
1772642717948820500,8.899820556640625,-0.010746578685939312,0.007638503331691027,-0.006896480452269316
1772642717958861600,8.909861572265624,-0.00911049172282219,0.004643518477678299,-0.003544213017448783
1772642717968903700,8.919903564453126,-0.009995992295444012,0.004510094411671162,-0.005092575214803219
1772642717978944800,8.92994482421875,-0.01254560612142086,0.004147280007600784,-0.011064951308071613
1772642717988986600,8.939986572265624,-0.013045747764408588,0.0032423376105725765,-0.015443720854818821
1772642717999027700,8.95002783203125,-0.01172412745654583,0.0004886232782155275,-0.0136619433760643
1772642718009069600,8.960069580078125,-0.01229191292077303,-0.0036419392563402653,-0.01293783076107502
1772642718019110700,8.970110595703124,-0.010267348960042,-0.004320221021771431,-0.012391539290547371
1772642718029152500,8.980152587890625,-0.011565107852220535,-0.003507424145936966,-0.012674633413553238
1772642718039193600,8.990193603515625,-0.012595855630934238,-0.003272240748628974,-0.011635946109890938
1772642718049235500,9.0002353515625,-0.014242754317820072,-0.004674927331507206,-0.012329965829849243
1772642718059276500,9.010276611328125,-0.012601054273545742,-0.004235570784658194,-0.013459569774568081
1772642718069318700,9.020318603515625,-0.013990691863000393,-0.006206309888511896,-0.013197780586779118
1772642718079359700,9.03035986328125,-0.012275041081011295,-0.001684106420725584,-0.011517999693751335
1772642718089401600,9.040401611328125,-0.013194098137319088,-0.00027476175455376506,-0.012019738554954529
1772642718099442700,9.050442626953124,-0.01251745130866766,0.0022650097962468863,-0.013344485312700272
1772642718109484800,9.06048486328125,-0.014203498139977455,0.004587019793689251,-0.01351279765367508
1772642718119526700,9.070526611328125,-0.01435866579413414,0.004476909060031176,-0.013544921763241291
1772642718129567700,9.080567626953124,-0.01499010156840086,0.003851598594337702,-0.013912702910602093
1772642718139608600,9.090608642578125,-0.014080814085900784,0.0022532145958393812,-0.011163804680109024
1772642718149650700,9.100650634765625,-0.012993978336453438,0.003110486315563321,-0.00903194397687912
1772642718159692800,9.11069287109375,-0.014365763403475285,0.006355111952871084,-0.00667786318808794
1772642718169734000,9.12073388671875,-0.012466397136449814,0.010056640021502972,-0.007051505148410797
1772642718179775700,9.130775634765625,-0.010768481530249119,0.012573222629725933,-0.010214269161224365
1772642718189816800,9.14081689453125,-0.008711456321179867,0.014573256485164165,-0.008167630061507225
1772642718199858700,9.150858642578125,-0.008627446368336678,0.010676389560103416,-0.00539934728294611
1772642718209899800,9.160899658203125,-0.00888550654053688,0.009472374804317951,-0.005062989890575409
1772642718219941600,9.170941650390626,-0.006594080477952957,0.012363391928374767,-0.0065811313688755035
1772642718229982700,9.180982666015625,-0.005808447953313589,0.014119479805231094,-0.006235186941921711
1772642718240024800,9.19102490234375,-0.007098600268363953,0.014987567439675331,-0.006398966535925865
1772642718250066000,9.20106591796875,-0.010617701336741447,0.017610514536499977,-0.004877768456935883
1772642718260107800,9.211107666015625,-0.01312394067645073,0.01585930399596691,-0.0024358269292861223
1772642718270148900,9.22114892578125,-0.012941514141857624,0.015416420996189117,-0.0027197201270610094
1772642718280190700,9.231190673828126,-0.011592535302042961,0.012450535781681538,-0.0008241671603173018
1772642718290231800,9.241231689453125,-0.010992258787155151,0.009863541461527348,-0.0019482874777168036
1772642718300273700,9.251273681640624,-0.006698200013488531,0.011642305180430412,-0.0037460809107869864
1772642718310314800,9.261314697265625,-0.008387976326048374,0.013352055102586746,-0.006926960311830044
1772642718320356600,9.271356689453125,-0.0074433754198253155,0.015128422528505325,-0.011467546224594116
1772642718330397700,9.281397705078126,-0.007129655685275793,0.016039222478866577,-0.015141909942030907
1772642718340439800,9.291439697265625,-0.004960305523127317,0.01746313087642193,-0.014105230569839478
1772642718350481000,9.30148095703125,-0.007756624836474657,0.01886528544127941,-0.016146009787917137
1772642718360522800,9.311522705078126,-0.005709475837647915,0.018366513773798943,-0.015706216916441917
1772642718370563800,9.321563720703125,-0.00528816320002079,0.01781577244400978,-0.017750458791851997
1772642718380605700,9.331605712890624,-0.004069702234119177,0.016440367326140404,-0.0162806399166584
1772642718390646800,9.341646728515625,-0.0046718427911400795,0.015767119824886322,-0.01675628125667572
1772642718400688600,9.351688720703125,-0.004046139772981405,0.01319177821278572,-0.016342582181096077
1772642718410729700,9.361729736328124,-0.0047971513122320175,0.01165833044797182,-0.01690477505326271
1772642718420771600,9.371771484375,-0.0031875274144113064,0.008954253047704697,-0.01981496438384056
1772642718430812700,9.381812744140625,-0.0018650016281753778,0.005788820795714855,-0.013335492461919785
1772642718440854800,9.391854736328124,-0.0012617497704923153,0.0015585774090141058,-0.011828353628516197
1772642718450896000,9.401895751953125,-0.0006497555295936763,0.0012927937787026167,-0.012588951736688614
1772642718460937700,9.411937744140625,-0.00039834307972341776,-0.0005883652484044433,-0.009553098119795322
1772642718470978800,9.421978759765626,-0.0006255107000470161,-0.0016371181700378656,-0.013260219246149063
1772642718481020700,9.432020751953125,-0.0020337682217359543,-0.0012416787212714553,-0.012849399819970131
1772642718491061800,9.442061767578124,0.0005098169203847647,-0.003115212544798851,-0.01248587854206562
1772642718501103600,9.452103515625,0.0017107210587710142,-0.00454421853646636,-0.011893605813384056
1772642718511144700,9.462144775390625,0.000773288425989449,-0.0049588726833462715,-0.008406462147831917
1772642718521186600,9.4721865234375,0.0006461909506469965,-0.005072972737252712,-0.00477179978042841
1772642718531227600,9.4822275390625,-0.0009879246354103088,-0.0032692134846001863,-0.00630950927734375
1772642718541269800,9.492269775390625,-0.00007608917076140642,-0.002069487702101469,-0.0036040886770933867
1772642718551310800,9.502310791015624,-0.002357619348913431,-0.000407142739277333,-0.002710065571591258
1772642718561352700,9.512352783203125,-0.0027142930775880814,-0.001288360683247447,-0.004000694490969181
1772642718571393800,9.522393798828125,-0.003311373759061098,-0.002832994097843766,-0.005029739812016487
1772642718581435600,9.532435546875,-0.004388758912682533,-0.0004657434765249491,-0.004487214609980583
1772642718591477800,9.542477783203125,-0.004775450099259615,-0.0009270029840990901,-0.005116253159940243
1772642718601518600,9.5525185546875,-0.0074586267583072186,-0.0003828092012554407,-0.003992524929344654
1772642718611560700,9.562560791015626,-0.008123618550598621,0.004034043289721012,-0.003973084501922131
1772642718621601500,9.5726015625,-0.008454171009361744,0.002754376269876957,-0.0034858952276408672
1772642718631643600,9.5826435546875,-0.008989999070763588,0.0029431942384690046,-0.0015359288081526756
1772642718641684700,9.592684814453126,-0.0073825903236866,0.0021520210430026054,0.001229361747391522
1772642718651726800,9.602726806640625,-0.0060539389960467815,0.0005288244574330747,0.0012053933460265398
1772642718661767700,9.612767578125,-0.006380176171660423,0.0017725207144394517,0.0022845061030238867
1772642718671809800,9.622809814453126,-0.004453911911696196,0.0023584160953760147,0.0012844891753047705
1772642718681850600,9.6328505859375,-0.0027230370324105024,0.004226699937134981,0.002865520538762212
1772642718691892700,9.642892822265624,-0.0026066568680107594,0.004385690670460463,0.0014551104977726936
1772642718701933600,9.65293359375,-0.0017413850873708725,0.006049465853720903,-0.000587949063628912
1772642718711975700,9.6629755859375,0.00015451916260644794,0.006658530794084072,0.00016386131756007671
1772642718722016500,9.6730166015625,-0.0015300274826586246,0.007846924476325512,-0.0025904099456965923
1772642718732059000,9.683058837890625,-0.0025737201794981956,0.006108946166932583,-0.0014750782866030931
1772642718742100700,9.693100830078125,-0.003291115630418062,0.006324744783341885,-0.0010688623879104853
1772642718752141300,9.703141357421876,-0.004083406180143356,0.005278654862195253,0.0021461057476699352
1772642718762183200,9.71318310546875,-0.0043451800011098385,0.0054950350895524025,0.014344234019517899
1772642718772224300,9.723224365234374,-0.00598115986213088,-0.0003556633018888533,0.04486086219549179
1772642718782266000,9.73326611328125,-0.008478191681206226,-0.005321381147950888,0.06262683868408203
1772642718792307200,9.74330712890625,-0.006250457838177681,-0.0072644236497581005,0.057713836431503296
1772642718802349300,9.753349365234374,-0.0025600960943847895,-0.005390161648392677,0.032953325659036636
1772642718812390400,9.763390380859375,0.002639193320646882,-0.002085977466776967,0.0004899273626506329
1772642718822432300,9.773432373046875,0.006100921425968409,0.0021078945137560368,-0.024152372032403946
1772642718832473300,9.783473388671876,0.007541957776993513,0.003126553725451231,-0.03193812072277069
1772642718842515200,9.79351513671875,0.007462488953024149,0.0027670213021337986,-0.036233678460121155
1772642718852556300,9.803556396484375,0.00682279746979475,0.002093774266541004,-0.03691598027944565
1772642718862598100,9.81359814453125,0.005176516715437174,0.00332766305655241,-0.0343732088804245
1772642718872639200,9.82363916015625,0.004614856094121933,0.002575053833425045,-0.020099196583032608
1772642718882681000,9.83368115234375,0.002840530127286911,-0.0027285679243505,-0.004022340290248394
