time,seconds_elapsed,z,y,x
1772642857000125000,0.359125,0.009100258350372314,-0.09782695770263672,0.014020740985870361
1772642857020136200,0.37913623046875,0.03352457284927368,-0.11458778381347656,0.02058851718902588
1772642857040147700,0.399147705078125,0.01764070987701416,-0.11935615539550781,-0.0012382864952087402
1772642857060158500,0.419158447265625,-0.020841896533966064,-0.1289997100830078,-0.0013507604598999023
1772642857080168400,0.43916845703125,-0.011175155639648438,-0.10268020629882812,-0.0020246505737304688
1772642857100178200,0.45917822265625,0.02983325719833374,-0.0955038070678711,0.004503130912780762
1772642857120188200,0.479188232421875,0.020106136798858643,-0.1219015121459961,0.01105278730392456
1772642857140198100,0.4991982421875,0.017532289028167725,-0.11240768432617188,-0.004613518714904785
1772642857160208000,0.519207763671875,-0.0043866634368896484,-0.09811878204345703,0.008740782737731934
1772642857180217900,0.5392177734375,0.012393951416015625,-0.09338092803955078,0.005360662937164307
1772642857200227800,0.559227783203125,-0.0034619569778442383,-0.11492347717285156,-0.002987384796142578
1772642857220237600,0.579237548828125,0.014311552047729492,-0.1148681640625,0.003653287887573242
1772642857240247600,0.59924755859375,-0.02844947576522827,-0.12446212768554688,0.029163897037506104
1772642857260257300,0.61925732421875,-0.014237642288208008,-0.12453556060791016,-0.0006364583969116211
1772642857280267300,0.639267333984375,-0.0050781965255737305,-0.12462997436523438,0.0031505227088928223
1772642857300277000,0.659277099609375,0.004248976707458496,-0.09356212615966797,0.0021799206733703613
1772642857320287000,0.679286865234375,0.014124453067779541,-0.0816202163696289,-0.0061002373695373535
1772642857340297000,0.699296875,0.0071035027503967285,-0.11281299591064453,0.007085084915161133
1772642857360306700,0.719306640625,0.00489431619644165,-0.12003612518310547,0.006124973297119141
1772642857380316700,0.739316650390625,-0.01656472682952881,-0.1032724380493164,0.008266091346740723
1772642857400326400,0.759326416015625,-0.023438334465026855,-0.10085773468017578,0.008111119270324707
1772642857420336400,0.77933642578125,-0.016247212886810303,-0.12000370025634766,-0.0011135339736938477
1772642857440346400,0.799346435546875,0.02680903673171997,-0.13162612915039062,-0.012816429138183594
1772642857460356000,0.819356201171875,0.0024715065956115723,-0.15046310424804688,-0.014865219593048096
1772642857480366000,0.839365966796875,0.02141869068145752,-0.12412834167480469,-0.0100441575050354
1772642857500376000,0.8593759765625,0.011267542839050293,-0.12661170959472656,0.025218188762664795
1772642857520385800,0.8793857421875,-0.011649549007415771,-0.14595603942871094,0.04573434591293335
1772642857540395800,0.899395751953125,-0.003241121768951416,-0.10300731658935547,0.05649900436401367
1772642857560405200,0.9194052734375,0.0003666877746582031,-0.10315704345703125,0.03618353605270386
1772642857580414700,0.939414794921875,-0.022101938724517822,-0.0888814926147461,0.009272158145904541
1772642857600424000,0.959423828125,0.015636026859283447,-0.0793447494506836,-0.003072381019592285
1772642857620433200,0.97943310546875,0.00646662712097168,-0.08891773223876953,0.03473919630050659
1772642857640442600,0.999442626953125,0.004730105400085449,-0.11794376373291016,0.02480417490005493
1772642857660451800,1.019451904296875,-0.0037478208541870117,-0.1062154769897461,0.003149688243865967
1772642857680461000,1.0394609375,0.011468887329101562,-0.12530899047851562,0.0030812621116638184
1772642857700470500,1.059470458984375,0.007116794586181641,-0.14444255828857422,0.001003563404083252
1772642857720479700,1.079479736328125,0.02046024799346924,-0.14927196502685547,0.0041741132736206055
1772642857740489000,1.099489013671875,-0.01811140775680542,-0.1038360595703125,-0.008167624473571777
1772642857760498400,1.11949853515625,0.0169183611869812,-0.07275676727294922,0.008256673812866211
1772642857780507600,1.139507568359375,-0.013562619686126709,-0.10393619537353516,-0.00477910041809082
1772642857800516900,1.159516845703125,-0.013341844081878662,-0.0895681381225586,0.02652597427368164
1772642857820526300,1.1795263671875,-0.008397340774536133,-0.07512569427490234,0.022726118564605713
1772642857840535600,1.19953564453125,0.018058300018310547,-0.10131263732910156,0.012242615222930908
1772642857860544800,1.219544677734375,-0.008021831512451172,-0.1368274688720703,-0.0007451176643371582
1772642857880554200,1.23955419921875,-0.005545318126678467,-0.1415395736694336,-0.004216372966766357
1772642857900563500,1.2595634765625,-0.033948659896850586,-0.1319103240966797,-0.010654032230377197
1772642857920572700,1.27957275390625,0.0036096572875976562,-0.11545276641845703,-0.012490570545196533
1772642857940582100,1.29958203125,0.00014334917068481445,-0.14130401611328125,-0.03416883945465088
1772642857960591400,1.31959130859375,-0.0009799003601074219,-0.10849475860595703,-0.02269434928894043
1772642857980600600,1.3396005859375,-0.012325942516326904,-0.09671783447265625,-0.006739258766174316
1772642858000610000,1.359610107421875,-0.018220067024230957,-0.11306285858154297,0.0062691569328308105
1772642858020619300,1.379619384765625,-0.0018905401229858398,-0.11797523498535156,-0.0024206042289733887
1772642858040628500,1.39962841796875,-0.003724217414855957,-0.08031272888183594,0.04182499647140503
1772642858060637700,1.4196376953125,0.0060631632804870605,-0.11392688751220703,0.055226683616638184
1772642858080646400,1.439646484375,-0.00170212984085083,-0.1356039047241211,0.0540885329246521
1772642858100655000,1.459655029296875,0.004905402660369873,-0.106964111328125,0.036350131034851074
1772642858120664000,1.4796640625,-0.0023415088653564453,-0.09746551513671875,0.018188655376434326
1772642858140672800,1.4996728515625,0.005292773246765137,-0.09274578094482422,0.03539013862609863
1772642858160681500,1.519681396484375,-0.018031597137451172,-0.123931884765625,0.0456157922744751
1772642858180690400,1.5396904296875,0.013976812362670898,-0.1023712158203125,0.013143718242645264
1772642858200699100,1.55969921875,-0.01151508092880249,-0.0783700942993164,0.036570191383361816
1772642858220707800,1.579707763671875,0.006454825401306152,-0.1070098876953125,0.0269964337348938
1772642858240716800,1.599716796875,-0.010957181453704834,-0.10445594787597656,0.015082478523254395
1772642858260725500,1.6197255859375,0.0006080269813537598,-0.10905265808105469,-0.0021434426307678223
1772642858280734200,1.639734130859375,0.002376854419708252,-0.09696769714355469,-0.015215814113616943
1772642858300743200,1.6597431640625,0.008525073528289795,-0.11123371124267578,-0.00601649284362793
1772642858320751900,1.679751953125,0.03371930122375488,-0.13989734649658203,0.0054895877838134766
1772642858340760600,1.699760498046875,0.002907276153564453,-0.13512420654296875,-0.019149065017700195
1772642858360769500,1.71976953125,0.00949406623840332,-0.12323379516601562,-0.010144293308258057
1772642858380778200,1.7397783203125,0.0161668062210083,-0.1137094497680664,-0.008414208889007568
1772642858400787000,1.759786865234375,0.04030519723892212,-0.12811851501464844,0.01251596212387085
1772642858420796000,1.7797958984375,0.004262208938598633,-0.09703826904296875,0.01909613609313965
1772642858440804600,1.7998046875,-0.03438377380371094,-0.11117839813232422,0.03299295902252197
1772642858460813300,1.819813232421875,0.01094663143157959,-0.08690261840820312,0.03526031970977783
1772642858480822300,1.839822265625,0.01640188694000244,-0.09881305694580078,0.025834858417510986
1772642858500831000,1.8598310546875,0.033966004848480225,-0.09633731842041016,0.021220743656158447
1772642858520839700,1.879839599609375,-0.010608136653900146,-0.1273975372314453,0.035588085651397705
1772642858540848400,1.899848388671875,-0.02865225076675415,-0.11768054962158203,0.02902960777282715
1772642858560856800,1.91985693359375,-0.014285266399383545,-0.12965679168701172,0.01707559823989868
1772642858580864800,1.93986474609375,-0.003116786479949951,-0.1321420669555664,0.014070510864257812
1772642858600872700,1.959872802734375,0.029728353023529053,-0.10583019256591797,0.013708770275115967
1772642858620880600,1.979880615234375,0.022921204566955566,-0.10343265533447266,0.011204004287719727
1772642858640888600,1.999888671875,-0.005453526973724365,-0.10819816589355469,-0.0029907822608947754
1772642858660896500,2.019896484375,-0.021861672401428223,-0.122589111328125,-0.005927681922912598
1772642858680904400,2.039904541015625,-0.00242006778717041,-0.12261962890625,0.0027046799659729004
1772642858700912400,2.059912353515625,-0.017645716667175293,-0.08918571472167969,0.014235317707061768
1772642858720920300,2.07992041015625,-0.00924992561340332,-0.10368156433105469,0.028236329555511475
1772642858740928300,2.09992822265625,0.004907131195068359,-0.1133127212524414,0.010960161685943604
1772642858760936200,2.119936279296875,0.014706611633300781,-0.12053108215332031,0.00526583194732666
1772642858780944100,2.139944091796875,0.005224049091339111,-0.08461380004882812,0.019246339797973633
1772642858800952000,2.1599521484375,0.02445167303085327,-0.08220291137695312,0.012224197387695312
1772642858820960000,2.1799599609375,-0.013246297836303711,-0.11090373992919922,0.01686340570449829
1772642858840968000,2.199968017578125,0.012813210487365723,-0.13740253448486328,0.005052387714385986
1772642858860975900,2.219975830078125,-0.014044702053070068,-0.1160287857055664,0.02648693323135376
1772642858880983800,2.23998388671875,-0.01152491569519043,-0.1255931854248047,0.009789347648620605
1772642858900991700,2.25999169921875,0.010374128818511963,-0.1183614730834961,0.010081708431243896
1772642858920999700,2.279999755859375,0.010852456092834473,-0.12549781799316406,-0.001751244068145752
1772642858941007600,2.300007568359375,-0.0036368370056152344,-0.11832904815673828,-0.016255676746368408
1772642858961015600,2.320015625,-0.006194770336151123,-0.10157966613769531,-0.011530816555023193
1772642858981023500,2.3400234375,-0.006088376045227051,-0.10873985290527344,0.01029980182647705
1772642859001031400,2.360031494140625,0.0009986162185668945,-0.12550830841064453,-0.015875041484832764
1772642859021039400,2.380039306640625,0.0028041601181030273,-0.10160064697265625,0.013246417045593262
1772642859041047000,2.400047119140625,0.03324764966964722,-0.11329174041748047,-0.0016821026802062988
1772642859061055700,2.4200556640625,-0.005251288414001465,-0.10335826873779297,-0.013563096523284912
1772642859081065200,2.440065185546875,0.002759277820587158,-0.0936574935913086,0.0016567111015319824
1772642859101074700,2.46007470703125,-0.008139610290527344,-0.11986351013183594,0.016872167587280273
1772642859121084200,2.480084228515625,-0.015561103820800781,-0.16056537628173828,0.027212202548980713
1772642859141093600,2.50009375,0.028992176055908203,-0.1054544448852539,0.016006946563720703
1772642859161103000,2.52010302734375,0.014881551265716553,-0.09580421447753906,0.02636539936065674
1772642859181112600,2.540112548828125,0.01079779863357544,-0.10529899597167969,0.017239809036254883
1772642859201122000,2.5601220703125,-0.0024497509002685547,-0.10518455505371094,0.029520690441131592
1772642859221131800,2.5801318359375,0.0246393084526062,-0.1266632080078125,0.0052678585052490234
1772642859241141200,2.600141357421875,0.008394360542297363,-0.13385868072509766,0.02211850881576538
1772642859261150700,2.620150634765625,-0.030489325523376465,-0.1291961669921875,-0.00756603479385376
1772642859281160200,2.64016015625,-0.007748246192932129,-0.12452507019042969,-0.02023458480834961
1772642859301169700,2.660169677734375,0.0038976669311523438,-0.08145618438720703,-0.01578456163406372
1772642859321179100,2.68017919921875,-0.002711057662963867,-0.08143806457519531,-0.011575043201446533
1772642859341188600,2.700188720703125,-0.01628732681274414,-0.10056781768798828,0.006970405578613281
1772642859361198000,2.720197998046875,-0.034452974796295166,-0.10529708862304688,0.028582334518432617
1772642859381207600,2.74020751953125,-0.01946645975112915,-0.11959266662597656,-0.0026383399963378906
1772642859401217300,2.76021728515625,-0.011494219303131104,-0.1314830780029297,0.0020365118980407715
1772642859421226800,2.780226806640625,-0.027036011219024658,-0.11943244934082031,0.011516094207763672
1772642859441236200,2.800236328125,-0.003091752529144287,-0.13139057159423828,0.009012162685394287
1772642859461245700,2.82024560546875,-0.012728691101074219,-0.11466693878173828,-0.010956943035125732
1772642859481255200,2.840255126953125,-0.03603315353393555,-0.10268306732177734,-0.00629955530166626
1772642859501264600,2.8602646484375,-0.025741755962371826,-0.09781169891357422,-0.004013121128082275
1772642859521274000,2.880274169921875,-0.05069386959075928,-0.10730934143066406,-0.009299993515014648
1772642859541283800,2.900283935546875,-0.023501455783843994,-0.08564376831054688,-0.0024359822273254395
1772642859561293600,2.92029345703125,-0.04033982753753662,-0.1070413589477539,0.004559218883514404
1772642859581303600,2.940303466796875,-0.029064297676086426,-0.1164541244506836,0.00934523344039917
1772642859601313500,2.9603134765625,-0.025729715824127197,-0.14269638061523438,-0.00697171688079834
1772642859621323800,2.98032373046875,-0.013517260551452637,-0.1282520294189453,0.022656917572021484
1772642859641334000,3.000333984375,-0.013379514217376709,-0.11591053009033203,0.004418373107910156
1772642859661344000,3.020343994140625,-0.03217238187789917,-0.10358333587646484,-0.0000476837158203125
1772642859681354200,3.040354248046875,0.008791029453277588,-0.09637832641601562,0.007095754146575928
1772642859701364200,3.0603642578125,-0.008007705211639404,-0.12033462524414062,0.009520173072814941
1772642859721374500,3.08037451171875,-0.006096363067626953,-0.13955116271972656,0.016499638557434082
1772642859741384400,3.100384521484375,-0.02855241298675537,-0.1348743438720703,-0.027845323085784912
1772642859761394700,3.120394775390625,-0.015006542205810547,-0.053531646728515625,-0.006839752197265625
1772642859781404700,3.14040478515625,-0.017734766006469727,-0.08951377868652344,0.011909544467926025
1772642859801415000,3.160414794921875,-0.003510415554046631,-0.10149478912353516,0.011630654335021973
1772642859821425000,3.1804248046875,-0.008211374282836914,-0.12066268920898438,-0.007739603519439697
1772642859841435100,3.20043505859375,-0.010891616344451904,-0.10662269592285156,-0.007599771022796631
1772642859861445000,3.220445068359375,-0.032421886920928955,-0.13329219818115234,-0.006789028644561768
1772642859881455400,3.240455322265625,-0.018212735652923584,-0.12366580963134766,0.008437037467956543
1772642859901465300,3.26046533203125,0.00822228193283081,-0.12843036651611328,0.001612842082977295
1772642859921475600,3.2804755859375,-0.012039363384246826,-0.1237192153930664,0.014098405838012695
1772642859941485600,3.300485595703125,-0.009026765823364258,-0.11429500579833984,-0.0006121993064880371
1772642859961495800,3.320495849609375,-0.010419607162475586,-0.08807182312011719,0.009110987186431885
1772642859981505800,3.340505859375,-0.001040041446685791,-0.09290599822998047,0.006713986396789551
1772642860001516000,3.36051611328125,-0.013554692268371582,-0.13367557525634766,-0.0004601478576660156
1772642860021526000,3.380526123046875,-0.017201244831085205,-0.11220359802246094,0.009490787982940674
1772642860041536300,3.400536376953125,-0.020578205585479736,-0.076019287109375,0.014607012271881104
1772642860061546000,3.4205458984375,0.002347230911254883,-0.11170005798339844,0.014606654644012451
1772642860081555000,3.440554931640625,-0.004931986331939697,-0.1117105484008789,0.02653062343597412
1772642860101564200,3.460564208984375,0.011903107166290283,-0.12368202209472656,0.04087918996810913
1772642860121573400,3.480573486328125,0.001865983009338379,-0.1117391586303711,0.033796846866607666
1772642860141582300,3.500582275390625,-0.0036109089851379395,-0.11897945404052734,0.03150129318237305
1772642860161591600,3.520591552734375,-0.020856380462646484,-0.1022653579711914,0.03368133306503296
1772642860181600800,3.540600830078125,-0.02550637722015381,-0.09271621704101562,0.016106367111206055
1772642860201609700,3.560609619140625,-0.008845627307891846,-0.10712623596191406,0.025220215320587158
1772642860221619000,3.580618896484375,0.016957342624664307,-0.1000070571899414,0.029657959938049316
1772642860241628000,3.6006279296875,0.0024782419204711914,-0.09765815734863281,-0.011999309062957764
1772642860261637000,3.62063720703125,-0.03586918115615845,-0.09292411804199219,-0.005747854709625244
1772642860281646300,3.640646240234375,-0.011876463890075684,-0.12410163879394531,-0.011529624462127686
1772642860301655300,3.6606552734375,-0.001954495906829834,-0.11930179595947266,-0.006772875785827637
1772642860321664500,3.68066455078125,0.021892309188842773,-0.09771728515625,-0.026133477687835693
1772642860341673700,3.700673828125,0.012590229511260986,-0.1024618148803711,-0.004596710205078125
1772642860361682700,3.7206826171875,0.0014706254005432129,-0.10480213165283203,-0.006879270076751709
1772642860381692000,3.74069189453125,0.004409849643707275,-0.10474491119384766,-0.011980175971984863
1772642860401700900,3.760700927734375,0.014372110366821289,-0.10231208801269531,0.007287502288818359
1772642860421710000,3.7807099609375,0.017062842845916748,-0.11664867401123047,0.031717121601104736
1772642860441719300,3.80071923828125,-0.00781172513961792,-0.09023284912109375,0.04381585121154785
1772642860461728300,3.820728271484375,-0.003965854644775391,-0.1140594482421875,0.04865008592605591
1772642860481737500,3.840737548828125,0.028381288051605225,-0.09955406188964844,0.02520078420639038
1772642860501746400,3.860746337890625,-0.006602466106414795,-0.08084869384765625,0.026204168796539307
1772642860521755600,3.880755615234375,0.009133756160736084,-0.10642719268798828,0.017587363719940186
1772642860541764900,3.900764892578125,-0.010585784912109375,-0.11578178405761719,0.01878368854522705
1772642860561773800,3.92077392578125,-0.004151642322540283,-0.1395244598388672,0.020016252994537354
1772642860581783000,3.940782958984375,-0.007947802543640137,-0.13041210174560547,0.027969300746917725
1772642860601792300,3.960792236328125,0.001524209976196289,-0.12799453735351562,0.009338736534118652
1772642860621801500,3.980801513671875,-0.02005314826965332,-0.08728790283203125,0.021071970462799072
1772642860641810400,4.000810546875,-0.010007977485656738,-0.07977867126464844,0.03277599811553955
1772642860661819600,4.020819580078125,0.004513919353485107,-0.10818195343017578,0.022253453731536865
1772642860681828900,4.040828857421875,-0.01690828800201416,-0.13212299346923828,0.04141700267791748
1772642860701838000,4.060838134765625,-0.01472097635269165,-0.13451862335205078,0.012986481189727783
1772642860721847000,4.080846923828125,0.021016240119934082,-0.10814189910888672,-0.005414307117462158
1772642860741856300,4.100856201171875,-0.004730284214019775,-0.08650684356689453,0.001883387565612793
1772642860761865500,4.120865478515625,-0.0137251615524292,-0.11278438568115234,-0.009695470333099365
1772642860781874700,4.140874755859375,-0.04436290264129639,-0.10789871215820312,0.010085463523864746
1772642860801883600,4.160883544921875,-0.03398483991622925,-0.1388988494873047,0.004159986972808838
1772642860821892900,4.180892822265625,-0.02174907922744751,-0.11725711822509766,-0.004344582557678223
1772642860841902000,4.200902099609375,-0.031464338302612305,-0.09324455261230469,-0.003179490566253662
1772642860861911300,4.220911376953125,-0.017206013202667236,-0.11236572265625,-0.028593599796295166
1772642860881920300,4.240920166015625,-0.020004987716674805,-0.0979623794555664,-0.01547020673751831
1772642860901929500,4.260929443359375,-0.03034907579421997,-0.1338510513305664,-0.02314126491546631
1772642860921938700,4.280938720703125,-0.023830413818359375,-0.1146230697631836,-0.04011678695678711
1772642860941948000,4.300947998046875,-0.02211695909500122,-0.12654781341552734,-0.019054949283599854
1772642860961956900,4.320956787109375,-0.05620241165161133,-0.13367462158203125,-0.01471489667892456
1772642860981966000,4.340966064453125,-0.05432087182998657,-0.12880706787109375,0.006592214107513428
1772642861001975300,4.360975341796875,-0.028815269470214844,-0.11679649353027344,-0.015453457832336426
1772642861021984500,4.380984619140625,-0.017314791679382324,-0.08556747436523438,-0.00598597526550293
1772642861041993500,4.400993408203125,-0.022842705249786377,-0.09747886657714844,-0.0036240816116333008
1772642861062003000,4.4210029296875,-0.05230039358139038,-0.12853050231933594,0.00389254093170166
1772642861082013000,4.441012939453125,-0.028584182262420654,-0.08052921295166016,0.01553565263748169
1772642861102022700,4.461022705078125,-0.02369701862335205,-0.12114238739013672,0.012591779232025146
1772642861122032600,4.48103271484375,-0.057370781898498535,-0.1138753890991211,0.028685808181762695
1772642861142042600,4.501042724609375,-0.03419226408004761,-0.13539600372314453,0.028233647346496582
1772642861162052400,4.52105224609375,-0.027685880661010742,-0.1329488754272461,0.035081684589385986
1772642861182062300,4.541062255859375,-0.0190468430519104,-0.08981704711914062,0.01766204833984375
1772642861202072300,4.561072265625,-0.016860902309417725,-0.058624267578125,0.02614450454711914
1772642861222082000,4.58108203125,-0.02359253168106079,-0.10161876678466797,0.03731250762939453
1772642861242092000,4.601092041015625,-0.024798929691314697,-0.1277608871459961,0.04886287450790405
1772642861262102000,4.62110205078125,-0.021969377994537354,-0.1324291229248047,0.04810374975204468
1772642861282111700,4.64111181640625,-0.019906580448150635,-0.09884452819824219,0.030366897583007812
1772642861302121700,4.661121826171875,-0.00609201192855835,-0.13178730010986328,0.014427721500396729
1772642861322131500,4.68113134765625,-0.001460731029510498,-0.10812759399414062,0.0024886131286621094
1772642861342141400,4.701141357421875,-0.013377964496612549,-0.11500740051269531,-0.012126147747039795
1772642861362151400,4.7211513671875,-0.007946670055389404,-0.08623123168945312,-0.012601256370544434
1772642861382161200,4.7411611328125,-0.013189971446990967,-0.10783958435058594,-0.005601286888122559
1772642861402171100,4.761171142578125,-0.02362614870071411,-0.10790824890136719,0.019042134284973145
1772642861422180900,4.781180908203125,-0.01489323377609253,-0.11994075775146484,-0.014768362045288086
1772642861442190800,4.80119091796875,-0.00883406400680542,-0.12239360809326172,-0.01640605926513672
1772642861462200800,4.821200927734375,-0.01921182870864868,-0.11040496826171875,-0.019664466381072998
1772642861482210600,4.84121044921875,-0.023869812488555908,-0.11269855499267578,-0.005975008010864258
1772642861502220500,4.861220458984375,-0.04041421413421631,-0.09584236145019531,0.00012195110321044922
1772642861522230500,4.88123046875,-0.0192033052444458,-0.12217426300048828,0.005808353424072266
1772642861542240300,4.901240234375,-0.017409920692443848,-0.11020278930664062,-0.000462949275970459
1772642861562249700,4.921249755859375,-0.008617043495178223,-0.09582042694091797,0.000498652458190918
1772642861582259000,4.941259033203125,-0.0018416643142700195,-0.1077890396118164,0.01094883680343628
1772642861602268200,4.96126806640625,0.002080261707305908,-0.1413421630859375,0.014017641544342041
1772642861622277000,4.981277099609375,-0.03656303882598877,-0.11023807525634766,0.01241302490234375
1772642861642286300,5.001286376953125,0.000846564769744873,-0.10335159301757812,0.006530821323394775
1772642861662295600,5.021295654296875,-0.023000776767730713,-0.10122394561767578,0.01496654748916626
1772642861682304500,5.041304443359375,-0.011587738990783691,-0.13446426391601562,0.008681535720825195
1772642861702313700,5.061313720703125,0.011240005493164062,-0.12967205047607422,-0.0021835267543792725
1772642861722323000,5.081322998046875,-0.0008805990219116211,-0.09162235260009766,0.006480872631072998
1772642861742332000,5.101331787109375,-0.008184552192687988,-0.09399700164794922,-0.005174696445465088
1772642861762341000,5.121341064453125,-0.008668124675750732,-0.14912128448486328,0.026497244834899902
1772642861782350300,5.141350341796875,-0.04543030261993408,-0.10364341735839844,0.036817073822021484
1772642861802359300,5.161359375,-0.02468794584274292,-0.10125255584716797,0.04530772566795349
1772642861822368500,5.181368408203125,-0.00843137502670288,-0.1299600601196289,0.02536073327064514
1772642861842377700,5.201377685546875,-0.02582573890686035,-0.08888816833496094,0.023910969495773315
1772642861862386700,5.22138671875,-0.01151818037033081,-0.09568405151367188,0.04147377610206604
1772642861882396000,5.24139599609375,-0.015385568141937256,-0.07875728607177734,0.03825753927230835
1772642861902405000,5.261405029296875,0.00032013654708862305,-0.1121225357055664,0.05374133586883545
1772642861922414000,5.2814140625,-0.013784646987915039,-0.15750694274902344,0.06490170955657959
1772642861942423300,5.30142333984375,-0.022387385368347168,-0.15259838104248047,0.04692515730857849
1772642861962432500,5.3214326171875,-0.05361229181289673,-0.12623214721679688,0.013856559991836548
1772642861982441500,5.34144140625,-0.03447180986404419,-0.087890625,0.008759379386901855
1772642862002450700,5.36145068359375,-0.04393923282623291,-0.11597347259521484,-0.00021150708198547363
1772642862022460000,5.3814599609375,-0.010712683200836182,-0.1135416030883789,-0.00904819369316101
1772642862042468900,5.40146875,-0.017764925956726074,-0.10183143615722656,-0.010181188583374023
1772642862062478300,5.421478271484375,-0.0502316951751709,-0.07568359375,-0.01355007290840149
1772642862082488000,5.441488037109375,-0.04252880811691284,-0.08992385864257812,-0.002438157796859741
1772642862102497500,5.46149755859375,-0.0457836389541626,-0.11367321014404297,0.006565660238265991
1772642862122507300,5.48150732421875,-0.025181949138641357,-0.10625648498535156,-0.011052876710891724
1772642862142517000,5.50151708984375,-0.03379642963409424,-0.1036672592163086,0.003772526979446411
1772642862162526500,5.5215263671875,-0.03570079803466797,-0.12749385833740234,0.000755608081817627
1772642862182536200,5.5415361328125,-0.023535966873168945,-0.11780834197998047,0.016926497220993042
1772642862202546000,5.5615458984375,-0.028164982795715332,-0.09374809265136719,-0.00030103325843811035
1772642862222555600,5.5815556640625,-0.0039064884185791016,-0.09363746643066406,0.008610069751739502
1772642862242565000,5.601565185546875,0.0113297700881958,-0.11744976043701172,0.012142449617385864
1772642862262574800,5.621574951171875,-0.018553197383880615,-0.12685298919677734,0.033110201358795166
1772642862282584600,5.64158447265625,0.0017850995063781738,-0.12187957763671875,0.019864588975906372
1772642862302594300,5.66159423828125,-0.005360126495361328,-0.1409597396850586,0.002364546060562134
1772642862322603800,5.681603759765625,-0.0132712721824646,-0.11460685729980469,0.03040650486946106
1772642862342613500,5.701613525390625,-0.03570830821990967,-0.11462688446044922,0.019294142723083496
1772642862362623200,5.721623291015625,-0.019232332706451416,-0.10262489318847656,0.022755563259124756
1772642862382632700,5.7416328125,0.011524200439453125,-0.10980701446533203,0.011583328247070312
1772642862402642400,5.761642333984375,-0.001710653305053711,-0.1026926040649414,-0.006822705268859863
1772642862422652200,5.781652099609375,-0.005809962749481201,-0.10519027709960938,0.003734797239303589
1772642862442662000,5.801661865234375,-0.006233096122741699,-0.08121109008789062,0.02178633213043213
1772642862462671400,5.82167138671875,-0.03910553455352783,-0.090667724609375,0.035207122564315796
1772642862482681000,5.84168115234375,-0.041762709617614746,-0.1289234161376953,0.04688763618469238
1772642862502690800,5.86169091796875,-0.03978145122528076,-0.13840198516845703,0.045119643211364746
1772642862522700500,5.881700439453125,-0.015875697135925293,-0.09033489227294922,0.0318567156791687
1772642862542710000,5.9017099609375,0.020770609378814697,-0.054190635681152344,0.025625556707382202
1772642862562719500,5.921719482421875,-0.0073830485343933105,-0.11387920379638672,0.033659666776657104
1772642862582729000,5.94172900390625,-0.0594637393951416,-0.1544046401977539,0.06807214021682739
1772642862602738400,5.961738525390625,-0.049894511699676514,-0.1878042221069336,0.044819414615631104
1772642862622747600,5.98174755859375,-0.03447413444519043,-0.14706039428710938,-0.012218832969665527
1772642862642757000,6.001757080078125,-0.016708731651306152,-0.09881019592285156,-0.038476139307022095
1772642862662766600,6.0217666015625,-0.008165955543518066,-0.0912618637084961,-0.05500498414039612
1772642862682775800,6.04177587890625,0.005988478660583496,-0.09117317199707031,-0.03336101770401001
1772642862702785300,6.061785400390625,-0.008984565734863281,-0.13424301147460938,-0.03337907791137695
1772642862722794500,6.08179443359375,-0.033610403537750244,-0.07432365417480469,-0.007304936647415161
1772642862742804000,6.101803955078125,-0.017708301544189453,-0.09106636047363281,0.026176929473876953
1772642862762813400,6.1218134765625,-0.006564080715179443,-0.10062217712402344,0.023778945207595825
1772642862782822700,6.14182275390625,-0.013988494873046875,-0.10534286499023438,0.04751574993133545
1772642862802832100,6.16183203125,-0.005414485931396484,-0.08372116088867188,0.07380065321922302
1772642862822841600,6.181841552734375,-0.005312740802764893,-0.10997676849365234,0.0735081136226654
1772642862842850800,6.201850830078125,-0.028325438499450684,-0.10503387451171875,0.05663755536079407
1772642862862860300,6.2218603515625,0.0039653778076171875,-0.11686134338378906,0.05671003460884094
1772642862882869800,6.241869873046875,-0.007570326328277588,-0.13832569122314453,0.031791746616363525
1772642862902879000,6.26187890625,-0.0050087571144104,-0.1406698226928711,0.04946494102478027
1772642862922888400,6.281888427734375,-0.023789286613464355,-0.10946941375732422,0.026141077280044556
1772642862942897700,6.301897705078125,-0.020777225494384766,-0.10971546173095703,0.02852720022201538
1772642862962907100,6.3219072265625,-0.04341161251068115,-0.12132549285888672,0.0020113885402679443
1772642862982916600,6.34191650390625,-0.012064874172210693,-0.12843799591064453,-0.0017091631889343262
1772642863002925800,6.36192578125,-0.01613306999206543,-0.11458206176757812,-0.003960251808166504
1772642863022935300,6.381935302734375,-0.023033082485198975,-0.14984989166259766,-0.03196406364440918
1772642863042944800,6.40194482421875,0.0032382607460021973,-0.1189422607421875,-0.028707921504974365
1772642863062953700,6.42195361328125,0.004976987838745117,-0.10424995422363281,-0.028403371572494507
1772642863082962400,6.44196240234375,-0.04196888208389282,-0.1185750961303711,-0.025608479976654053
1772642863102971400,6.461971435546875,-0.02638864517211914,-0.11365222930908203,-0.01596081256866455
1772642863122980000,6.48197998046875,-0.01601332426071167,-0.10634708404541016,0.02537509799003601
1772642863142988800,6.50198876953125,-0.015831172466278076,-0.12066173553466797,0.014448761940002441
1772642863162997500,6.52199755859375,-0.025562822818756104,-0.1086416244506836,0.030233174562454224
1772642863183006500,6.54200634765625,-0.015678882598876953,-0.10616683959960938,0.053156912326812744
1772642863203015200,6.56201513671875,-0.03392791748046875,-0.12042427062988281,0.03487980365753174
1772642863223023900,6.58202392578125,-0.02566373348236084,-0.1131134033203125,0.033319324254989624
1772642863243032800,6.60203271484375,-0.0450400710105896,-0.10802173614501953,0.012927979230880737
1772642863263041500,6.62204150390625,-0.009209871292114258,-0.14185333251953125,-0.0022465884685516357
1772642863283050200,6.64205029296875,-0.02586275339126587,-0.11788368225097656,-0.015857577323913574
1772642863303059000,6.662058837890625,-0.02352297306060791,-0.12056827545166016,-0.03161579370498657
1772642863323068000,6.68206787109375,-0.0028624534606933594,-0.11128997802734375,-0.01120448112487793
1772642863343076600,6.70207666015625,0.0007020235061645508,-0.07779884338378906,-0.011774390935897827
1772642863363085300,6.722085205078125,-0.018831312656402588,-0.11132144927978516,-0.01679760217666626
1772642863383094000,6.742093994140625,-0.026524364948272705,-0.13285541534423828,0.001772850751876831
1772642863403103000,6.76210302734375,-0.03904503583908081,-0.10410499572753906,0.007885277271270752
1772642863423111700,6.782111572265625,-0.03784090280532837,-0.13291549682617188,0.04246336221694946
1772642863443120400,6.802120361328125,-0.03414219617843628,-0.1374368667602539,0.03565925359725952
1772642863463129300,6.82212939453125,-0.016695916652679443,-0.11324214935302734,0.04974663257598877
1772642863483138000,6.842137939453125,-0.008312642574310303,-0.11815071105957031,0.05650767683982849
1772642863503146800,6.862146728515625,-0.038102149963378906,-0.11829090118408203,0.038478970527648926
1772642863523155500,6.882155517578125,-0.030028223991394043,-0.1280384063720703,0.05434712767601013
1772642863543164400,6.902164306640625,-0.04965078830718994,-0.10895156860351562,0.05101785063743591
1772642863563173000,6.922173095703125,-0.03761458396911621,-0.10387134552001953,0.045491576194763184
1772642863583182300,6.942182373046875,-0.016147732734680176,-0.10598278045654297,0.03067481517791748
1772642863603191300,6.96219140625,-0.049591124057769775,-0.10596752166748047,0.028429657220840454
1772642863623200300,6.9822001953125,-0.03539741039276123,-0.11075878143310547,0.0024737417697906494
1772642863643209500,7.00220947265625,-0.03773355484008789,-0.09907245635986328,0.014801740646362305
1772642863663218400,7.022218505859375,-0.04461479187011719,-0.11614131927490234,0.016820460557937622
1772642863683227400,7.042227294921875,-0.024866342544555664,-0.1017446517944336,0.015779852867126465
1772642863703236400,7.062236328125,-0.03852754831314087,-0.08493614196777344,-0.0017907917499542236
1772642863723245600,7.08224560546875,-0.030109107494354248,-0.10399341583251953,0.010118216276168823
1772642863743254500,7.102254638671875,-0.01434016227722168,-0.12004566192626953,0.00768589973449707
1772642863763263500,7.122263427734375,-0.007992982864379883,-0.13907623291015625,0.0004038512706756592
1772642863783272700,7.142272705078125,-0.033968448638916016,-0.14143085479736328,-0.008926630020141602
1772642863803281700,7.16228173828125,-0.04377812147140503,-0.11744117736816406,-0.01227712631225586
1772642863823290600,7.18229052734375,-0.055674195289611816,-0.1293649673461914,0.005692243576049805
1772642863843299800,7.2022998046875,-0.012843549251556396,-0.11287689208984375,0.014292001724243164
1772642863863308800,7.222308837890625,-0.0017351508140563965,-0.1036520004272461,0.01270526647567749
1772642863883317800,7.24231787109375,-0.002068936824798584,-0.10132408142089844,0.017155885696411133
1772642863903327000,7.262326904296875,-0.02354663610458374,-0.09418582916259766,0.028335154056549072
1772642863923336000,7.2823359375,-0.03786975145339966,-0.11576366424560547,0.037320345640182495
1772642863943345000,7.302344970703125,-0.047647297382354736,-0.13736915588378906,0.03175640106201172
1772642863963353900,7.322353759765625,-0.0465279221534729,-0.11835575103759766,0.033173054456710815
1772642863983363000,7.342363037109375,-0.03851425647735596,-0.11374092102050781,0.012950867414474487
1772642864003372000,7.3623720703125,0.010447204113006592,-0.07793521881103516,0.02089935541152954
1772642864023381000,7.382381103515625,-0.02030390501022339,-0.11396217346191406,0.024042636156082153
1772642864043390200,7.40239013671875,-0.03269904851913452,-0.13290691375732422,0.024333924055099487
1772642864063399400,7.4223994140625,-0.0406152606010437,-0.09946060180664062,0.012799501419067383
1772642864083409700,7.44240966796875,-0.0147055983543396,-0.11362648010253906,0.016208171844482422
1772642864103420000,7.462419921875,-0.03898578882217407,-0.12091445922851562,0.0047744810581207275
1772642864123430000,7.482429931640625,0.013117730617523193,-0.11146354675292969,0.014782845973968506
1772642864143440100,7.502440185546875,0.026706159114837646,-0.10681629180908203,0.015268594026565552
1772642864163450000,7.5224501953125,-0.03567010164260864,-0.1308584213256836,0.006116926670074463
1772642864183460400,7.54246044921875,-0.05247384309768677,-0.114166259765625,-0.0029040873050689697
1772642864203470600,7.562470703125,-0.015141308307647705,-0.10232830047607422,-0.0017943978309631348
1772642864223480600,7.58248046875,-0.004448235034942627,-0.12643051147460938,-0.01942610740661621
1772642864243490800,7.60249072265625,-0.0031787753105163574,-0.09779930114746094,0.001127779483795166
1772642864263500800,7.622500732421875,0.020621657371520996,-0.10506916046142578,0.012016117572784424
1772642864283511000,7.642510986328125,-0.04205286502838135,-0.1003427505493164,-0.017460525035858154
1772642864303521300,7.662521240234375,-0.03848826885223389,-0.1172332763671875,-0.01066175103187561
1772642864323531300,7.68253125,-0.024611294269561768,-0.10530948638916016,0.017834901809692383
1772642864343541500,7.70254150390625,-0.02703416347503662,-0.1292858123779297,0.010223954916000366
1772642864363551500,7.722551513671875,-0.027206361293792725,-0.12453651428222656,0.023912698030471802
1772642864383561700,7.742561767578125,-0.027946054935455322,-0.10547065734863281,0.02071821689605713
1772642864403571700,7.76257177734375,-0.04797261953353882,-0.0959939956665039,0.024770915508270264
1772642864423582000,7.78258203125,0.012873589992523193,-0.09849071502685547,0.028919875621795654
1772642864443592200,7.80259228515625,-0.0020456910133361816,-0.11296558380126953,0.017760038375854492
1772642864463602200,7.822602294921875,-0.032854557037353516,-0.0962228775024414,0.00894099473953247
1772642864483612400,7.8426123046875,-0.028472542762756348,-0.1490030288696289,0.012676805257797241
1772642864503622400,7.862622314453125,-0.03617262840270996,-0.1203145980834961,0.01715672016143799
1772642864523632600,7.882632568359375,-0.00788336992263794,-0.08922958374023438,0.004847168922424316
1772642864543643000,7.902642822265625,0.01080310344696045,-0.0941009521484375,-0.008090317249298096
1772642864563652400,7.92265234375,-0.015152215957641602,-0.08694171905517578,-0.021495312452316284
1772642864583661300,7.942661376953125,-0.012002408504486084,-0.13242149353027344,0.02563193440437317
1772642864603670500,7.96267041015625,-0.04238647222518921,-0.12520122528076172,0.02721172571182251
1772642864623679500,7.982679443359375,0.016705214977264404,-0.1345386505126953,0.026334017515182495
1772642864643688700,8.002688720703125,-0.014482975006103516,-0.1277456283569336,0.011705189943313599
1772642864663697700,8.02269775390625,-0.02731114625930786,-0.1158905029296875,0.006399065256118774
1772642864683707000,8.042706787109376,-0.0309903621673584,-0.07288837432861328,0.0009275078773498535
1772642864703715800,8.0627158203125,0.014169692993164062,-0.08496284484863281,0.013760536909103394
1772642864723724800,8.082724853515625,-0.02430647611618042,-0.12098217010498047,0.016827434301376343
1772642864743734000,8.102734130859375,0.004496872425079346,-0.06590652465820312,0.008990764617919922
1772642864763743000,8.122742919921874,-0.009990990161895752,-0.0994873046875,0.025019139051437378
1772642864783752200,8.142752197265626,0.020769357681274414,-0.11632823944091797,0.02651152014732361
1772642864803761200,8.16276123046875,-0.003337562084197998,-0.12115478515625,0.004425108432769775
1772642864823770000,8.18277001953125,-0.034237027168273926,-0.12598514556884766,0.018633365631103516
1772642864843779300,8.202779296875,-0.03006809949874878,-0.10207366943359375,0.013439804315567017
1772642864863788300,8.222788330078124,-0.04020315408706665,-0.10455131530761719,0.005535036325454712
1772642864883797500,8.242797607421876,-0.019195258617401123,-0.09500694274902344,0.007554858922958374
1772642864903806500,8.262806396484375,-0.0042198896408081055,-0.10214614868164062,-0.0021741092205047607
1772642864923815400,8.2828154296875,-0.01734226942062378,-0.1259908676147461,0.01941382884979248
1772642864943824600,8.30282470703125,-0.026015818119049072,-0.1019439697265625,0.01247301697731018
1772642864963833600,8.32283349609375,-0.05839502811431885,-0.1018819808959961,0.024774014949798584
1772642864983842800,8.3428427734375,-0.03884059190750122,-0.11144256591796875,0.03403171896934509
1772642865003851800,8.362851806640625,-0.027135133743286133,-0.11624431610107422,0.040878117084503174
1772642865023861000,8.382861083984375,-0.023800551891326904,-0.1018056869506836,0.028564542531967163
1772642865043870000,8.402869873046875,-0.034956395626068115,-0.11130714416503906,0.027532368898391724
1772642865063879700,8.422879638671875,-0.0316886305809021,-0.08013534545898438,0.016910821199417114
1772642865083890200,8.44289013671875,-0.019047200679779053,-0.13520240783691406,0.020991623401641846
1772642865103900400,8.462900390625,-0.014330565929412842,-0.14002609252929688,0.02516835927963257
1772642865123911000,8.482910888671874,0.006975293159484863,-0.09215927124023438,0.036688804626464844
1772642865143921400,8.50292138671875,-0.031505584716796875,-0.12092971801757812,0.03643473982810974
1772642865163931600,8.522931640625,-0.01053154468536377,-0.1353435516357422,0.027083486318588257
1772642865183942100,8.542942138671876,-0.005634009838104248,-0.06344032287597656,0.02236384153366089
1772642865203952600,8.56295263671875,0.0019722580909729004,-0.09934139251708984,0.022237271070480347
1772642865223963000,8.582962890625,0.00448000431060791,-0.10894203186035156,0.016793161630630493
1772642865243973400,8.602973388671876,-0.03815758228302002,-0.11615848541259766,0.030124664306640625
1772642865263983900,8.62298388671875,-0.02432119846343994,-0.12105274200439453,0.03602117300033569
1772642865283994000,8.642994140625,-0.017488539218902588,-0.10438346862792969,0.02726653218269348
1772642865304004600,8.663004638671875,-0.010282754898071289,-0.1236429214477539,0.02030128240585327
1772642865324015000,8.68301513671875,-0.030509889125823975,-0.11902999877929688,0.04027664661407471
1772642865344025300,8.703025390625,-0.05286884307861328,-0.10240459442138672,-0.0023948252201080322
1772642865364035800,8.723035888671875,-0.06546741724014282,-0.10491180419921875,0.017900586128234863
1772642865384046300,8.74304638671875,-0.04203224182128906,-0.07384586334228516,0.012468487024307251
1772642865404056600,8.763056640625,-0.015112459659576416,-0.09539985656738281,-0.0005412399768829346
1772642865424067000,8.783067138671875,-0.02091801166534424,-0.14804840087890625,0.007516026496887207
1772642865444077600,8.80307763671875,-0.043905794620513916,-0.13301849365234375,-0.00443616509437561
1772642865464087800,8.823087890625,-0.025656938552856445,-0.11140251159667969,0.0011504888534545898
1772642865484098300,8.843098388671875,-0.06870770454406738,-0.1138753890991211,-0.024647653102874756
