time,seconds_elapsed,z,y,x
1772642856827525400,0.186525390625,-0.0023968429304659367,-0.0005326317623257637,-0.0030626326333731413
1772642856847536600,0.20653662109375,-0.0013315794058144093,0,-0.0003994738217443228
1772642856857542400,0.21654248046875,-0.0029294746927917004,-0.003195790573954582,0.0027963167522102594
1772642856867548200,0.226548095703125,-0.0007989476434886456,-0.002130527049303055,0.0006657897029072046
1772642856877553700,0.2365537109375,0.00026631588116288185,-0.002130527049303055,-0.0025300008710473776
1772642856887559400,0.246559326171875,-0.0029294746927917004,-0.001597895286977291,-0.0030626326333731413
1772642856897565200,0.256565185546875,-0.001864211168140173,0.0005326317623257637,-0.003595264395698905
1772642856907571000,0.266571044921875,-0.003462106455117464,0.0005326317623257637,-0.006791055202484131
1772642856917576400,0.276576416015625,-0.0013315794058144093,0.003728422336280346,-0.008388950489461422
1772642856927582200,0.286582275390625,-0.001864211168140173,0.003728422336280346,-0.006258423440158367
1772642856937588000,0.296587890625,-0.001864211168140173,0.00426105409860611,-0.003595264395698905
1772642856947593700,0.30659375,-0.0007989476434886456,0.0026631588116288185,-0.001997369108721614
1772642856957599200,0.31659912109375,-0.001864211168140173,-0.0010652635246515274,-0.0003994738217443228
1772642856967605000,0.32660498046875,-0.001864211168140173,-0.003728422336280346,-0.0003994738217443228
1772642856977610800,0.33661083984375,-0.0013315794058144093,0,0.0006657897029072046
1772642856987616300,0.3466162109375,-0.0013315794058144093,0.0005326317623257637,-0.0003994738217443228
1772642856997622000,0.3566220703125,-0.0029294746927917004,0.003728422336280346,-0.003595264395698905
1772642857007627800,0.366627685546875,-0.003994738217443228,0.006391581147909164,-0.0030626326333731413
1772642857017633500,0.376633544921875,-0.0029294746927917004,0.007456844672560692,-0.0030626326333731413
1772642857027639000,0.38663916015625,-0.005060001742094755,0.003195790573954582,-0.001997369108721614
1772642857037644800,0.396644775390625,-0.0023968429304659367,0.001597895286977291,-0.004127896390855312
1772642857047650600,0.406650634765625,-0.0023968429304659367,-0.002130527049303055,0.00013315794058144093
1772642857057656000,0.416656005859375,-0.0023968429304659367,0.0010652635246515274,0.0027963167522102594
1772642857067661000,0.4266611328125,-0.0029294746927917004,0.003195790573954582,0.0011984214652329683
1772642857077666000,0.436666015625,-0.0029294746927917004,0.003195790573954582,0.00013315794058144093
1772642857087670800,0.4466708984375,-0.005060001742094755,0.003728422336280346,-0.0025300008710473776
1772642857097675800,0.45667578125,-0.0029294746927917004,0.004793685860931873,-0.0025300008710473776
1772642857107680800,0.4666806640625,-0.003462106455117464,0.004793685860931873,0.00013315794058144093
1772642857117685800,0.476685791015625,-0.001864211168140173,0.007989476434886456,0.0006657897029072046
1772642857127690800,0.486690673828125,-0.00719052879139781,0.003728422336280346,0.00013315794058144093
1772642857137695500,0.496695556640625,-0.006657897029072046,0.00426105409860611,0.001731053227558732
1772642857147700500,0.506700439453125,-0.006657897029072046,0.003195790573954582,0.00013315794058144093
1772642857157705500,0.51670556640625,-0.006125265266746283,0.0010652635246515274,0.001731053227558732
1772642857167710500,0.52671044921875,-0.003994738217443228,0.0026631588116288185,0.0006657897029072046
1772642857177715500,0.536715576171875,-0.005592633504420519,0,0.0006657897029072046
1772642857187720400,0.546720458984375,-0.0045273699797689915,0,-0.001997369108721614
1772642857197725200,0.55672509765625,-0.006657897029072046,-0.0026631588116288185,-0.0057257916778326035
1772642857207730200,0.566730224609375,-0.005060001742094755,0.00426105409860611,-0.004660528153181076
1772642857217735200,0.576735107421875,-0.0029294746927917004,0.004793685860931873,-0.0073236869648098946
1772642857227740200,0.586740234375,-0.0023968429304659367,0.004793685860931873,-0.0025300008710473776
1772642857237745000,0.596744873046875,-0.005592633504420519,0.002130527049303055,-0.0025300008710473776
1772642857247750000,0.60675,-0.0045273699797689915,0.004793685860931873,-0.0003994738217443228
1772642857257755000,0.6167548828125,-0.005592633504420519,0.001597895286977291,0.0006657897029072046
1772642857267759900,0.626759765625,-0.006657897029072046,0.003195790573954582,0.001731053227558732
1772642857277764900,0.636764892578125,-0.005592633504420519,0.002130527049303055,0.0022636849898844957
1772642857287769600,0.64676953125,-0.003994738217443228,0.001597895286977291,0.001731053227558732
1772642857297774600,0.656774658203125,-0.0045273699797689915,0.0010652635246515274,0.001731053227558732
1772642857307779600,0.666779541015625,-0.006657897029072046,0.0026631588116288185,-0.0014647373463958502
1772642857317784600,0.67678466796875,-0.005060001742094755,0.00426105409860611,-0.0014647373463958502
1772642857327789600,0.68678955078125,-0.005592633504420519,0.002130527049303055,-0.0014647373463958502
1772642857337794300,0.696794189453125,-0.00719052879139781,0.0010652635246515274,-0.0009321055840700865
1772642857347799300,0.70679931640625,-0.005060001742094755,0.0005326317623257637,-0.0009321055840700865
1772642857357804300,0.71680419921875,-0.005060001742094755,-0.0010652635246515274,-0.0014647373463958502
1772642857367809300,0.726809326171875,-0.0045273699797689915,-0.0005326317623257637,-0.0003994738217443228
1772642857377814300,0.736814208984375,-0.00026631588116288185,-0.003728422336280346,0.00013315794058144093
1772642857387819000,0.746819091796875,-0.0013315794058144093,0,-0.0014647373463958502
1772642857397824000,0.756823974609375,0.00026631588116288185,-0.003728422336280346,-0.0014647373463958502
1772642857407829000,0.7668291015625,0.0013315794058144093,-0.003195790573954582,-0.0009321055840700865
1772642857417834000,0.776833984375,0.001864211168140173,-0.001597895286977291,0.00013315794058144093
1772642857427839000,0.7868388671875,0.0023968429304659367,-0.00426105409860611,0.00013315794058144093
1772642857437843700,0.79684375,0.003994738217443228,-0.005858949385583401,-0.0009321055840700865
1772642857447848700,0.8068486328125,0.003462106455117464,-0.005858949385583401,0.00013315794058144093
1772642857457853700,0.816853759765625,0.003462106455117464,-0.00426105409860611,0.00013315794058144093
1772642857467858700,0.826858642578125,0.0029294746927917004,-0.005858949385583401,0.001731053227558732
1772642857477863700,0.83686376953125,0.00026631588116288185,-0.005858949385583401,0.0011984214652329683
1772642857487868400,0.846868408203125,0.00026631588116288185,-0.009587371721863747,0.001731053227558732
1772642857497873400,0.856873291015625,-0.0023968429304659367,-0.007989476434886456,0.003328948514536023
1772642857507878400,0.86687841796875,-0.0045273699797689915,-0.005858949385583401,0.005992107093334198
1772642857517883400,0.87688330078125,-0.003994738217443228,-0.002130527049303055,0.007590002380311489
1772642857527888400,0.886888427734375,-0.00719052879139781,0,0.006524738855659962
1772642857537893000,0.89689306640625,-0.006125265266746283,0.0005326317623257637,0.005992107093334198
1772642857547898000,0.906898193359375,-0.006125265266746283,0.0026631588116288185,0.004926843568682671
1772642857557903000,0.916903076171875,-0.005592633504420519,0.005326317623257637,0.005459475331008434
1772642857567907600,0.926907470703125,-0.001864211168140173,0.009054739959537983,0.006524738855659962
1772642857577912300,0.936912353515625,-0.001864211168140173,0.009587371721863747,0.004394211806356907
1772642857587917000,0.9469169921875,-0.0013315794058144093,0.009054739959537983,0.0011984214652329683
1772642857597921500,0.956921630859375,-0.003462106455117464,0.010652635246515274,0.0006657897029072046
1772642857607926300,0.96692626953125,-0.003462106455117464,0.007456844672560692,0.00013315794058144093
1772642857617931000,0.976930908203125,-0.0023968429304659367,0.006924212910234928,-0.0025300008710473776
1772642857627935500,0.986935546875,-0.003994738217443228,0.00852210819721222,-0.0030626326333731413
1772642857637940200,0.996940185546875,-0.003994738217443228,0.00852210819721222,-0.004127896390855312
1772642857647945000,1.006945068359375,-0.0045273699797689915,0.004793685860931873,-0.00519315991550684
1772642857657949400,1.016949462890625,-0.0013315794058144093,0.005326317623257637,-0.003595264395698905
1772642857667954200,1.0269541015625,-0.0013315794058144093,0.005326317623257637,-0.004127896390855312
1772642857677959000,1.036958984375,-0.0013315794058144093,0.006391581147909164,-0.0057257916778326035
1772642857687963400,1.04696337890625,0.0007989476434886456,0.004793685860931873,-0.003595264395698905
1772642857697968000,1.056968017578125,0.0013315794058144093,0.0026631588116288185,-0.0009321055840700865
1772642857707972900,1.066972900390625,0.0013315794058144093,0.004793685860931873,0.0022636849898844957
1772642857717977300,1.076977294921875,0.0023968429304659367,0.007989476434886456,0.003328948514536023
1772642857727982000,1.086982177734375,0.00026631588116288185,0.007456844672560692,0.003861580276861787
1772642857737986800,1.09698681640625,-0.0013315794058144093,0.00852210819721222,0.003328948514536023
1772642857747991300,1.1069912109375,-0.0023968429304659367,0.007989476434886456,0.003328948514536023
1772642857757996000,1.11699609375,-0.003462106455117464,0.005858949385583401,0.0011984214652329683
1772642857768000800,1.127000732421875,-0.003994738217443228,0.0026631588116288185,0.0006657897029072046
1772642857778005200,1.137005126953125,-0.005060001742094755,0.001597895286977291,-0.0003994738217443228
1772642857788010000,1.147010009765625,-0.0023968429304659367,-0.0005326317623257637,-0.0009321055840700865
1772642857798014700,1.1570146484375,-0.001864211168140173,-0.003728422336280346,-0.0014647373463958502
1772642857808019200,1.167019287109375,0.0007989476434886456,-0.003195790573954582,-0.0009321055840700865
1772642857818024000,1.17702392578125,0.005592633504420519,-0.0010652635246515274,0.0006657897029072046
1772642857828028700,1.187028564453125,0.00719052879139781,-0.002130527049303055,-0.0025300008710473776
1772642857838033200,1.197033203125,0.009321056306362152,-0.0010652635246515274,-0.003595264395698905
1772642857848038000,1.207037841796875,0.01038631983101368,0.0010652635246515274,-0.0030626326333731413
1772642857858042600,1.217042724609375,0.008788423612713814,0.002130527049303055,-0.0014647373463958502
1772642857868047000,1.227047119140625,0.00719052879139781,0.0026631588116288185,-0.001997369108721614
1772642857878051800,1.2370517578125,0.006657897029072046,0.005326317623257637,0.00013315794058144093
1772642857888056600,1.247056640625,0.0045273699797689915,0.003728422336280346,-0.0009321055840700865
1772642857898061000,1.25706103515625,0.003994738217443228,0.004793685860931873,-0.0003994738217443228
1772642857908065800,1.267065673828125,0.0023968429304659367,0.003195790573954582,0.0011984214652329683
1772642857918070500,1.277070556640625,0.003462106455117464,0.00426105409860611,0.001731053227558732
1772642857928075000,1.287074951171875,0.0007989476434886456,-0.0010652635246515274,0.004926843568682671
1772642857938079700,1.297079833984375,0.00026631588116288185,-0.00426105409860611,0.005459475331008434
1772642857948084500,1.30708447265625,-0.0013315794058144093,-0.01012000348418951,0.005459475331008434
1772642857958089000,1.3170888671875,-0.001864211168140173,-0.013315794058144093,0.005992107093334198
1772642857968093700,1.32709375,-0.001864211168140173,-0.01651158556342125,0.009720529429614544
1772642857978098400,1.337098388671875,-0.0023968429304659367,-0.017576847225427628,0.010253161191940308
1772642857988103000,1.34710302734375,-0.003994738217443228,-0.01597895286977291,0.008655265904963017
1772642857998107600,1.357107666015625,-0.006125265266746283,-0.014913689345121384,0.006524738855659962
1772642858008112000,1.367112060546875,-0.006125265266746283,-0.013315794058144093,0.004926843568682671
1772642858018116900,1.377116943359375,-0.006125265266746283,-0.014913689345121384,0.003328948514536023
1772642858028121600,1.38712158203125,-0.006657897029072046,-0.01597895286977291,0.00013315794058144093
1772642858038126300,1.397126220703125,-0.00719052879139781,-0.01651158556342125,-0.0009321055840700865
1772642858048130800,1.407130859375,-0.005060001742094755,-0.019707374274730682,0.0006657897029072046
1772642858058135600,1.417135498046875,-0.003994738217443228,-0.01651158556342125,0.001731053227558732
1772642858068139800,1.427139892578125,-0.0045273699797689915,-0.018109479919075966,0.003861580276861787
1772642858078144300,1.437144287109375,-0.003994738217443228,-0.01597895286977291,0.003328948514536023
1772642858088148700,1.447148681640625,-0.005060001742094755,-0.011185267008841038,0.003861580276861787
1772642858098153000,1.457153076171875,-0.0045273699797689915,-0.006391581147909164,0.003328948514536023
1772642858108157400,1.467157470703125,-0.005060001742094755,-0.005326317623257637,0.0011984214652329683
1772642858118162000,1.477161865234375,-0.006657897029072046,0,0.0011984214652329683
1772642858128166100,1.487166259765625,-0.008255792781710625,-0.0005326317623257637,-0.0014647373463958502
1772642858138170600,1.497170654296875,-0.009853687137365341,-0.001597895286977291,-0.0025300008710473776
1772642858148175000,1.507175048828125,-0.011984214186668396,0.0010652635246515274,-0.0025300008710473776
1772642858158179300,1.517179443359375,-0.008255792781710625,0.0010652635246515274,-0.0030626326333731413
1772642858168183800,1.527183837890625,-0.008255792781710625,0.005326317623257637,-0.004660528153181076
1772642858178188300,1.537188232421875,-0.006657897029072046,0.009054739959537983,-0.00519315991550684
1772642858188192500,1.547192626953125,-0.006125265266746283,0.009054739959537983,-0.004127896390855312
1772642858198197000,1.557197021484375,-0.0029294746927917004,0.009054739959537983,-0.00519315991550684
1772642858208201500,1.567201416015625,-0.0013315794058144093,0.011185267008841038,-0.006258423440158367
1772642858218205700,1.577205810546875,-0.0007989476434886456,0.010652635246515274,-0.0073236869648098946
1772642858228210200,1.587210205078125,-0.0007989476434886456,0.012250530533492565,-0.0073236869648098946
1772642858238214700,1.597214599609375,-0.00026631588116288185,0.01438105758279562,-0.00945421401411295
1772642858248219000,1.607218994140625,-0.001864211168140173,0.012250530533492565,-0.011584741063416004
1772642858258223400,1.617223388671875,-0.0023968429304659367,0.012783162295818329,-0.012650004588067532
1772642858268227800,1.627227783203125,-0.003462106455117464,0.010652635246515274,-0.012117372825741768
1772642858278232000,1.637232177734375,-0.0045273699797689915,0.011717898771166801,-0.008921582251787186
1772642858288236500,1.647236572265625,-0.006125265266746283,0.011717898771166801,-0.008921582251787186
1772642858298241000,1.657240966796875,-0.0045273699797689915,0.011717898771166801,-0.00945421401411295
1772642858308245200,1.667245361328125,-0.0023968429304659367,0.010652635246515274,-0.008388950489461422
1772642858318249700,1.677249755859375,-0.0029294746927917004,0.006924212910234928,-0.0073236869648098946
1772642858328254000,1.68725390625,-0.0029294746927917004,0.004793685860931873,-0.004127896390855312
1772642858338258400,1.697258544921875,-0.0029294746927917004,0.004793685860931873,0.00013315794058144093
1772642858348263000,1.707262939453125,-0.001864211168140173,0.001597895286977291,0.0022636849898844957
1772642858358267100,1.71726708984375,-0.0029294746927917004,-0.0005326317623257637,0.003328948514536023
1772642858368271600,1.727271728515625,-0.0023968429304659367,-0.001597895286977291,0.003328948514536023
1772642858378276000,1.737276123046875,-0.003462106455117464,-0.003195790573954582,0.0006657897029072046
1772642858388280300,1.7472802734375,-0.003994738217443228,-0.001597895286977291,-0.0009321055840700865
1772642858398284800,1.757284912109375,-0.005060001742094755,-0.0005326317623257637,-0.0009321055840700865
1772642858408289300,1.767289306640625,-0.005060001742094755,-0.005326317623257637,-0.0003994738217443228
1772642858418293500,1.77729345703125,-0.003994738217443228,-0.006391581147909164,0.0006657897029072046
1772642858428298000,1.787298095703125,-0.0023968429304659367,-0.006391581147909164,0.0027963167522102594
1772642858438302500,1.797302490234375,0.00026631588116288185,-0.006391581147909164,0.004394211806356907
1772642858448306700,1.807306640625,0.0007989476434886456,-0.00426105409860611,0.0022636849898844957
1772642858458311200,1.817311279296875,0.0013315794058144093,-0.00426105409860611,0.00013315794058144093
1772642858468315600,1.827315673828125,0.0013315794058144093,-0.0010652635246515274,-0.0030626326333731413
1772642858478319900,1.83731982421875,0.0013315794058144093,-0.002130527049303055,-0.0025300008710473776
1772642858488324400,1.847324462890625,0.0013315794058144093,-0.001597895286977291,-0.00519315991550684
1772642858498328800,1.857328857421875,0.0007989476434886456,-0.0005326317623257637,-0.004127896390855312
1772642858508333000,1.8673330078125,-0.00026631588116288185,-0.001597895286977291,-0.003595264395698905
1772642858518337500,1.877337646484375,0.00026631588116288185,-0.002130527049303055,-0.00519315991550684
1772642858528342000,1.887342041015625,0.0023968429304659367,-0.0005326317623257637,-0.00519315991550684
1772642858538346200,1.89734619140625,0.0029294746927917004,0.002130527049303055,-0.006258423440158367
1772642858548350700,1.907350830078125,0.0029294746927917004,0.0010652635246515274,-0.003595264395698905
1772642858558355000,1.91735498046875,0.00026631588116288185,-0.001597895286977291,0.00013315794058144093
1772642858568359000,1.92735888671875,-0.0013315794058144093,0,0.003328948514536023
1772642858578363000,1.93736279296875,-0.001864211168140173,0,0.004394211806356907
1772642858588366800,1.947366943359375,-0.0007989476434886456,0.002130527049303055,0.003861580276861787
1772642858598370800,1.957370849609375,-0.0007989476434886456,0.003728422336280346,0.001731053227558732
1772642858608374800,1.967374755859375,-0.00026631588116288185,0.0026631588116288185,0.0006657897029072046
1772642858618378800,1.977378662109375,-0.0013315794058144093,0.003728422336280346,-0.0003994738217443228
1772642858628382700,1.9873828125,-0.00026631588116288185,0.003728422336280346,-0.0030626326333731413
1772642858638386700,1.99738671875,-0.0007989476434886456,0.002130527049303055,-0.0014647373463958502
1772642858648390700,2.007390625,-0.001864211168140173,0.0010652635246515274,-0.001997369108721614
1772642858658394600,2.01739453125,-0.005060001742094755,-0.001597895286977291,-0.0014647373463958502
1772642858668398600,2.027398681640625,-0.0045273699797689915,-0.001597895286977291,-0.004127896390855312
1772642858678402600,2.037402587890625,-0.005592633504420519,-0.0026631588116288185,0.00013315794058144093
1772642858688406500,2.047406494140625,-0.0023968429304659367,-0.005326317623257637,0.0027963167522102594
1772642858698410500,2.057410400390625,-0.001864211168140173,-0.00426105409860611,0.003861580276861787
1772642858708414500,2.06741455078125,-0.001864211168140173,-0.0026631588116288185,0.006524738855659962
1772642858718418400,2.07741845703125,-0.0013315794058144093,-0.001597895286977291,0.007057370617985725
1772642858728422400,2.08742236328125,-0.0013315794058144093,-0.001597895286977291,0.0027963167522102594
1772642858738426400,2.09742626953125,-0.003462106455117464,-0.002130527049303055,0.0022636849898844957
1772642858748430300,2.107430419921875,-0.0023968429304659367,-0.001597895286977291,-0.0014647373463958502
1772642858758434300,2.117434326171875,-0.003994738217443228,-0.003728422336280346,-0.0014647373463958502
1772642858768438300,2.127438232421875,-0.0045273699797689915,-0.005326317623257637,0.0006657897029072046
1772642858778442200,2.137442138671875,-0.0013315794058144093,-0.007456844672560692,-0.0009321055840700865
1772642858788446200,2.1474462890625,0.0013315794058144093,-0.005858949385583401,0.0006657897029072046
1772642858798450200,2.1574501953125,0.0007989476434886456,-0.004793685860931873,-0.0003994738217443228
1772642858808454100,2.1674541015625,0.0013315794058144093,-0.003728422336280346,-0.0009321055840700865
1772642858818458000,2.1774580078125,-0.0007989476434886456,-0.001597895286977291,-0.003595264395698905
1772642858828461800,2.1874619140625,-0.00026631588116288185,-0.0005326317623257637,-0.0057257916778326035
1772642858838465800,2.1974658203125,-0.0007989476434886456,-0.0010652635246515274,-0.009986845776438713
1772642858848470000,2.207469970703125,-0.0007989476434886456,-0.004793685860931873,-0.008388950489461422
1772642858858474000,2.217473876953125,-0.0023968429304659367,-0.00852210819721222,-0.008388950489461422
1772642858868478000,2.22747802734375,0.0007989476434886456,-0.009587371721863747,-0.004660528153181076
1772642858878481700,2.237481689453125,0.00026631588116288185,-0.007456844672560692,0.0006657897029072046
1772642858888485600,2.247485595703125,0.0007989476434886456,-0.004793685860931873,0.0006657897029072046
1772642858898489600,2.257489501953125,0.001864211168140173,-0.0005326317623257637,-0.001997369108721614
1772642858908493600,2.26749365234375,0.0023968429304659367,0.00426105409860611,-0.003595264395698905
1772642858918497500,2.27749755859375,0.00026631588116288185,0.006391581147909164,-0.0030626326333731413
1772642858928501500,2.28750146484375,-0.001864211168140173,0.005326317623257637,-0.0009321055840700865
1772642858938505500,2.29750537109375,-0.00026631588116288185,0.003728422336280346,0.0006657897029072046
1772642858948509400,2.307509521484375,-0.00026631588116288185,0.0010652635246515274,0.0011984214652329683
1772642858958513400,2.317513427734375,-0.0013315794058144093,-0.002130527049303055,0.0006657897029072046
1772642858968517400,2.327517333984375,0.001864211168140173,-0.0010652635246515274,0.001731053227558732
1772642858978521300,2.337521240234375,0.001864211168140173,-0.0010652635246515274,-0.0003994738217443228
1772642858988525300,2.347525390625,-0.00026631588116288185,-0.001597895286977291,-0.0014647373463958502
1772642858998529300,2.357529296875,0.0013315794058144093,-0.003195790573954582,0.0006657897029072046
1772642859008533200,2.367533203125,0.00026631588116288185,-0.002130527049303055,0.0022636849898844957
1772642859018537200,2.377537109375,-0.00026631588116288185,0,0.0022636849898844957
1772642859028541200,2.387541259765625,0.003462106455117464,-0.001597895286977291,0.004394211806356907
1772642859038545200,2.397545166015625,0.0013315794058144093,-0.001597895286977291,0.0022636849898844957
1772642859048549000,2.407549072265625,0.0023968429304659367,0,-0.0003994738217443228
1772642859058553300,2.41755322265625,0.003462106455117464,0.0010652635246515274,0.00013315794058144093
1772642859068558000,2.42755810546875,0.005060001742094755,0.0010652635246515274,-0.0025300008710473776
1772642859078562800,2.437562744140625,0.003994738217443228,-0.001597895286977291,-0.004127896390855312
1772642859088567600,2.447567626953125,0.0045273699797689915,-0.003728422336280346,-0.0057257916778326035
1772642859098572300,2.457572265625,0.005060001742094755,-0.005326317623257637,-0.0057257916778326035
1772642859108577000,2.467576904296875,0.003462106455117464,-0.00426105409860611,-0.0025300008710473776
1772642859118581800,2.477581787109375,0.005060001742094755,-0.0026631588116288185,0.001731053227558732
1772642859128586500,2.48758642578125,0.003994738217443228,-0.0010652635246515274,0.003861580276861787
1772642859138591200,2.49759130859375,0.0045273699797689915,0,0.0011984214652329683
1772642859148596000,2.507595947265625,0.003994738217443228,0.001597895286977291,0.0006657897029072046
1772642859158600700,2.5176005859375,0.003994738217443228,0.002130527049303055,-0.0014647373463958502
1772642859168605400,2.52760546875,0.001731053227558732,-0.0005326317623257637,-0.004127896390855312
1772642859178610200,2.537610107421875,0.0027963167522102594,0.0005326317623257637,-0.0030626326333731413
1772642859188615200,2.547615234375,0.001731053227558732,-0.0026631588116288185,-0.00519315991550684
1772642859198620000,2.557619873046875,0.0022636849898844957,-0.0005326317623257637,-0.00519315991550684
1772642859208624600,2.567624755859375,0.001731053227558732,0.0026631588116288185,-0.0057257916778326035
1772642859218629400,2.57762939453125,0.001731053227558732,0.004793685860931873,-0.004127896390855312
1772642859228634000,2.587634033203125,-0.0009321055840700865,0.005326317623257637,-0.0014647373463958502
1772642859238638800,2.597638916015625,-0.0030626326333731413,0.005326317623257637,-0.0014647373463958502
1772642859248643600,2.6076435546875,-0.003994738217443228,0.003195790573954582,-0.0003994738217443228
1772642859258648300,2.6176484375,-0.0045273699797689915,0.003195790573954582,0.004926843568682671
1772642859268653000,2.627653076171875,-0.005592633504420519,0.002130527049303055,0.004926843568682671
1772642859278657800,2.63765771484375,-0.003462106455117464,0.0010652635246515274,0.005992107093334198
1772642859288662500,2.64766259765625,-0.0029294746927917004,0.002130527049303055,0.0022636849898844957
1772642859298667300,2.657667236328125,-0.0013315794058144093,0.004793685860931873,0.0022636849898844957
1772642859308672000,2.667672119140625,-0.003462106455117464,0.0026631588116288185,-0.0003994738217443228
1772642859318676700,2.6776767578125,-0.0023968429304659367,0.003195790573954582,-0.0030626326333731413
1772642859328681500,2.687681396484375,-0.003994738217443228,-0.0005326317623257637,-0.006258423440158367
1772642859338686200,2.697686279296875,-0.003994738217443228,-0.002130527049303055,-0.004127896390855312
1772642859348691000,2.70769091796875,-0.00026631588116288185,-0.0026631588116288185,-0.0014647373463958502
1772642859358695700,2.71769580078125,-0.00026631588116288185,-0.0010652635246515274,-0.004127896390855312
1772642859368700700,2.72770068359375,0.001864211168140173,0.0010652635246515274,-0.0030626326333731413
1772642859378705400,2.737705322265625,-0.00026631588116288185,0.001597895286977291,-0.00519315991550684
1772642859388710100,2.747710205078125,-0.001997369108721614,0.0026631588116288185,-0.006258423440158367
1772642859398715000,2.75771484375,0.00013315794058144093,0.00426105409860611,-0.0057257916778326035
1772642859408719600,2.7677197265625,-0.001997369108721614,0.00426105409860611,-0.004660528153181076
1772642859418724400,2.777724365234375,-0.0009321055840700865,0.006391581147909164,-0.004660528153181076
1772642859428729000,2.78772900390625,-0.0003994738217443228,0.005326317623257637,-0.003595264395698905
1772642859438733800,2.79773388671875,-0.0014647373463958502,0.005326317623257637,-0.0014647373463958502
1772642859448738600,2.807738525390625,-0.0003994738217443228,0.005326317623257637,-0.0003994738217443228
1772642859458743300,2.817743408203125,-0.001997369108721614,0.007989476434886456,0.001731053227558732
1772642859468748000,2.827748046875,-0.0025300008710473776,0.006924212910234928,0.0006657897029072046
1772642859478752800,2.837752685546875,-0.0030626326333731413,0.006391581147909164,-0.0025300008710473776
1772642859488757500,2.847757568359375,-0.001997369108721614,0.00852210819721222,-0.003595264395698905
1772642859498762200,2.85776220703125,-0.0009321055840700865,0.006391581147909164,-0.00519315991550684
1772642859508767000,2.86776708984375,-0.001997369108721614,0.00852210819721222,-0.006258423440158367
1772642859518771700,2.877771728515625,-0.001997369108721614,0.011717898771166801,-0.0057257916778326035
1772642859528776700,2.887776611328125,-0.001997369108721614,0.011185267008841038,-0.006791055202484131
1772642859538781400,2.897781494140625,-0.0025300008710473776,0.01012000348418951,-0.0073236869648098946
1772642859548786200,2.9077861328125,-0.0025300008710473776,0.00852210819721222,-0.010519477538764477
1772642859558791000,2.917791015625,-0.0014647373463958502,0.005858949385583401,-0.010519477538764477
1772642859568796000,2.9277958984375,0.00013315794058144093,0.006924212910234928,-0.010519477538764477
1772642859578801000,2.93780078125,-0.0014647373463958502,0.00852210819721222,-0.01105210930109024
1772642859588806100,2.94780615234375,-0.0003994738217443228,0.009054739959537983,-0.007856318727135658
1772642859598811100,2.95781103515625,0.001731053227558732,0.01012000348418951,-0.00519315991550684
1772642859608816000,2.967816162109375,0.003328948514536023,0.007989476434886456,-0.0025300008710473776
1772642859618821400,2.9778212890625,0.004394211806356907,0.005326317623257637,-0.0003994738217443228
1772642859628826400,2.987826416015625,0.004394211806356907,0.006391581147909164,-0.0009321055840700865
1772642859638831400,2.997831298828125,0.004394211806356907,0.007989476434886456,-0.0025300008710473776
1772642859648836400,3.00783642578125,0.0022636849898844957,0.006791055202484131,-0.0010652635246515274
1772642859658841600,3.017841552734375,0.001731053227558732,0.008388950489461422,-0.002130527049303055
1772642859668846600,3.0278466796875,-0.0014647373463958502,0.008921582251787186,-0.0026631588116288185
1772642859678851600,3.0378515625,-0.0014647373463958502,0.012117372825741768,-0.001597895286977291
1772642859688856600,3.047856689453125,-0.0003994738217443228,0.009986845776438713,-0.0026631588116288185
1772642859698861800,3.05786181640625,-0.0009321055840700865,0.010519477538764477,0
1772642859708866800,3.06786669921875,-0.0003994738217443228,0.006791055202484131,0.001597895286977291
1772642859718871800,3.077871826171875,-0.001997369108721614,0.00945421401411295,0.002130527049303055
1772642859728876800,3.087876708984375,-0.0025300008710473776,0.006791055202484131,0.003195790573954582
1772642859738882000,3.097882080078125,-0.004127896390855312,0.004660528153181076,0.005326317623257637
1772642859748887000,3.107886962890625,-0.003595264395698905,0.004660528153181076,0.00426105409860611
1772642859758892000,3.11789208984375,-0.0030626326333731413,0.001997369108721614,0.004793685860931873
1772642859768897000,3.12789697265625,-0.0025300008710473776,-0.0027963167522102594,0.002130527049303055
1772642859778902300,3.13790234375,-0.0030626326333731413,-0.004926843568682671,0.002130527049303055
1772642859788907300,3.1479072265625,-0.0003994738217443228,-0.003328948514536023,0.0026631588116288185
1772642859798912300,3.157912353515625,-0.0014647373463958502,-0.0022636849898844957,-0.0005326317623257637
1772642859808917200,3.167917236328125,-0.0003994738217443228,-0.003861580276861787,-0.003195790573954582
1772642859818922500,3.177922607421875,-0.0009321055840700865,-0.005459475331008434,-0.0005326317623257637
1772642859828927500,3.187927490234375,-0.0009321055840700865,-0.006524738855659962,0.003195790573954582
1772642859838932500,3.197932373046875,0.00013315794058144093,-0.00918789766728878,0.002130527049303055
1772642859848937500,3.2079375,0.001731053227558732,-0.010785792954266071,0.002130527049303055
1772642859858942700,3.217942626953125,0.003328948514536023,-0.00918789766728878,0.004793685860931873
1772642859868947700,3.22794775390625,0.003861580276861787,-0.00918789766728878,0.003195790573954582
1772642859878952700,3.23795263671875,0.0027963167522102594,-0.008122634142637253,-0.0010652635246515274
1772642859888958000,3.2479580078125,0.003861580276861787,-0.010253161191940308,-0.001597895286977291
1772642859898963000,3.257962890625,0.0027963167522102594,-0.012383688241243362,0
1772642859908968000,3.267968017578125,0.003328948514536023,-0.011318424716591835,0.00426105409860611
1772642859918973000,3.277972900390625,0.0022636849898844957,-0.010253161191940308,0.005858949385583401
1772642859928978000,3.28797802734375,0.00013315794058144093,-0.011318424716591835,0.009054739959537983
1772642859938983200,3.297983154296875,0.0011984214652329683,-0.010253161191940308,0.01012000348418951
1772642859948988200,3.30798828125,-0.0003994738217443228,-0.00918789766728878,0.009054739959537983
1772642859958993200,3.3179931640625,0.00013315794058144093,-0.007590002380311489,0.007989476434886456
1772642859968998100,3.327998046875,0.00013315794058144093,-0.007590002380311489,0.005858949385583401
1772642859979003400,3.33800341796875,0.00013315794058144093,-0.004394211806356907,0.0026631588116288185
1772642859989008400,3.34800830078125,0.0011984214652329683,-0.004394211806356907,0.001597895286977291
1772642859999013400,3.358013427734375,0.00013315794058144093,-0.005459475331008434,0.0026631588116288185
1772642860009018600,3.3680185546875,0.00026631588116288185,-0.003861580276861787,0.005326317623257637
1772642860019023600,3.378023681640625,0.0023968429304659367,-0.006524738855659962,0.006924212910234928
1772642860029028600,3.388028564453125,0.0045273699797689915,-0.008122634142637253,0.007989476434886456
1772642860039033600,3.39803369140625,0.003994738217443228,-0.011851056478917599,0.006391581147909164
1772642860049038600,3.40803857421875,0.0027963167522102594,-0.010253161191940308,0.004793685860931873
1772642860059043600,3.418043701171875,0.0027963167522102594,-0.008122634142637253,0.005326317623257637
1772642860069048300,3.42804833984375,0.0006657897029072046,-0.004926843568682671,0.001597895286977291
1772642860079052800,3.438052734375,0.0006657897029072046,-0.004394211806356907,0
1772642860089057300,3.448057373046875,-0.0003994738217443228,-0.0011984214652329683,-0.0005326317623257637
1772642860099062000,3.45806201171875,0.0006657897029072046,-0.0011984214652329683,-0.0005326317623257637
1772642860109066500,3.46806640625,0.00013315794058144093,-0.0011984214652329683,0.0010652635246515274
1772642860119071000,3.478071044921875,0.00013315794058144093,-0.00013315794058144093,0.0026631588116288185
1772642860129075700,3.48807568359375,0.001731053227558732,0.001997369108721614,0.003728422336280346
1772642860139080200,3.498080078125,0.0011984214652329683,0.001997369108721614,0.003195790573954582
1772642860149084700,3.508084716796875,-0.0014647373463958502,0.006791055202484131,0.003195790573954582
1772642860159089200,3.518089111328125,-0.001997369108721614,0.008921582251787186,0.002130527049303055
1772642860169094000,3.528093994140625,-0.003595264395698905,0.009986845776438713,0.0005326317623257637
1772642860179098400,3.538098388671875,-0.004660528153181076,0.00945421401411295,0
1772642860189102800,3.548102783203125,-0.0057257916778326035,0.009986845776438713,-0.003728422336280346
1772642860199107600,3.558107666015625,-0.001997369108721614,0.01105210930109024,0.0005326317623257637
1772642860209112000,3.568112060546875,-0.0025300008710473776,0.014247899875044823,0.002130527049303055
1772642860219116500,3.578116455078125,-0.0030626326333731413,0.016378426924347878,0.0026631588116288185
1772642860229121300,3.588121337890625,-0.004127896390855312,0.01584579423069954,0
1772642860239125800,3.598125732421875,-0.004127896390855312,0.014780531637370586,0
1772642860249130200,3.608130126953125,-0.006258423440158367,0.014247899875044823,-0.0005326317623257637
1772642860259135000,3.618135009765625,-0.00519315991550684,0.01584579423069954,-0.0005326317623257637
1772642860269139500,3.628139404296875,-0.007856318727135658,0.017976321280002594,-0.0010652635246515274
1772642860279144000,3.63814404296875,-0.004127896390855312,0.016911057755351067,-0.0010652635246515274
1772642860289148400,3.6481484375,-0.00519315991550684,0.016911057755351067,-0.0026631588116288185
1772642860299153200,3.658153076171875,-0.0025300008710473776,0.017976321280002594,-0.0026631588116288185
1772642860309157600,3.66815771484375,-0.0025300008710473776,0.017443690448999405,-0.002130527049303055
1772642860319162000,3.678162109375,-0.0009321055840700865,0.014247899875044823,-0.0005326317623257637
1772642860329166800,3.688166748046875,-0.0009321055840700865,0.011584741063416004,-0.003195790573954582
1772642860339171300,3.69817138671875,-0.0009321055840700865,0.0073236869648098946,-0.00426105409860611
1772642860349175800,3.70817578125,-0.0003994738217443228,0.007856318727135658,-0.002130527049303055
1772642860359180500,3.7181806640625,0.001731053227558732,0.0073236869648098946,-0.0026631588116288185
1772642860369185000,3.72818505859375,-0.0030626326333731413,0.00519315991550684,-0.005326317623257637
1772642860379189500,3.738189453125,-0.001997369108721614,-0.0006657897029072046,-0.004793685860931873
1772642860389194200,3.7481943359375,0.00013315794058144093,-0.0022636849898844957,-0.001597895286977291
1772642860399198700,3.75819873046875,-0.0003994738217443228,-0.001731053227558732,-0.001597895286977291
1772642860409203200,3.768203125,0.001731053227558732,-0.0022636849898844957,-0.002130527049303055
1772642860419207700,3.778207763671875,0.0011984214652329683,0.0025300008710473776,-0.002130527049303055
1772642860429212400,3.78821240234375,0.00013315794058144093,0.0025300008710473776,-0.001597895286977291
1772642860439217000,3.798216796875,-0.0003994738217443228,0.001997369108721614,-0.005326317623257637
1772642860449221400,3.808221435546875,-0.0014647373463958502,0.004127896390855312,-0.006924212910234928
1772642860459226000,3.81822607421875,0.00013315794058144093,0.0073236869648098946,-0.007989476434886456
1772642860469230600,3.828230712890625,0.0006657897029072046,0.00945421401411295,-0.006924212910234928
1772642860479235000,3.838235107421875,0.001731053227558732,0.01105210930109024,-0.007456844672560692
1772642860489239800,3.84823974609375,0.003328948514536023,0.012650004588067532,-0.005858949385583401
1772642860499244300,3.858244384765625,0.003861580276861787,0.00945421401411295,-0.004793685860931873
1772642860509248800,3.868248779296875,0.004394211806356907,0.006791055202484131,-0.005858949385583401
1772642860519253500,3.87825341796875,0.004926843568682671,0.004660528153181076,-0.006391581147909164
1772642860529258000,3.888258056640625,0.004394211806356907,0.0003994738217443228,-0.009587371721863747
1772642860539262500,3.898262451171875,0.005992107093334198,0.007856318727135658,-0.009587371721863747
1772642860549267000,3.908266845703125,0.005992107093334198,0.0057257916778326035,-0.01012000348418951
1772642860559271700,3.918271728515625,0.006524738855659962,0.004660528153181076,-0.007456844672560692
1772642860569276200,3.928276123046875,0.005459475331008434,0.0030626326333731413,-0.007456844672560692
1772642860579281000,3.938281005859375,0.003861580276861787,0.0014647373463958502,-0.005326317623257637
1772642860589285400,3.948285400390625,0.0027963167522102594,0.0014647373463958502,-0.003195790573954582
1772642860599289900,3.958289794921875,0.0022636849898844957,0.0025300008710473776,0.0010652635246515274
1772642860609294600,3.968294677734375,0.001731053227558732,0.0014647373463958502,0.002130527049303055
1772642860619299000,3.978299072265625,-0.0014647373463958502,-0.00013315794058144093,0.0005326317623257637
1772642860629303600,3.988303466796875,-0.0025300008710473776,0.0009321055840700865,-0.002130527049303055
1772642860639308300,3.998308349609375,-0.0009321055840700865,0.003595264395698905,-0.002130527049303055
1772642860649312800,4.008312744140625,-0.0025300008710473776,0.00519315991550684,-0.003195790573954582
1772642860659317500,4.0183173828125,-0.001997369108721614,0.003595264395698905,-0.003728422336280346
1772642860669322000,4.028322021484375,0.0006657897029072046,0.0025300008710473776,-0.003728422336280346
1772642860679326500,4.038326416015625,-0.0009321055840700865,0.0009321055840700865,-0.0005326317623257637
1772642860689331200,4.048331298828125,0.0006657897029072046,-0.0006657897029072046,0.002130527049303055
1772642860699335700,4.058335693359375,0.001731053227558732,-0.0006657897029072046,0.0005326317623257637
1772642860709340200,4.068340087890625,0.003328948514536023,-0.0011984214652329683,0.002130527049303055
1772642860719345000,4.078344970703125,0.0027963167522102594,0.0025300008710473776,0.001597895286977291
1772642860729349400,4.088349365234375,0.004394211806356907,0.004127896390855312,-0.003195790573954582
1772642860739353900,4.098353759765625,0.001731053227558732,0.004127896390855312,-0.003195790573954582
1772642860749358600,4.108358642578125,0.00013315794058144093,0.0030626326333731413,-0.0026631588116288185
1772642860759363000,4.118363037109375,0.001731053227558732,0.001997369108721614,-0.0026631588116288185
1772642860769367800,4.128367919921875,0.0022636849898844957,0.0009321055840700865,-0.0026631588116288185
1772642860779372300,4.138372314453125,0.004926843568682671,0.003595264395698905,-0.003195790573954582
1772642860789376800,4.148376708984375,0.005459475331008434,0.006258423440158367,-0.002130527049303055
1772642860799381500,4.158381591796875,0.006524738855659962,0.003595264395698905,-0.004793685860931873
1772642860809386000,4.168385986328125,0.004926843568682671,0.006258423440158367,-0.003195790573954582
1772642860819390500,4.178390380859375,0.004926843568682671,0.00945421401411295,-0.0010652635246515274
1772642860829395200,4.188395263671875,0.005459475331008434,0.010519477538764477,0
1772642860839399700,4.198399658203125,0.004926843568682671,0.0073236869648098946,0.001597895286977291
1772642860849404400,4.208404296875,0.004394211806356907,0.006791055202484131,-0.0005326317623257637
1772642860859409000,4.218408935546875,0.004394211806356907,0.00519315991550684,0.0005326317623257637
1772642860869413600,4.22841357421875,0.003328948514536023,0.001997369108721614,0.0010652635246515274
1772642860879418000,4.238418212890625,0.005459475331008434,0.0030626326333731413,0.001597895286977291
1772642860889422600,4.248422607421875,0.008122634142637253,0.004660528153181076,0.003728422336280346
1772642860899427300,4.25842724609375,0.008655265904963017,0.0030626326333731413,0.0026631588116288185
1772642860909431800,4.268431884765625,0.010253161191940308,0.00519315991550684,0.005326317623257637
1772642860919436300,4.278436279296875,0.011851056478917599,0.003595264395698905,0.003195790573954582
1772642860929441000,4.28844091796875,0.009720529429614544,0.0014647373463958502,0.003728422336280346
1772642860939445500,4.298445556640625,0.00918789766728878,0.0003994738217443228,0.004793685860931873
1772642860949450200,4.3084501953125,0.008655265904963017,-0.00013315794058144093,0.0026631588116288185
1772642860959454700,4.318454833984375,0.010253161191940308,-0.0022636849898844957,0.003195790573954582
1772642860969459200,4.328459228515625,0.010785792954266071,-0.003328948514536023,0.0026631588116288185
1772642860979464000,4.3384638671875,0.011851056478917599,-0.0011984214652329683,0.003195790573954582
1772642860989468400,4.348468505859375,0.010253161191940308,0.0009321055840700865,0.00426105409860611
1772642860999473000,4.358472900390625,0.00918789766728878,0.001997369108721614,0.004793685860931873
1772642861009477600,4.3684775390625,0.010253161191940308,0.0014647373463958502,0.003728422336280346
1772642861019482000,4.378482177734375,0.011851056478917599,-0.00013315794058144093,0.003195790573954582
1772642861029486600,4.388486572265625,0.011318424716591835,-0.003328948514536023,0.0010652635246515274
1772642861039491300,4.3984912109375,0.011851056478917599,-0.004394211806356907,0.004793685860931873
1772642861049495800,4.408495849609375,0.015046847052872181,-0.004394211806356907,0.005858949385583401
1772642861059500500,4.41850048828125,0.014514215290546417,-0.007590002380311489,0.004793685860931873
1772642861069505500,4.428505615234375,0.012383688241243362,-0.009720529429614544,0.002130527049303055
1772642861079510300,4.43851025390625,0.011851056478917599,-0.011318424716591835,0.0026631588116288185
1772642861089515300,4.448515380859375,0.010785792954266071,-0.010785792954266071,0.001597895286977291
1772642861099520300,4.458520263671875,0.010785792954266071,-0.008655265904963017,-0.0005326317623257637
1772642861109525200,4.468525146484375,0.009720529429614544,-0.009720529429614544,0.0010652635246515274
1772642861119530200,4.4785302734375,0.009720529429614544,-0.012383688241243362,0.001597895286977291
1772642861129535200,4.48853515625,0.009720529429614544,-0.010785792954266071,0.003728422336280346
1772642861139540000,4.4985400390625,0.010785792954266071,-0.007590002380311489,0.004793685860931873
1772642861149545000,4.508544921875,0.011851056478917599,-0.005992107093334198,0.005858949385583401
1772642861159550000,4.518550048828125,0.011318424716591835,-0.003328948514536023,0.0026631588116288185
1772642861169555000,4.528554931640625,0.009720529429614544,-0.004926843568682671,0.004793685860931873
1772642861179560000,4.538559814453125,0.010253161191940308,-0.004926843568682671,0.005858949385583401
1772642861189565000,4.54856494140625,0.008122634142637253,-0.004926843568682671,0.00426105409860611
1772642861199569700,4.558569580078125,0.007590002380311489,-0.007057370617985725,0.001597895286977291
1772642861209574700,4.56857470703125,0.007057370617985725,-0.005992107093334198,-0.0005326317623257637
1772642861219579600,4.57857958984375,0.008655265904963017,-0.003861580276861787,-0.0026631588116288185
1772642861229584600,4.588584716796875,0.00918789766728878,-0.0006657897029072046,-0.00426105409860611
1772642861239589400,4.59858935546875,0.011318424716591835,0.0014647373463958502,-0.005858949385583401
1772642861249594400,4.608594482421875,0.008655265904963017,0.0030626326333731413,-0.00426105409860611
1772642861259599400,4.618599365234375,0.008655265904963017,0.003595264395698905,-0.002130527049303055
1772642861269604400,4.628604248046875,0.008655265904963017,0.003595264395698905,-0.0005326317623257637
1772642861279609300,4.638609375,0.007057370617985725,0.0009321055840700865,0.0010652635246515274
1772642861289614300,4.6486142578125,0.004926843568682671,0.0014647373463958502,0.00426105409860611
1772642861299619000,4.658619140625,0.004394211806356907,0.001997369108721614,0.003195790573954582
1772642861309624000,4.6686240234375,0.003328948514536023,0.0014647373463958502,0.002130527049303055
1772642861319629000,4.678629150390625,0.0006657897029072046,0.001997369108721614,0
1772642861329634000,4.688634033203125,0.0006657897029072046,0.003595264395698905,0.001597895286977291
1772642861339639000,4.69863916015625,-0.0003994738217443228,0.004127896390855312,0
1772642861349643800,4.708643798828125,-0.0009321055840700865,-0.0006657897029072046,-0.003728422336280346
1772642861359648800,4.718648681640625,-0.001997369108721614,-0.003861580276861787,-0.0026631588116288185
1772642861369653800,4.72865380859375,-0.0025300008710473776,-0.005992107093334198,-0.001597895286977291
1772642861379658800,4.73865869140625,0.00013315794058144093,-0.008122634142637253,0.003195790573954582
1772642861389663700,4.748663818359375,0.001731053227558732,-0.007590002380311489,0.005858949385583401
1772642861399668700,4.758668701171875,0.00013315794058144093,-0.007590002380311489,0.005326317623257637
1772642861409673500,4.768673583984375,0.0027963167522102594,-0.008655265904963017,0.004793685860931873
1772642861419678500,4.778678466796875,0.0011984214652329683,-0.00918789766728878,0.005326317623257637
1772642861429683500,4.788683349609375,0.003328948514536023,-0.00918789766728878,0.004793685860931873
1772642861439688400,4.7986884765625,0.004926843568682671,-0.008122634142637253,0.006391581147909164
1772642861449693400,4.808693359375,0.004926843568682671,-0.008122634142637253,0.006391581147909164
1772642861459698200,4.8186982421875,0.00918789766728878,-0.00918789766728878,0.005326317623257637
1772642861469703200,4.828703125,0.009720529429614544,-0.011318424716591835,0.0026631588116288185
1772642861479708200,4.838708251953125,0.00918789766728878,-0.012383688241243362,0.0005326317623257637
1772642861489713200,4.848713134765625,0.009720529429614544,-0.011318424716591835,-0.001597895286977291
1772642861499718100,4.85871826171875,0.008122634142637253,-0.014514215290546417,-0.0005326317623257637
1772642861509723000,4.868722900390625,0.005459475331008434,-0.017710005864501,0.001597895286977291
1772642861519727900,4.878727783203125,0.007057370617985725,-0.017710005864501,0.003195790573954582
1772642861529732900,4.88873291015625,0.005459475331008434,-0.012916320003569126,0.004793685860931873
1772642861539737900,4.89873779296875,0.005992107093334198,-0.01344895176589489,0.00426105409860611
1772642861549742800,4.908742919921875,0.004394211806356907,-0.010785792954266071,0.003728422336280346
1772642861559747600,4.91874755859375,0.005992107093334198,-0.011851056478917599,0.003195790573954582
1772642861569752000,4.928751953125,0.005992107093334198,-0.007057370617985725,0.002130527049303055
1772642861579756800,4.9387568359375,0.005992107093334198,-0.008122634142637253,0.002130527049303055
1772642861589761300,4.94876123046875,0.004394211806356907,-0.010785792954266071,0.002130527049303055
1772642861599765800,4.958765869140625,0.004394211806356907,-0.014514215290546417,0.00426105409860611
1772642861609770500,4.9687705078125,0.005459475331008434,-0.012383688241243362,0.005858949385583401
1772642861619775000,4.97877490234375,0.004394211806356907,-0.009720529429614544,0.005858949385583401
1772642861629779500,4.988779541015625,0.004394211806356907,-0.006524738855659962,0.005326317623257637
1772642861639784200,4.9987841796875,0.005459475331008434,-0.003861580276861787,0.0026631588116288185
1772642861649788700,5.00878857421875,0.005992107093334198,-0.003861580276861787,0.002130527049303055
1772642861659793200,5.018793212890625,0.005992107093334198,-0.006524738855659962,0.0010652635246515274
1772642861669798000,5.0287978515625,0.004926843568682671,-0.007057370617985725,0.0026631588116288185
1772642861679802400,5.03880224609375,0.004926843568682671,-0.007057370617985725,0.003195790573954582
1772642861689806800,5.048806884765625,0.005992107093334198,-0.005992107093334198,0.00426105409860611
1772642861699811600,5.0588115234375,0.007590002380311489,-0.005459475331008434,0.004793685860931873
1772642861709816000,5.068816162109375,0.008122634142637253,-0.004926843568682671,0.00426105409860611
1772642861719820500,5.078820556640625,0.005992107093334198,-0.005459475331008434,0.0026631588116288185
1772642861729825300,5.0888251953125,0.006524738855659962,-0.007590002380311489,0.001597895286977291
1772642861739829800,5.098829833984375,0.003328948514536023,-0.005459475331008434,0.0010652635246515274
1772642861749834200,5.108834228515625,0.0011984214652329683,-0.004926843568682671,0.0010652635246515274
1772642861759839000,5.1188388671875,0.0022636849898844957,-0.004394211806356907,0.0026631588116288185
1772642861769843500,5.128843505859375,0.001731053227558732,-0.003328948514536023,0.004793685860931873
1772642861779848000,5.138847900390625,0.004394211806356907,-0.00013315794058144093,0.004793685860931873
1772642861789852700,5.148852783203125,0.006524738855659962,-0.001731053227558732,0.00426105409860611
1772642861799857200,5.158857177734375,0.007057370617985725,-0.0006657897029072046,0.005326317623257637
1772642861809861600,5.168861572265625,0.007057370617985725,0.0009321055840700865,0.003195790573954582
1772642861819866000,5.1788662109375,0.008655265904963017,0.003595264395698905,0.003195790573954582
1772642861829870800,5.188870849609375,0.007590002380311489,0.0025300008710473776,0.001597895286977291
1772642861839875300,5.198875244140625,0.008655265904963017,0.0025300008710473776,0.0026631588116288185
1772642861849879800,5.2088798828125,0.007057370617985725,0.0014647373463958502,0
1772642861859884500,5.218884521484375,0.007590002380311489,-0.00013315794058144093,-0.001597895286977291
1772642861869889000,5.228888916015625,0.007057370617985725,0.00519315991550684,-0.001597895286977291
1772642861879893500,5.2388935546875,0.008122634142637253,0.0057257916778326035,-0.005326317623257637
1772642861889898200,5.248898193359375,0.006524738855659962,0.004660528153181076,-0.006924212910234928
1772642861899902700,5.25890283203125,0.005992107093334198,0.004127896390855312,-0.006924212910234928
1772642861909907200,5.2689072265625,0.007057370617985725,0.004660528153181076,-0.004793685860931873
1772642861919912000,5.278911865234375,0.007590002380311489,0.012117372825741768,-0.003195790573954582
1772642861929916400,5.28891650390625,0.006524738855659962,0.014247899875044823,-0.003195790573954582
1772642861939921000,5.2989208984375,0.005459475331008434,0.016378426924347878,-0.00426105409860611
1772642861949925600,5.308925537109375,0.0027963167522102594,0.02010684832930565,-0.003195790573954582
1772642861959930000,5.31893017578125,-0.0003994738217443228,0.022237375378608704,0.0005326317623257637
1772642861969934600,5.3289345703125,0.0006657897029072046,0.017443690448999405,-0.0005326317623257637
1772642861979939300,5.338939208984375,-0.0003994738217443228,0.01531316339969635,0.0005326317623257637
1772642861989943800,5.34894384765625,0.0006657897029072046,0.01584579423069954,-0.0010652635246515274
1772642861999948300,5.3589482421875,0.001731053227558732,0.014780531637370586,-0.0026631588116288185
1772642862009953000,5.368953125,0.0022636849898844957,0.014247899875044823,-0.001597895286977291
1772642862019957500,5.37895751953125,0.001731053227558732,0.017443690448999405,-0.0010652635246515274
1772642862029962000,5.3889619140625,0.003861580276861787,0.016911057755351067,0.0005326317623257637
1772642862039966700,5.398966796875,0.003328948514536023,0.016911057755351067,0.0005326317623257637
1772642862049971200,5.40897119140625,0.003861580276861787,0.013715268112719059,0
1772642862059976000,5.418975830078125,0.003861580276861787,0.010519477538764477,-0.003195790573954582
1772642862069980700,5.428980712890625,0.005459475331008434,0.007856318727135658,-0.003195790573954582
1772642862079985700,5.438985595703125,0.005992107093334198,0.006258423440158367,-0.004793685860931873
1772642862089990400,5.448990478515625,0.006524738855659962,0.003595264395698905,-0.003728422336280346
1772642862099995100,5.4589951171875,0.007590002380311489,0.0009321055840700865,-0.00852210819721222
1772642862110000000,5.469000244140625,0.008655265904963017,0.001997369108721614,-0.007989476434886456
1772642862120004900,5.4790048828125,0.010785792954266071,0.003595264395698905,-0.007989476434886456
1772642862130009600,5.489009521484375,0.011318424716591835,0.004660528153181076,-0.004793685860931873
1772642862140014600,5.4990146484375,0.010785792954266071,0.006791055202484131,-0.004793685860931873
1772642862150019300,5.509019287109375,0.009720529429614544,0.0014647373463958502,-0.004793685860931873
1772642862160024000,5.519024169921875,0.00918789766728878,0.0014647373463958502,-0.001597895286977291
1772642862170029000,5.529029052734375,0.010253161191940308,-0.0006657897029072046,-0.0010652635246515274
1772642862180033800,5.53903369140625,0.00918789766728878,-0.0006657897029072046,-0.0005326317623257637
1772642862190038800,5.549038818359375,0.009720529429614544,-0.004926843568682671,0
1772642862200043500,5.55904345703125,0.009720529429614544,-0.004926843568682671,-0.0005326317623257637
1772642862210048300,5.56904833984375,0.010785792954266071,-0.004394211806356907,-0.0005326317623257637
1772642862220053200,5.57905322265625,0.008655265904963017,-0.008122634142637253,-0.0010652635246515274
1772642862230058000,5.58905810546875,0.00918789766728878,-0.008122634142637253,-0.001597895286977291
1772642862240062700,5.599062744140625,0.007590002380311489,-0.008655265904963017,-0.003728422336280346
1772642862250067700,5.609067626953125,0.008655265904963017,-0.010253161191940308,-0.005858949385583401
1772642862260072400,5.619072509765625,0.00918789766728878,-0.010785792954266071,-0.006391581147909164
1772642862270077200,5.6290771484375,0.008655265904963017,-0.01344895176589489,-0.004793685860931873
1772642862280082200,5.639082275390625,0.010785792954266071,-0.011851056478917599,-0.005858949385583401
1772642862290087000,5.6490869140625,0.00918789766728878,-0.011318424716591835,-0.002130527049303055
1772642862300092000,5.659091796875,0.009720529429614544,-0.011318424716591835,0
1772642862310096600,5.6690966796875,0.00918789766728878,-0.012383688241243362,0.003195790573954582
1772642862320101400,5.679101318359375,0.008655265904963017,-0.012383688241243362,0.004793685860931873
1772642862330106400,5.6891064453125,0.007057370617985725,-0.010785792954266071,0.004793685860931873
1772642862340111000,5.699111083984375,0.008122634142637253,-0.008122634142637253,0.005858949385583401
1772642862350115800,5.70911572265625,0.005459475331008434,-0.007057370617985725,0.00426105409860611
1772642862360120800,5.719120849609375,0.005459475331008434,-0.008122634142637253,0.002130527049303055
1772642862370125600,5.72912548828125,0.005459475331008434,-0.007590002380311489,0.0005326317623257637
1772642862380130300,5.73913037109375,0.005992107093334198,-0.008655265904963017,0.0026631588116288185
1772642862390135300,5.74913525390625,0.004394211806356907,-0.010785792954266071,0.00426105409860611
1772642862400140000,5.75914013671875,0.004926843568682671,-0.014514215290546417,0.007989476434886456
1772642862410145000,5.76914501953125,0.005459475331008434,-0.015579478815197945,0.007989476434886456
1772642862420149800,5.779149658203125,0.005992107093334198,-0.015046847052872181,0.010652635246515274
1772642862430154500,5.789154541015625,0.007057370617985725,-0.013981583528220654,0.007989476434886456
1772642862440159500,5.799159423828125,0.008122634142637253,-0.012916320003569126,0.002130527049303055
1772642862450164200,5.809164306640625,0.008655265904963017,-0.011851056478917599,-0.0005326317623257637
1772642862460169000,5.8191689453125,0.008655265904963017,-0.011851056478917599,-0.003728422336280346
1772642862470174000,5.829174072265625,0.008655265904963017,-0.011851056478917599,0
1772642862480178700,5.8391787109375,0.012383688241243362,-0.012383688241243362,0.0026631588116288185
1772642862490183400,5.849183349609375,0.014514215290546417,-0.009720529429614544,0.003195790573954582
1772642862500188400,5.8591884765625,0.016644742339849472,-0.006524738855659962,0.0026631588116288185
1772642862510193200,5.869193115234375,0.01717737503349781,-0.003861580276861787,0.0026631588116288185
1772642862520198100,5.8791982421875,0.018775269389152527,0.0003994738217443228,0.0005326317623257637
1772642862530203000,5.889202880859375,0.018775269389152527,-0.00013315794058144093,-0.001597895286977291
1772642862540207600,5.89920751953125,0.016644742339849472,-0.001731053227558732,-0.00426105409860611
1772642862550212600,5.909212646484375,0.01717737503349781,-0.0022636849898844957,-0.003728422336280346
1772642862560217300,5.91921728515625,0.016644742339849472,-0.004926843568682671,-0.0026631588116288185
1772642862570221800,5.929221923828125,0.018775269389152527,-0.001731053227558732,-0.002130527049303055
1772642862580226600,5.9392265625,0.017710005864501,-0.0022636849898844957,-0.0026631588116288185
1772642862590231300,5.949231201171875,0.016644742339849472,-0.0006657897029072046,-0.002130527049303055
1772642862600236000,5.959236083984375,0.016112111508846283,0.003595264395698905,-0.0005326317623257637
1772642862610240800,5.96924072265625,0.015046847052872181,0.007856318727135658,0.006391581147909164
1772642862620245500,5.97924560546875,0.014514215290546417,0.01105210930109024,0.006924212910234928
1772642862630250000,5.98925,0.015046847052872181,0.00945421401411295,0.005858949385583401
1772642862640254700,5.999254638671875,0.013981583528220654,0.0073236869648098946,0.005858949385583401
1772642862650259500,6.009259521484375,0.015579478815197945,0.003595264395698905,0.005858949385583401
1772642862660264200,6.01926416015625,0.014514215290546417,-0.0006657897029072046,0.004793685860931873
1772642862670269000,6.02926904296875,0.013981583528220654,-0.005459475331008434,0.001597895286977291
1772642862680273400,6.0392734375,0.011318424716591835,-0.010253161191940308,0.002130527049303055
1772642862690278100,6.049278076171875,0.014514215290546417,-0.013981583528220654,0.0010652635246515274
1772642862700283000,6.059282958984375,0.01344895176589489,-0.016112111508846283,0.004793685860931873
1772642862710287600,6.06928759765625,0.012383688241243362,-0.020373165607452393,0.003195790573954582
1772642862720292400,6.079292236328125,0.012383688241243362,-0.02143842913210392,0.005326317623257637
1772642862730296800,6.089296875,0.012916320003569126,-0.023568956181406975,0.00426105409860611
1772642862740301600,6.099301513671875,0.013981583528220654,-0.02090579643845558,0.006391581147909164
1772642862750306300,6.109306396484375,0.015046847052872181,-0.02143842913210392,0.006924212910234928
1772642862760311000,6.11931103515625,0.014514215290546417,-0.020373165607452393,0.005858949385583401
1772642862770315800,6.129315673828125,0.013981583528220654,-0.019307902082800865,0.002130527049303055
1772642862780320300,6.1393203125,0.012916320003569126,-0.01717737503349781,0.002130527049303055
1772642862790325000,6.149324951171875,0.012916320003569126,-0.010785792954266071,0.0026631588116288185
1772642862800329700,6.159329833984375,0.01344895176589489,-0.010785792954266071,0.0026631588116288185
1772642862810334500,6.16933447265625,0.012383688241243362,-0.005992107093334198,0.002130527049303055
1772642862820339200,6.179339111328125,0.011318424716591835,-0.0022636849898844957,-0.0010652635246515274
1772642862830344000,6.189343994140625,0.011851056478917599,0.0025300008710473776,-0.001597895286977291
1772642862840348700,6.1993486328125,0.011851056478917599,0.006791055202484131,-0.00426105409860611
1772642862850353200,6.209353271484375,0.010253161191940308,0.012117372825741768,-0.003195790573954582
1772642862860358000,6.21935791015625,0.008655265904963017,0.013715268112719059,-0.00426105409860611
1772642862870362600,6.229362548828125,0.007590002380311489,0.011584741063416004,-0.005858949385583401
1772642862880367400,6.239367431640625,0.005992107093334198,0.01531316339969635,-0.0026631588116288185
1772642862890372000,6.2493720703125,0.004926843568682671,0.016378426924347878,-0.0005326317623257637
1772642862900376600,6.25937646484375,0.003861580276861787,0.017443690448999405,-0.0010652635246515274
1772642862910381300,6.26938134765625,0.0027963167522102594,0.016911057755351067,-0.002130527049303055
1772642862920386000,6.279385986328125,0.001731053227558732,0.02010684832930565,-0.0026631588116288185
1772642862930390800,6.289390869140625,-0.0003994738217443228,0.021704744547605515,-0.0026631588116288185
1772642862940395500,6.2993955078125,-0.0025300008710473776,0.022237375378608704,-0.00426105409860611
1772642862950400000,6.30939990234375,-0.0003994738217443228,0.020639481022953987,-0.003728422336280346
1772642862960404700,6.31940478515625,-0.0014647373463958502,0.020639481022953987,-0.003195790573954582
1772642862970409500,6.329409423828125,0.00013315794058144093,0.02383527159690857,-0.00426105409860611
1772642862980414200,6.339414306640625,0.001731053227558732,0.022770008072257042,-0.003728422336280346
1772642862990419000,6.3494189453125,0.0027963167522102594,0.01531316339969635,-0.003195790573954582
1772642863000423700,6.359423583984375,0.0006657897029072046,0.014780531637370586,-0.003728422336280346
1772642863010428200,6.36942822265625,0.0006657897029072046,0.013182636350393295,-0.003195790573954582
1772642863020433000,6.379432861328125,0.003861580276861787,0.012650004588067532,-0.001597895286977291
1772642863030437600,6.389437744140625,0.005459475331008434,0.010519477538764477,-0.001597895286977291
1772642863040442400,6.3994423828125,0.004926843568682671,0.007856318727135658,-0.0026631588116288185
1772642863050447000,6.409447021484375,0.004394211806356907,0.004660528153181076,0.0010652635246515274
1772642863060451600,6.41945166015625,0.0022636849898844957,0.0030626326333731413,0.0005326317623257637
1772642863070456000,6.4294560546875,0.0022636849898844957,0.0003994738217443228,0.0005326317623257637
1772642863080460300,6.439460205078125,0.0006657897029072046,-0.00013315794058144093,-0.0010652635246515274
1772642863090464800,6.44946484375,0.0022636849898844957,-0.0027963167522102594,-0.004793685860931873
1772642863100469000,6.459468994140625,0.0006657897029072046,-0.004394211806356907,-0.007456844672560692
1772642863110473500,6.469473388671875,0.00013315794058144093,-0.0022636849898844957,-0.007989476434886456
1772642863120478000,6.47947802734375,0.004926843568682671,-0.006524738855659962,-0.00426105409860611
1772642863130482200,6.489482177734375,0.004926843568682671,-0.00918789766728878,-0.003728422336280346
1772642863140486700,6.499486572265625,0.005992107093334198,-0.00918789766728878,0.0005326317623257637
1772642863150491100,6.5094912109375,0.007590002380311489,-0.008122634142637253,0.0010652635246515274
1772642863160495400,6.519495361328125,0.007590002380311489,-0.004926843568682671,0.001597895286977291
1772642863170499800,6.529499755859375,0.008122634142637253,-0.0022636849898844957,0.0005326317623257637
1772642863180504000,6.539504150390625,0.007057370617985725,0.0009321055840700865,-0.001597895286977291
1772642863190508500,6.549508544921875,0.006524738855659962,0.006791055202484131,-0.001597895286977291
1772642863200513000,6.559512939453125,0.004394211806356907,0.008388950489461422,-0.005858949385583401
1772642863210517200,6.569517333984375,0.0027963167522102594,0.0073236869648098946,-0.005326317623257637
1772642863220521700,6.579521728515625,0.004926843568682671,0.004660528153181076,-0.006391581147909164
1772642863230526200,6.589526123046875,0.003328948514536023,0.00519315991550684,-0.0010652635246515274
1772642863240530400,6.599530517578125,0.005992107093334198,0.007856318727135658,0.003195790573954582
1772642863250535000,6.609534912109375,0.005992107093334198,0.004127896390855312,0.00426105409860611
1772642863260539400,6.619539306640625,0.003861580276861787,0.003595264395698905,0.002130527049303055
1772642863270543600,6.629543701171875,0.004926843568682671,0.006258423440158367,0
1772642863280548000,6.639548095703125,0.001731053227558732,0.006791055202484131,0.0010652635246515274
1772642863290552600,6.649552490234375,0.003328948514536023,0.006791055202484131,0.001597895286977291
1772642863300556800,6.659556884765625,0.004926843568682671,0.0014647373463958502,0.002130527049303055
1772642863310561300,6.669561279296875,0.006524738855659962,-0.004926843568682671,0.003195790573954582
1772642863320565500,6.6795654296875,0.007057370617985725,-0.013981583528220654,0.003728422336280346
1772642863330570000,6.689570068359375,0.008655265904963017,-0.019307902082800865,0.005858949385583401
1772642863340574500,6.699574462890625,0.009720529429614544,-0.02143842913210392,0.007456844672560692
1772642863350578700,6.70957861328125,0.010253161191940308,-0.02143842913210392,0.004793685860931873
1772642863360583200,6.719583251953125,0.011318424716591835,-0.02090579643845558,0.005326317623257637
1772642863370587600,6.729587646484375,0.010785792954266071,-0.01717737503349781,0.00426105409860611
1772642863380591900,6.739591796875,0.010785792954266071,-0.018242638558149338,0.00426105409860611
1772642863390596400,6.749596435546875,0.010253161191940308,-0.023036323487758636,0.003195790573954582
1772642863400600600,6.7596005859375,0.008655265904963017,-0.02516685053706169,0.003728422336280346
1772642863410605000,6.76960498046875,0.008122634142637253,-0.024634219706058502,0.005858949385583401
1772642863420609500,6.779609619140625,0.008122634142637253,-0.02143842913210392,0.007456844672560692
1772642863430613800,6.78961376953125,0.007590002380311489,-0.02143842913210392,0.006391581147909164
1772642863440618200,6.7996181640625,0.006524738855659962,-0.020373165607452393,0.005858949385583401
1772642863450622700,6.809622802734375,0.005992107093334198,-0.01717737503349781,0.004793685860931873
1772642863460627000,6.819626953125,0.0027963167522102594,-0.015046847052872181,0.005858949385583401
1772642863470631400,6.82963134765625,0.0022636849898844957,-0.012916320003569126,0.005858949385583401
1772642863480636000,6.839635986328125,-0.0014647373463958502,-0.014514215290546417,0.007456844672560692
1772642863490640100,6.84964013671875,-0.0025300008710473776,-0.015046847052872181,0.005858949385583401
1772642863500644600,6.85964453125,-0.00519315991550684,-0.015046847052872181,0.005326317623257637
1772642863510649000,6.869649169921875,-0.004660528153181076,-0.010785792954266071,0.007989476434886456
1772642863520653300,6.8796533203125,-0.0030626326333731413,-0.008655265904963017,0.009054739959537983
1772642863530657800,6.88965771484375,-0.003595264395698905,-0.007057370617985725,0.00852210819721222
1772642863540662300,6.899662353515625,-0.003595264395698905,-0.005992107093334198,0.0026631588116288185
1772642863550666500,6.90966650390625,-0.003595264395698905,-0.0022636849898844957,0
1772642863560671000,6.9196708984375,-0.0014647373463958502,-0.001731053227558732,-0.0005326317623257637
1772642863570675500,6.929675537109375,-0.0009321055840700865,0.0014647373463958502,0.0010652635246515274
1772642863580680000,6.939679931640625,-0.0003994738217443228,-0.0011984214652329683,0.0005326317623257637
1772642863590684400,6.949684326171875,0.00013315794058144093,-0.0022636849898844957,0
1772642863600689200,6.959689208984375,0.0011984214652329683,-0.003861580276861787,0.0005326317623257637
1772642863610693600,6.969693603515625,0.001731053227558732,0.0014647373463958502,0.0010652635246515274
1772642863620698000,6.979697998046875,0.0022636849898844957,0.0014647373463958502,0.002130527049303055
1772642863630702600,6.98970263671875,0.001731053227558732,0.004660528153181076,0.0010652635246515274
1772642863640707000,6.99970703125,-0.0009321055840700865,0.0073236869648098946,0.0005326317623257637
1772642863650711600,7.009711669921875,-0.0014647373463958502,0.0030626326333731413,-0.0026631588116288185
1772642863660716300,7.01971630859375,-0.004660528153181076,0.004127896390855312,-0.0010652635246515274
1772642863670720800,7.029720703125,-0.004127896390855312,0.0014647373463958502,-0.0010652635246515274
1772642863680725200,7.039725341796875,-0.0030626326333731413,0.0025300008710473776,-0.0026631588116288185
1772642863690729700,7.049729736328125,-0.003595264395698905,0.0009321055840700865,-0.003728422336280346
1772642863700734200,7.059734130859375,-0.0030626326333731413,0.0014647373463958502,-0.0026631588116288185
1772642863710738700,7.06973876953125,-0.0014647373463958502,0.00519315991550684,-0.00426105409860611
1772642863720743200,7.0797431640625,-0.0009321055840700865,0.0073236869648098946,-0.005858949385583401
1772642863730748000,7.089747802734375,-0.0014647373463958502,0.008388950489461422,-0.006924212910234928
1772642863740752400,7.09975244140625,-0.0014647373463958502,0.0073236869648098946,-0.006924212910234928
1772642863750756900,7.1097568359375,-0.0014647373463958502,0.012117372825741768,-0.00852210819721222
1772642863760761300,7.11976123046875,-0.0009321055840700865,0.006258423440158367,-0.007989476434886456
1772642863770765800,7.129765869140625,0.0006657897029072046,0.004127896390855312,-0.006391581147909164
1772642863780770300,7.139770263671875,0.00013315794058144093,0.006791055202484131,-0.0010652635246515274
1772642863790774800,7.14977490234375,0.003861580276861787,0.0030626326333731413,0.001597895286977291
1772642863810784000,7.169783935546875,0.008655265904963017,0.003595264395698905,0.0005326317623257637
1772642863820788500,7.17978857421875,0.004926843568682671,0.0014647373463958502,0.0005326317623257637
1772642863830793000,7.18979296875,0.005992107093334198,0.001997369108721614,0.0010652635246515274
1772642863840797400,7.19979736328125,0.005459475331008434,0.004127896390855312,0.001597895286977291
1772642863850802000,7.209802001953125,0.004926843568682671,0.003595264395698905,0.003195790573954582
1772642863860806400,7.219806396484375,0.001731053227558732,0.0014647373463958502,0.00426105409860611
1772642863870811100,7.22981103515625,0.0011984214652329683,0.0014647373463958502,0.003728422336280346
1772642863880815600,7.239815673828125,-0.001997369108721614,-0.0027963167522102594,0.003728422336280346
1772642863890820000,7.249820068359375,-0.003595264395698905,-0.003861580276861787,0.003195790573954582
1772642863900824600,7.259824462890625,-0.0030626326333731413,-0.003861580276861787,0.0010652635246515274
1772642863910829000,7.2698291015625,-0.0025300008710473776,0.0003994738217443228,0.001597895286977291
1772642863920833500,7.27983349609375,-0.003595264395698905,0.0014647373463958502,0
1772642863930838300,7.28983837890625,-0.0025300008710473776,0.001997369108721614,0
1772642863940842800,7.2998427734375,-0.003595264395698905,0.0025300008710473776,0.001597895286977291
1772642863950847200,7.30984716796875,-0.00519315991550684,-0.0006657897029072046,0.003728422336280346
1772642863960851700,7.319851806640625,-0.00519315991550684,-0.0006657897029072046,0.007456844672560692
1772642863970856200,7.329856201171875,-0.004127896390855312,-0.0006657897029072046,0.009587371721863747
1772642863980860700,7.339860595703125,-0.006258423440158367,0.001997369108721614,0.009054739959537983
1772642863990865200,7.349865234375,-0.006791055202484131,0.001997369108721614,0.005326317623257637
1772642864000870000,7.359869873046875,-0.007856318727135658,0.001997369108721614,0.003728422336280346
1772642864010874400,7.369874267578125,-0.00945421401411295,0.0025300008710473776,0.0026631588116288185
1772642864020878800,7.37987890625,-0.00945421401411295,0.0030626326333731413,0.001597895286977291
1772642864030883300,7.38988330078125,-0.009986845776438713,0.0025300008710473776,0
1772642864040887800,7.3998876953125,-0.009986845776438713,0.0014647373463958502,0.001597895286977291
1772642864050892300,7.409892333984375,-0.0073236869648098946,0.003595264395698905,0.0010652635246515274
1772642864060897000,7.41989697265625,-0.0073236869648098946,0.0009321055840700865,0.003728422336280346
1772642864070902000,7.429902099609375,-0.006258423440158367,0.004127896390855312,0.002130527049303055
1772642864080907300,7.4399072265625,-0.006791055202484131,0.003595264395698905,0.001597895286977291
1772642864090912300,7.449912353515625,-0.00945421401411295,0.0030626326333731413,0.003195790573954582
1772642864100917200,7.459917236328125,-0.009986845776438713,0.0025300008710473776,0.0026631588116288185
1772642864110922200,7.469922119140625,-0.009986845776438713,0.001997369108721614,0.002130527049303055
1772642864120927500,7.479927490234375,-0.009986845776438713,0.004127896390855312,0.0026631588116288185
1772642864130932500,7.489932373046875,-0.010519477538764477,0.0014647373463958502,0.003195790573954582
1772642864140937500,7.4999375,-0.00945421401411295,0.00519315991550684,0.00426105409860611
1772642864150942700,7.509942626953125,-0.01105210930109024,0.0025300008710473776,0.0026631588116288185
1772642864160947700,7.51994775390625,-0.008388950489461422,-0.0011984214652329683,0.0010652635246515274
1772642864170952700,7.52995263671875,-0.011584741063416004,-0.0011984214652329683,0
1772642864180958000,7.5399580078125,-0.009986845776438713,0.003595264395698905,0.0005326317623257637
1772642864190963000,7.549962890625,-0.007856318727135658,0.001997369108721614,0.003728422336280346
1772642864200968000,7.559968017578125,-0.006791055202484131,0.0025300008710473776,0.005326317623257637
1772642864210973000,7.569972900390625,-0.0057257916778326035,0.0003994738217443228,0.004793685860931873
1772642864220978200,7.579978271484375,-0.00519315991550684,0.0030626326333731413,0.007456844672560692
1772642864230983200,7.589983154296875,-0.004660528153181076,0.0030626326333731413,0.006924212910234928
1772642864240988200,7.59998828125,-0.00519315991550684,0.003595264395698905,0.003728422336280346
1772642864250993400,7.609993408203125,-0.0057257916778326035,0.0014647373463958502,0.0026631588116288185
1772642864260998400,7.619998291015625,-0.00519315991550684,0.003595264395698905,0.002130527049303055
1772642864271003400,7.63000341796875,-0.0057257916778326035,0.0003994738217443228,0.001597895286977291
1772642864281008400,7.64000830078125,-0.0030626326333731413,0.0003994738217443228,0.003195790573954582
1772642864291013600,7.650013671875,-0.003595264395698905,-0.004394211806356907,0.004793685860931873
1772642864301018600,7.6600185546875,-0.0025300008710473776,-0.0011984214652329683,0.007456844672560692
1772642864311023600,7.670023681640625,-0.0003994738217443228,-0.0006657897029072046,0.005326317623257637
1772642864321028900,7.68002880859375,-0.0014647373463958502,0.0003994738217443228,0.003728422336280346
1772642864331033900,7.690033935546875,-0.001997369108721614,-0.00013315794058144093,0
1772642864341038800,7.700038818359375,-0.001997369108721614,0.001997369108721614,0.0005326317623257637
1772642864351044000,7.710044189453125,-0.0030626326333731413,0.001997369108721614,0.0005326317623257637
1772642864361049000,7.720049072265625,-0.0030626326333731413,-0.00013315794058144093,0.0005326317623257637
1772642864371054000,7.73005419921875,-0.003595264395698905,-0.00013315794058144093,0.003728422336280346
1772642864381059000,7.74005908203125,-0.004127896390855312,-0.001731053227558732,0.004793685860931873
1772642864391064300,7.750064208984375,-0.003595264395698905,-0.00013315794058144093,0.00426105409860611
1772642864401069300,7.7600693359375,-0.003595264395698905,-0.00013315794058144093,0.005858949385583401
1772642864411074300,7.77007421875,-0.004127896390855312,0.00519315991550684,0.00426105409860611
1772642864421079600,7.78007958984375,-0.0030626326333731413,0.006258423440158367,0.003195790573954582
1772642864431084500,7.79008447265625,-0.004660528153181076,0.006258423440158367,0.005326317623257637
1772642864441089500,7.800089599609375,-0.006791055202484131,0.007856318727135658,0.002130527049303055
1772642864451094500,7.810094482421875,-0.008921582251787186,0.006258423440158367,0.0005326317623257637
1772642864461099800,7.820099853515625,-0.006258423440158367,0.004660528153181076,-0.002130527049303055
1772642864471104800,7.830104736328125,-0.006258423440158367,-0.001731053227558732,-0.0005326317623257637
1772642864481109800,7.84010986328125,-0.004660528153181076,-0.001731053227558732,0.003195790573954582
1772642864491115000,7.850114990234375,-0.003595264395698905,-0.0011984214652329683,0.00426105409860611
1772642864501120000,7.8601201171875,-0.0014647373463958502,-0.0022636849898844957,0.003195790573954582
1772642864511125000,7.870125,-0.0009321055840700865,0.003595264395698905,0.002130527049303055
1772642864521130200,7.880130126953125,-0.001997369108721614,0.003595264395698905,0.001597895286977291
1772642864531135200,7.89013525390625,-0.003595264395698905,0.0025300008710473776,0.004793685860931873
1772642864541140200,7.90014013671875,-0.00519315991550684,0.003595264395698905,0.0010652635246515274
1772642864551145200,7.910145263671875,-0.0073236869648098946,-0.0027963167522102594,0.0005326317623257637
1772642864561150200,7.920150146484375,-0.007856318727135658,-0.003328948514536023,-0.0010652635246515274
1772642864571154700,7.93015478515625,-0.00519315991550684,-0.003328948514536023,-0.003195790573954582
1772642864581159200,7.9401591796875,-0.0025300008710473776,-0.001731053227558732,-0.003195790573954582
1772642864591163600,7.95016357421875,-0.004127896390855312,-0.0022636849898844957,-0.004793685860931873
1772642864601168100,7.960168212890625,-0.0030626326333731413,-0.001731053227558732,-0.003195790573954582
1772642864611172900,7.9701728515625,-0.004660528153181076,0.001997369108721614,-0.0005326317623257637
1772642864621177300,7.98017724609375,-0.00519315991550684,0.004660528153181076,0.0010652635246515274
1772642864631181800,7.990181884765625,-0.00519315991550684,0.004660528153181076,0.0010652635246515274
1772642864641186300,8.000186279296875,-0.004660528153181076,0.004660528153181076,0.003195790573954582
1772642864651190800,8.010190673828125,-0.003595264395698905,0.0003994738217443228,0.006391581147909164
1772642864661195500,8.020195556640624,-0.001997369108721614,-0.0006657897029072046,0.005858949385583401
1772642864671200000,8.030199951171875,-0.0025300008710473776,-0.0011984214652329683,0.006924212910234928
1772642864681204500,8.04020458984375,-0.0030626326333731413,-0.0011984214652329683,0.005326317623257637
1772642864691209000,8.050208984375,-0.00519315991550684,-0.006524738855659962,0.003728422336280346
1772642864701213400,8.06021337890625,-0.0073236869648098946,-0.008122634142637253,0.0026631588116288185
1772642864711218200,8.07021826171875,-0.008388950489461422,-0.010253161191940308,0.0010652635246515274
1772642864721222700,8.08022265625,-0.008388950489461422,-0.010785792954266071,0.0026631588116288185
1772642864731227100,8.09022705078125,-0.004660528153181076,-0.007057370617985725,0
1772642864741231600,8.100231689453125,-0.0025300008710473776,-0.005459475331008434,0.0005326317623257637
1772642864751236000,8.110236083984375,-0.001997369108721614,-0.004926843568682671,-0.0010652635246515274
1772642864761240800,8.12024072265625,-0.003595264395698905,-0.005459475331008434,0.001597895286977291
1772642864771245300,8.130245361328125,-0.0030626326333731413,-0.005992107093334198,0.002130527049303055
1772642864781249800,8.140249755859376,-0.004660528153181076,-0.006524738855659962,0.002130527049303055
1772642864791254300,8.150254150390625,-0.003595264395698905,-0.003861580276861787,0.002130527049303055
1772642864801258800,8.1602587890625,-0.0014647373463958502,-0.0022636849898844957,0
1772642864811263500,8.170263427734374,-0.0030626326333731413,-0.001731053227558732,0.0026631588116288185
1772642864821268000,8.18026806640625,-0.0003994738217443228,0.0009321055840700865,0.003195790573954582
1772642864831272400,8.1902724609375,-0.0003994738217443228,-0.003328948514536023,0.0005326317623257637
1772642864841277000,8.20027685546875,-0.0014647373463958502,-0.006524738855659962,0.002130527049303055
1772642864851281700,8.21028173828125,-0.001997369108721614,-0.005459475331008434,0.003728422336280346
1772642864861286100,8.2202861328125,-0.003595264395698905,-0.007590002380311489,0.003195790573954582
1772642864871290600,8.23029052734375,-0.003595264395698905,-0.006524738855659962,0.005326317623257637
1772642864881295000,8.240295166015626,-0.0003994738217443228,-0.005992107093334198,0.001597895286977291
1772642864891299600,8.250299560546875,-0.0009321055840700865,-0.0011984214652329683,-0.0010652635246515274
1772642864901304300,8.26030419921875,-0.0009321055840700865,0.001997369108721614,-0.002130527049303055
1772642864911308800,8.270308837890624,0.00013315794058144093,0.0014647373463958502,-0.006924212910234928
1772642864921313300,8.280313232421875,-0.0003994738217443228,0.0025300008710473776,-0.005326317623257637
1772642864931317800,8.29031787109375,0.0011984214652329683,-0.0027963167522102594,-0.006391581147909164
1772642864941322200,8.300322265625,0.001731053227558732,-0.004926843568682671,-0.003728422336280346
1772642864951327000,8.310326904296875,0.003328948514536023,-0.003861580276861787,-0.001597895286977291
1772642864961331500,8.32033154296875,0.001731053227558732,-0.004394211806356907,-0.002130527049303055
1772642864971336000,8.3303359375,0.00013315794058144093,-0.007057370617985725,-0.0010652635246515274
1772642864981340400,8.34034033203125,-0.0009321055840700865,-0.007590002380311489,-0.002130527049303055
1772642864991345000,8.350344970703125,-0.0003994738217443228,-0.006524738855659962,0.0005326317623257637
1772642865001349600,8.360349609375,-0.0009321055840700865,-0.005459475331008434,0.0010652635246515274
1772642865011354000,8.37035400390625,0.00013315794058144093,-0.0011984214652329683,-0.001597895286977291
1772642865021358600,8.380358642578125,-0.0030626326333731413,0.004127896390855312,-0.004793685860931873
1772642865031363000,8.390363037109376,-0.001997369108721614,0.004660528153181076,-0.005858949385583401
1772642865041367600,8.400367431640625,-0.001997369108721614,0.004127896390855312,-0.005326317623257637
1772642865051372300,8.410372314453125,-0.004660528153181076,0.0009321055840700865,-0.005326317623257637
1772642865061377000,8.420376953125,-0.00519315991550684,-0.00013315794058144093,-0.003728422336280346
1772642865071382300,8.43038232421875,-0.004127896390855312,0.0009321055840700865,-0.003728422336280346
1772642865081387500,8.440387451171874,-0.003595264395698905,0.004127896390855312,-0.0026631588116288185
1772642865091392800,8.450392822265625,-0.004660528153181076,0.008388950489461422,-0.002130527049303055
1772642865101397800,8.460397705078124,-0.003595264395698905,0.009986845776438713,0.0010652635246515274
1772642865111403000,8.470403076171875,-0.004127896390855312,0.013182636350393295,0.0005326317623257637
1772642865121408300,8.480408203125,-0.0025300008710473776,0.012117372825741768,0.001597895286977291
1772642865131413500,8.49041357421875,-0.001997369108721614,0.01105210930109024,0
1772642865141418800,8.500418701171874,-0.0030626326333731413,0.011584741063416004,0
1772642865151424000,8.510424072265625,-0.0009321055840700865,0.012650004588067532,0.003195790573954582
1772642865161429200,8.52042919921875,0.0011984214652329683,0.01584579423069954,0.0026631588116288185
1772642865171434200,8.530434326171875,-0.0003994738217443228,0.013715268112719059,0.0010652635246515274
1772642865181439500,8.540439453125,0.00013315794058144093,0.011584741063416004,-0.003728422336280346
1772642865191444700,8.55044482421875,-0.0003994738217443228,0.008388950489461422,-0.002130527049303055
1772642865201450000,8.560449951171876,-0.0009321055840700865,0.008921582251787186,-0.0026631588116288185
1772642865211455200,8.570455322265625,-0.003595264395698905,0.007856318727135658,-0.0026631588116288185
1772642865221460500,8.58046044921875,-0.003595264395698905,0.0073236869648098946,0
1772642865231465500,8.590465576171875,-0.004660528153181076,0.00519315991550684,-0.001597895286977291
1772642865241470700,8.600470703125,-0.00519315991550684,0.00519315991550684,0
1772642865251476000,8.61047607421875,-0.006791055202484131,0.004660528153181076,0.0010652635246515274
1772642865261481200,8.620481201171875,-0.006258423440158367,0.0057257916778326035,0.003728422336280346
1772642865271486500,8.630486572265625,-0.008388950489461422,0.008388950489461422,0.002130527049303055
1772642865281491700,8.64049169921875,-0.008921582251787186,0.014780531637370586,0.0010652635246515274
1772642865291497000,8.6504970703125,-0.00945421401411295,0.012117372825741768,0.0010652635246515274
1772642865301502000,8.660501953125,-0.011584741063416004,0.009986845776438713,-0.0005326317623257637
1772642865311507200,8.670507080078124,-0.013182636350393295,0.0073236869648098946,0.0010652635246515274
1772642865321512400,8.680512451171875,-0.00945421401411295,0.00945421401411295,0.005858949385583401
1772642865331517700,8.690517578125,-0.008921582251787186,0.007856318727135658,0.006924212910234928
1772642865341523000,8.70052294921875,-0.00945421401411295,0.0073236869648098946,0.004793685860931873
1772642865351528000,8.71052783203125,-0.007856318727135658,0.007856318727135658,0.0026631588116288185
1772642865361533200,8.720533203125,-0.008921582251787186,0.013715268112719059,0.003195790573954582
1772642865371538400,8.730538330078126,-0.00519315991550684,0.021172111853957176,0.009054739959537983
1772642865381543700,8.740543701171875,-0.004660528153181076,0.021172111853957176,0.0026631588116288185
1772642865391549000,8.750548828125,-0.006791055202484131,0.014247899875044823,-0.006924212910234928
1772642865401554200,8.76055419921875,-0.0057257916778326035,0.013182636350393295,-0.001597895286977291
1772642865411559200,8.77055908203125,-0.0073236869648098946,0.01105210930109024,-0.005858949385583401
1772642865421564400,8.780564453125,-0.007856318727135658,0.006258423440158367,-0.007456844672560692
1772642865431569700,8.790569580078126,-0.009986845776438713,0.004127896390855312,-0.005858949385583401
1772642865441575000,8.800574951171875,-0.008921582251787186,0.0025300008710473776,-0.007456844672560692
1772642865451580200,8.810580078125,-0.01105210930109024,0.001997369108721614,-0.007989476434886456
1772642865461585400,8.82058544921875,-0.0073236869648098946,0.0025300008710473776,-0.007456844672560692
1772642865471590700,8.830590576171875,-0.00945421401411295,-0.0022636849898844957,-0.003728422336280346
1772642865481595600,8.840595703125,-0.010519477538764477,0.0025300008710473776,0.002130527049303055
