time,seconds_elapsed,z,y,x
1772649851421305000,0.06530517578125,0.15188684399127958,-0.06343991425335407,-0.28105419891327615
1772649851431346200,0.07534619140625,0.18326982424855232,-0.029889526829123495,-0.32363464581556617
1772649851441388000,0.085387939453125,0.22947394154071807,0.007078560084104538,-0.28668833234272895
1772649851451429000,0.09542919921875,0.2008206785082817,-0.025178280398249625,-0.15610906479619444
1772649851461470500,0.105470458984375,0.1331686995178461,-0.02632569686770439,-0.07611059525609017
1772649851471511300,0.11551123046875,0.10377543177306651,0.0031926585614681243,-0.0493496487762779
1772649851481553400,0.125553466796875,0.11968056465238332,0.0459755692332983,-0.008565072314813732
1772649851491594200,0.13559423828125,0.1554804845690727,0.00796995596587658,0.03730696347877383
1772649851501635300,0.14563525390625,0.155254274597764,-0.03825988028943538,0.16119754704162478
1772649851511676400,0.155676513671875,-0.011484101566672324,-0.03507131338119507,0.3362610492851585
1772649851521717200,0.16571728515625,-0.14317659105211494,0.009158873489499092,0.5357523058205843
1772649851531759400,0.17575927734375,-0.04621259285956621,0.015720131701231002,0.6366505016569047
1772649851541800200,0.18580029296875,0.1250581660374999,-0.13085282379090785,0.7409939425762743
1772649851551841300,0.19584130859375,0.33441344865709544,-0.32662615578174586,0.768680406403169
1772649851561882400,0.20588232421875,0.5890034190148115,-0.4330243372738361,0.7149331802550702
1772649851571923200,0.215923095703125,0.7691741082042455,-0.44264322949051854,0.701205756741017
1772649851581965300,0.22596533203125,0.6678969229876994,-0.5035778829246759,0.658709846317023
1772649851592006100,0.236006103515625,0.40953941679000855,-0.5276239444226026,0.4949009477332234
1772649851602047200,0.246047119140625,0.09300883082598448,-0.4829354923903942,0.35332426615841683
1772649851612088300,0.25608837890625,-0.1585378263130784,-0.44871232027113434,0.21739399297274647
1772649851622130400,0.26613037109375,-0.2273787228271365,-0.5273720154881477,0.001796235767006874
1772649851632171500,0.276171630859375,-0.43127895491123197,-0.7075052952766419,-0.10257796561680733
1772649851642212400,0.28621240234375,-0.6482897207200526,-0.8415852644205093,-0.16615239297002554
1772649851652253400,0.29625341796875,-1.0636853161923587,-0.9449743272244929,-0.011623363906890153
1772649851662294300,0.306294189453125,-1.143345274493098,-1.0114829813987016,0.22656945227086542
1772649851672336400,0.31633642578125,-0.8967147387072444,-1.0997013630777597,0.3933749023221433
1772649851682377200,0.326377197265625,-0.7101502568274736,-1.155330311319232,0.5878916583806276
1772649851692418300,0.336418212890625,-0.3650969023428857,-1.1649503725796937,0.7435625509552657
1772649851702459400,0.34645947265625,0.19356646959632634,-1.1670844619989393,0.7828378918975591
1772649851712501200,0.356501220703125,0.5230488915920257,-1.1874340070664882,0.845534367372468
1772649851722542300,0.366542236328125,0.5637796920396387,-1.1874217321068048,0.8804754054374992
1772649851732583200,0.376583251953125,0.8882061458200216,-1.2073270405381917,0.6886729498390108
1772649851742624300,0.386624267578125,1.0814496670722962,-1.5084809014111757,0.4087881600312888
1772649851752665300,0.396665283203125,1.4143044881105422,-1.7292402060985563,-0.11821772555820644
1772649851762707200,0.406707275390625,1.7586995248168706,-1.961644940394163,-0.7061795265655965
1772649851772748300,0.416748291015625,1.3911913235485553,-2.5376041689187288,-1.074440884288773
1772649851782789000,0.4267890625,0.2950584666073322,-3.1168735449045895,-1.208123963069543
1772649851792830200,0.436830322265625,-0.29050737917423247,-3.6549697835028168,-1.5447095681339502
1772649851802871300,0.446871337890625,-0.6620153176032006,-4.125797489470243,-1.603660938796401
1772649851812913400,0.456913330078125,-0.9930079980313777,-4.448777982226014,-1.4085516236722468
1772649851822954500,0.46695458984375,-1.0552644015885888,-4.591068145832419,-1.099727812693268
1772649851832995300,0.476995361328125,-0.8747031056463718,-4.59729505752325,-0.7226410512186586
1772649851843036400,0.487036376953125,-0.23005042625442146,-4.095070342773199,-0.37396833719313144
1772649851853078300,0.497078369140625,-0.09105155927836894,-3.3134634539753196,0.2976176495708525
1772649851863119400,0.507119384765625,-0.29651261093840003,-2.3621558320760725,0.9109362293485551
1772649851873160400,0.517160400390625,0.11766966322138905,-1.2458552163749932,1.4600864344678819
1772649851883201300,0.527201171875,0.48293169299811123,-0.09017477644383907,2.2476316272735595
1772649851893242400,0.537242431640625,0.718114952096343,0.9916729500353336,2.960583497518301
1772649851903284200,0.5472841796875,0.6061065295070409,2.1634756727278233,3.3685651634722946
1772649851913325300,0.5573251953125,0.5700766002267599,3.433611928400397,3.4626360705718398
1772649851923366400,0.567366455078125,0.5643589532323181,4.288994832026958,3.2426720079153775
1772649851933407200,0.5774072265625,-0.13581249202489853,4.335277275252342,2.6573645208090544
1772649851943448300,0.5874482421875,-1.04766722445786,4.1942426646649835,1.6519620283678174
1772649851953490200,0.597490234375,-2.18372614133507,4.29322384789884,0.5660523862119764
1772649851963531300,0.60753125,-3.2015634601965544,4.656382037264108,-0.4608783396873623
1772649851973572400,0.617572265625,-3.8674563498854635,5.490947778311371,-1.5797697755992413
1772649851983613200,0.62761328125,-3.9097842102661726,6.713120505803823,-2.329506192883849
1772649851993655300,0.6376552734375,-3.575532089650631,8.025141262003778,-2.3558541015833616
1772649852003696000,0.647696044921875,-3.1545822210520504,8.896361201709508,-1.555580067846924
1772649852013737200,0.6577373046875,-2.908288077613711,9.1436952095896,-0.2997557575780898
1772649852023778300,0.6677783203125,-2.9463112265378233,9.413646707469224,0.7709845186270773
1772649852033820400,0.6778203125,-3.396030385763943,9.854172798675298,1.647898724451661
1772649852043861500,0.687861572265625,-3.799041569828987,10.304725778377055,2.2683301319092513
1772649852053902300,0.69790234375,-3.7984775062054394,10.51305639412403,2.511870592725277
1772649852063943400,0.707943359375,-3.881161634632945,10.251426734387874,2.71919758438766
1772649852073984500,0.717984619140625,-3.6387902175962923,9.640338909336924,2.9639079657658933
1772649852084026400,0.7280263671875,-2.9980130644634366,8.753663626345991,2.908113305568695
1772649852094067500,0.7380673828125,-2.388554009658098,7.577651177003979,2.7082407215654847
1772649852104108300,0.7481083984375,-1.1513456255972385,6.170993988776207,2.356760695034265
1772649852114149400,0.7581494140625,0.37153278060927986,4.612484443348646,1.70670454916358
1772649852124190200,0.768190185546875,1.58333901238814,2.9544325736731287,1.0480874226313084
1772649852134232300,0.778232421875,2.711412337338924,1.5600930152267216,0.38864378214702006
1772649852144273400,0.7882734375,3.114348994863033,0.3004857523530721,-0.32805575019344685
1772649852154314200,0.798314208984375,3.384420611990988,-0.7566074720978736,-0.9898707229189574
1772649852164355300,0.808355224609375,3.5591479410827156,-1.919174748933315,-1.7679694574654101
1772649852174397200,0.818397216796875,3.7718256461232897,-3.3168747237235308,-2.6840163808912036
1772649852184438300,0.828438232421875,4.08249786144793,-4.930005501654744,-3.38199250806123
1772649852194479000,0.83847900390625,4.344281250441074,-6.441704780590534,-4.033702558618784
1772649852204520200,0.848520263671875,4.539707668690383,-7.541978390598297,-4.344378281074762
1772649852214561300,0.858561279296875,4.874088676382601,-9.017743017321825,-3.7755981503993272
1772649852224603400,0.868603271484375,4.728018117454647,-10.203321751910448,-3.950681161060929
1772649852234644500,0.87864453125,4.266709934982657,-11.167274335849285,-4.166681580783426
1772649852244685300,0.888685302734375,3.6061449623182416,-12.03171206806898,-3.7917654413461683
1772649852254726400,0.898726318359375,2.76606513402462,-12.725668145942688,-2.7430183126971124
1772649852264768300,0.908768310546875,1.9743227817900477,-13.051984505122899,-1.6725348607972264
1772649852274809300,0.918809326171875,1.318411918541789,-12.1699094094038,-1.4973811229869722
1772649852284850400,0.928850341796875,0.8945265810132026,-10.716565873324871,-0.9140658326111734
1772649852294891300,0.938891357421875,0.685841160479188,-9.854611190092562,-0.35748087438121434
1772649852304932400,0.948932373046875,0.8642888252682983,-9.691740010750292,-0.34387956146486104
1772649852314974200,0.95897412109375,1.2130537476219236,-9.84844331511259,-0.7417466606397182
1772649852325015300,0.969015380859375,1.5080005705483257,-9.900933380806446,-1.1224342230852693
1772649852335056400,0.979056396484375,1.6565613388568161,-9.775300337490439,-1.4477550684221088
1772649852345097200,0.98909716796875,1.622374407094717,-9.594542788323759,-1.7621503959231077
1772649852355139300,0.999139404296875,1.3061666233442724,-9.449029571017622,-1.903748047220707
1772649852365180200,1.00918017578125,0.7156490003742277,-9.277190072321892,-1.7809066804498432
1772649852375221200,1.01922119140625,0.2934831801146269,-8.869767209294437,-1.7193113711498678
1772649852385262300,1.029262451171875,0.54461891836524,-8.15725373046696,-2.0025784238070248
1772649852395303200,1.03930322265625,1.3173761457532644,-7.13942810204327,-2.0355986498773095
1772649852405345300,1.04934521484375,1.788828121098876,-5.810469655045867,-2.092263224776834
1772649852415386000,1.05938623046875,1.3680695372886955,-4.13335535750389,-1.6804006257362663
1772649852425427200,1.06942724609375,0.21021920597255228,-2.0470652157872915,-0.8337320667020977
1772649852435468300,1.07946826171875,0.3680361706651747,0.7677373533993959,-0.9175173613045364
1772649852445510400,1.089510498046875,4.770860649359226,4.772118540465831,-2.9706492567196485
1772649852455551500,1.099551513671875,9.305122619864344,10.178433978891372,-6.780605311533808
1772649852465592600,1.109592529296875,-4.1141035445451735,15.584890871614217,-0.8562791218139231
1772649852475633700,1.119633544921875,-12.084971364569663,18.505472029089926,10.352643713849782
1772649852485674500,1.129674560546875,-5.740633902275562,16.03144572159052,10.705322010254859
1772649852495716600,1.139716552734375,-3.3302281262934206,12.206962251991033,7.463513925692439
1772649852505757700,1.1497578125,-4.620621572574973,10.495484497076273,4.849036944973468
1772649852515798500,1.159798583984375,-6.770490744754672,11.160969682747124,4.959306999462843
1772649852525839600,1.169839599609375,-7.45938895471692,12.562484831911325,4.080499965628982
1772649852535881500,1.179881591796875,-5.622545867511629,13.598399074733257,3.4826477619871494
1772649852545922600,1.189922607421875,-4.239913113471865,12.522839050221442,4.5719010885477065
1772649852555963400,1.19996337890625,-4.880258597189187,11.157187826120852,6.422530124521255
1772649852566004500,1.21000439453125,-4.856744450610876,11.138134750604628,7.333100077840686
1772649852576045600,1.220045654296875,-4.40335361713469,11.783485495263337,6.894086729285121
1772649852586087700,1.230087646484375,-3.909077231040597,13.208558045625686,5.799696332097053
1772649852596128800,1.240128662109375,-3.8109061951458454,14.551927295291422,4.795687924362719
1772649852606169600,1.250169677734375,-3.7358150060653683,14.87526843805313,4.217927199374139
1772649852616210700,1.260210693359375,-2.431231121867895,13.60460435911417,3.4063621024250983
1772649852626252500,1.27025244140625,-0.5798199956059455,11.200679761844873,1.6609046287581324
1772649852636293600,1.280293701171875,0.28395898044407364,8.646458804646134,-0.0018072686176747084
1772649852646334700,1.290334716796875,0.5023733294405043,6.177544141072034,-1.2009681730307638
1772649852656375600,1.30037548828125,0.7700304327726364,3.706194359305501,-2.0089292541384696
1772649852666416600,1.310416748046875,0.9910358211755752,1.3087076861292124,-2.6310481762915847
1772649852676458500,1.32045849609375,1.487008489793539,-1.0971329738944768,-3.4147745414614676
1772649852686499600,1.33049951171875,3.5283126578360795,-4.283394527801871,-4.57855177860856
1772649852696540700,1.340540771484375,4.874239190769195,-7.573082553914189,-5.426136575704812
1772649852706581500,1.35058154296875,5.190443905779719,-9.416140277850626,-5.737328430989384
1772649852716623600,1.36062353515625,6.341929232108592,-10.305368752455712,-5.663181244760751
1772649852726664400,1.37066455078125,6.755262195962667,-10.525971989798546,-5.399311697143316
1772649852736705500,1.38070556640625,6.257756910949945,-10.97265075841546,-4.929067928543686
1772649852746746600,1.39074658203125,5.432562224838137,-11.598762549597025,-4.377389447055757
1772649852756787500,1.400787353515625,4.8785126303046935,-11.97451309403181,-3.7653377454087136
1772649852766829600,1.41082958984375,4.189395809155703,-11.998946109020709,-2.9230206595823165
1772649852776870400,1.420870361328125,3.089505645507574,-11.496413935756683,-1.865970105229318
1772649852786911500,1.430911376953125,2.171754402381927,-10.670311487150192,-1.0154106031712145
1772649852796952600,1.44095263671875,1.8354039943128824,-9.98619408172369,-0.6815157715607434
1772649852806994700,1.45099462890625,1.8437308008924125,-9.793896901410818,-0.8522961165923625
1772649852817035800,1.461035888671875,1.8748463623851537,-9.996668713986873,-1.0337045308832078
1772649852827076600,1.47107666015625,2.023714443077147,-10.226016398799418,-1.0845277593433855
1772649852837117700,1.48111767578125,2.307913662017882,-10.322745419192314,-1.0780942922297865
1772649852847158800,1.49115869140625,2.434593291777372,-10.25290908190012,-1.0517514980968088
1772649852857200600,1.50120068359375,2.6361142275094984,-10.087135166853665,-1.0778257044214754
1772649852867241700,1.51124169921875,3.042913405680656,-9.909371538805962,-1.2440619032174347
1772649852877282600,1.521282470703125,3.219348415473103,-9.611972062030434,-1.5056561993792652
1772649852887323600,1.53132373046875,3.0969384258568287,-9.203593505713343,-1.5564342004582286
1772649852897365500,1.541365478515625,2.5546184320837257,-8.763502298793195,-1.456327228064835
1772649852907406600,1.551406494140625,1.6361574332535267,-8.239066921278834,-1.4700626156896353
1772649852917447700,1.56144775390625,1.2098328858792782,-7.493994988673925,-1.7742349476009607
1772649852927488500,1.571488525390625,1.4700669996038078,-6.511616521206498,-2.1116648214697835
1772649852937529600,1.581529541015625,1.6217385934092103,-5.1794280062466855,-2.3292643469519914
1772649852947571500,1.591571533203125,1.5298375776946544,-3.7061756546050306,-2.3544167622566223
1772649852957612500,1.601612548828125,1.0337903825357555,-2.567424722164869,-2.1160732855618
1772649852967653600,1.611653564453125,0.9576419394873082,-1.1581471223056317,-1.9481728798806666
1772649852977694500,1.621694580078125,1.0767689619101584,2.442322424724698,-1.9866832277998328
1772649852987736600,1.631736572265625,1.139007537549734,7.437537188392877,-3.748206285604834
1772649852997777700,1.641777587890625,1.057371603000909,9.025737523207068,-3.620580607166886
1772649853007818800,1.65181884765625,-4.286811058247089,9.892916078567504,-0.22006905740089713
1772649853017859600,1.661859619140625,-6.826978355652093,14.77008255496025,3.5705510863676664
1772649853027900700,1.671900634765625,-8.224395421847701,17.08714369229078,7.719229977470636
1772649853037942500,1.681942626953125,-4.915538584885001,12.854677972215413,8.66837954455316
1772649853047983600,1.691983642578125,-1.386760647624731,9.034901657393574,4.954505152139068
1772649853058024700,1.702024658203125,-1.8008311319731174,8.303964633125066,4.852377195312083
1772649853068065500,1.7120654296875,-2.618470434269309,7.642312157484889,6.887518456810713
1772649853078106600,1.722106689453125,-3.0040123048782346,6.913299963799118,7.54342683584094
1772649853088148500,1.7321484375,-3.080463676396012,7.450532279044389,7.306425421404838
1772649853098189600,1.742189453125,-3.7527211326807737,8.932451336744426,7.0597981004893775
1772649853108230700,1.752230712890625,-4.874872227975726,10.393928494918345,6.002926994356513
1772649853118271500,1.762271484375,-5.79839752445817,12.298843247830867,4.237217883038521
1772649853128313600,1.772313720703125,-5.903571717113256,13.958341809183358,2.551156308931112
1772649853138354400,1.7823544921875,-5.3691340010225765,14.574437233263254,0.9770194977175444
1772649853148395500,1.7923955078125,-4.913114572608471,13.405090671551227,-0.4010502592556178
1772649853158436600,1.8024365234375,-4.330305332058668,11.003697054064274,-1.1526350808858872
1772649853168477400,1.8124775390625,-3.309242036888003,8.709180926018952,-0.9779521754577756
1772649853178519600,1.82251953125,-2.498888069294393,7.115494268748164,-0.164039857795462
1772649853188560400,1.832560302734375,-1.5921351900450884,5.918274780726432,0.5663294495876878
1772649853198601500,1.8426015625,-0.22033158079460263,4.677042547976971,0.665337301632762
1772649853208642600,1.852642578125,1.0129108222447336,3.437762033817172,0.42361302339322865
1772649853218683400,1.862683349609375,1.5983844596982002,2.23297181828022,0.3758533472221344
1772649853228725800,1.872725830078125,1.8866976898290215,0.9685469259917735,0.5586055042721331
1772649853238766600,1.8827666015625,2.140598801139742,-0.3286725669175386,0.3305298121567815
1772649853248807700,1.8928076171875,2.388702624348551,-1.7118483417928219,-0.31977628988698126
1772649853258848800,1.902848876953125,2.736743177950382,-3.230546685835719,-1.197814458240196
1772649853268890600,1.912890625,3.3411984331190583,-4.93480617993474,-2.150222077270597
1772649853278931700,1.922931640625,3.834830676090717,-6.502777965712547,-2.9661709422618148
1772649853288972500,1.93297265625,4.545378992325067,-7.894955962210894,-3.4442040495634076
1772649853299013600,1.943013671875,4.85940344068706,-9.474725737810134,-4.071441629904508
1772649853309054700,1.9530546875,4.58164857558012,-11.014959621834754,-4.851919806933402
1772649853319096600,1.9630966796875,4.534189489790797,-12.130049692702293,-5.341576132011413
1772649853329137700,1.9731376953125,4.3654292524099345,-12.80645374727249,-5.380618687111139
1772649853339178500,1.983178466796875,3.653236676099896,-13.341742527234553,-4.883729488170147
1772649853349219600,1.993219482421875,2.570218736797571,-13.274492114782333,-3.9932665033340453
1772649853359261400,2.003261474609375,1.6538785295136271,-12.428233013331889,-3.117985597799718
1772649853369302500,2.013302490234375,1.1930514085568487,-11.154690748608111,-2.236992890489846
1772649853379343600,2.023343505859375,0.8867436720520258,-10.023937829184531,-1.2554948591187596
1772649853389384400,2.033384521484375,0.9598675065822899,-9.427709719613194,-0.6437491546809673
1772649853399425500,2.043425537109375,1.0740244855076073,-9.504358659529686,-0.4752295941881835
1772649853409467600,2.053467529296875,1.1092864991553126,-9.777124630308151,-0.6054609981451183
1772649853419508700,2.0635087890625,1.0640860059477388,-9.914206703877449,-0.8225259783592075
1772649853429549600,2.073549560546875,0.9934330915756523,-9.897999080920219,-1.0217727586142717
1772649853439590700,2.083590576171875,0.9626409168183803,-9.654440499925613,-1.2613956075951456
1772649853449632800,2.0936328125,0.6844305630289018,-9.273274360182882,-1.4468243634432554
1772649853459673600,2.103673583984375,0.17273732431828975,-8.71084856697023,-1.3649274398706852
1772649853469714400,2.11371435546875,0.025278818163275717,-7.935976539385318,-1.1396128830317407
1772649853479755500,2.123755615234375,0.6455313619226217,-6.9505649878323075,-1.1254092933733015
1772649853489796400,2.13379638671875,1.5794224234662948,-5.684933057841659,-1.5001649084866047
1772649853499838500,2.14383837890625,1.4873369910955427,-3.9962066484391685,-1.753940932112932
1772649853509879300,2.15387939453125,0.4972083478927612,-1.5018366410911081,-1.5965518374435603
1772649853519920400,2.16392041015625,0.5981361351497471,2.1024235303938386,-1.3978762081399558
1772649853529961500,2.17396142578125,2.1697283033818007,6.697021019396185,-1.9876558722242712
1772649853540002300,2.184002197265625,2.500370709067583,12.03213993809223,-3.1722920652657747
1772649853550044400,2.19404443359375,-3.3547494040876624,16.681670209765432,0.7794342209339141
1772649853560085200,2.204085205078125,-7.013483508560061,16.163199293613435,6.141063545414805
1772649853570126300,2.214126220703125,-1.7662648455046117,10.551242040133475,4.360520437580347
1772649853580167200,2.224167236328125,1.2971074108369647,8.050226603421569,2.1338731461465357
1772649853590208300,2.234208251953125,-2.071374312135577,8.804867743882536,1.864489511282742
1772649853600250400,2.24425048828125,-6.509938943383097,8.265339426654577,2.988231967422366
1772649853610291200,2.254291259765625,-7.707618450132012,6.25515403497517,2.8390041135072708
1772649853620332300,2.264332275390625,-5.2306794700562955,5.9537494142115115,2.1707434717737137
1772649853630373000,2.274373046875,-3.9136715730935334,7.677673978245258,2.6413214407637713
1772649853640415200,2.284415283203125,-3.758197518265247,10.203805736035108,4.538208370043337
1772649853650456000,2.2944560546875,-4.143971444064379,12.334132003355025,6.389074429643154
1772649853660497200,2.3044970703125,-3.627121407112479,13.54704999576807,7.284102530437708
1772649853670538200,2.314538330078125,-3.0293431454896926,14.122509458076953,6.590263356941938
1772649853680579000,2.3245791015625,-3.809357212138176,14.134596201711892,5.212254755571484
1772649853690621400,2.334621337890625,-4.13309582978487,13.550617917382716,3.559999881736934
1772649853700662300,2.344662353515625,-4.064150303852558,12.373489031231403,2.2113750496305524
1772649853710703400,2.354703369140625,-3.7820804981559513,10.510250689053535,1.632164418094605
1772649853720744400,2.364744384765625,-2.7491899870693683,8.271631804797053,1.8889448842339216
1772649853730785300,2.374785400390625,-1.8746669141650198,6.2457917478680605,2.378735357085615
1772649853740827400,2.384827392578125,-1.6879035487122833,4.8102235224545,2.6714804321840404
1772649853750868200,2.3948681640625,-1.0848116908513008,3.758231420534849,2.504313309213519
1772649853760909300,2.404909423828125,-0.05664017111063003,2.783407898491621,1.9374473415963351
1772649853770950400,2.414950439453125,1.2197243114270269,1.4695657720834017,1.1266741256773471
1772649853780992300,2.4249921875,2.132873759845644,-0.05080898073911667,0.12012743163704871
1772649853791033300,2.435033447265625,2.650162042084336,-1.6662310844779014,-0.8774445133090019
1772649853801074200,2.44507421875,2.9784096615880724,-3.476486609008908,-1.7979850948922336
1772649853811115300,2.455115234375,2.999828297191858,-5.460044690525532,-2.6490494046673176
1772649853821156400,2.46515625,3.049785045015812,-7.793730799442529,-3.5336581105172633
1772649853831198200,2.4751982421875,3.119641840574145,-10.143493598413468,-4.651491342613101
1772649853841239300,2.4852392578125,3.601017244040966,-11.728749696469306,-5.168411522191763
1772649853851280100,2.495280029296875,3.6683448133826255,-12.387802803266048,-5.5559097875654695
1772649853861321200,2.5053212890625,4.047467464599013,-12.648580230087042,-5.585714558720588
1772649853871362300,2.5153623046875,4.303641781538724,-12.842775937497615,-5.360337531104683
1772649853881404400,2.525404296875,3.656732701522112,-12.720486943912505,-4.889447573556006
1772649853891445500,2.535445556640625,2.7474954581111666,-12.242127088874577,-3.381324984063208
1772649853901486300,2.545486328125,1.731029427602887,-11.068181508934497,-2.3582870278187094
1772649853911527400,2.55552734375,1.1580517721723764,-9.509216036432981,-2.0794274163402617
1772649853921568500,2.565568603515625,0.9666898999482393,-8.302612049472332,-1.3099619239740072
1772649853931610400,2.5756103515625,0.8952338524997234,-7.841704849016666,-0.8136660147510468
1772649853941651500,2.5856513671875,1.0549703140128404,-8.06907626532018,-0.8286852316413075
1772649853951692300,2.5956923828125,1.2942559669286011,-8.587604464617371,-1.000016780814901
1772649853961733400,2.6057333984375,1.4761165089011192,-9.123167969867586,-1.1698390214040875
1772649853971775200,2.615775146484375,1.4514480777211487,-9.511154311019181,-1.3210951662763952
1772649853981816300,2.62581640625,1.3758185439802706,-9.63717372330427,-1.472082723340392
1772649853991857400,2.635857421875,1.384731772145629,-9.827019418811798,-1.334232880268991
1772649854001898200,2.645898193359375,1.219101503353566,-9.929885919046402,-1.3165299041874705
1772649854011939300,2.655939208984375,0.7924024235785007,-9.732918408834934,-1.5555248305283487
1772649854021981200,2.665981201171875,0.604307517261058,-9.067698596101998,-1.7722497651331126
1772649854032022300,2.676022216796875,0.9110826520819216,-7.873232206180691,-1.8484600213713942
1772649854042063400,2.6860634765625,1.5916775094054638,-6.443021123886108,-2.035070972741395
1772649854052104200,2.696104248046875,2.246263261529803,-4.654670557171106,-2.219048652998358
1772649854062145300,2.706145263671875,2.6487626966804263,-2.354206334376335,-2.5319720082506536
1772649854072187400,2.7161875,2.484186466985941,0.6463648901373148,-2.599320620380342
1772649854082228500,2.726228515625,1.3092132975637911,4.418248988449573,-2.0135631975494324
1772649854092269300,2.736269287109375,-0.8088198898941278,9.003450872597098,-0.18897329658716916
1772649854102310400,2.746310302734375,-4.3851901839345695,13.956573045945166,4.014724594165385
1772649854112351500,2.7563515625,-4.907364046257734,16.359882726186513,5.042945652136206
1772649854122393300,2.766393310546875,-4.122130783656239,14.685492885172366,4.542813818012178
1772649854132434400,2.776434326171875,-3.5434956139206886,11.164469799822568,4.03580654516071
1772649854142475300,2.786475341796875,-2.8495436277002093,9.482016479340196,3.3794010302633044
1772649854152516400,2.796516357421875,-3.4360020384073255,9.077125180616974,3.744409523670375
1772649854162557400,2.806557373046875,-3.877063551664352,8.962740092024207,4.010951797628403
1772649854172599300,2.816599365234375,-3.5562592339038845,9.344884136888384,3.9713989549189805
1772649854182640400,2.826640380859375,-3.9836142933696506,10.209401948606967,4.432607184147835
1772649854192681200,2.83668115234375,-4.705710424056649,12.180599145722388,5.887963813614845
1772649854202722300,2.846722412109375,-5.306660885974765,14.099063116037845,6.680919194900989
1772649854212763400,2.856763427734375,-5.11649487247169,15.398340710520744,5.855030681306124
1772649854222805200,2.86680517578125,-5.207517790177464,16.069977404558657,4.352052468964457
1772649854232846300,2.876846435546875,-5.532886639374494,15.422801782560347,3.022780718234181
1772649854242887200,2.88688720703125,-4.967590843683481,13.581450278019904,1.7224648667447269
1772649854252928300,2.89692822265625,-4.099771652331948,11.291004760414362,0.6888312822058796
1772649854262970000,2.90697021484375,-3.4466362451463937,9.298048735955357,0.37547472316808994
1772649854273011200,2.91701123046875,-2.994757569798827,7.863391195645928,0.5387848784495145
1772649854283052300,2.92705224609375,-2.583516609787941,6.7441299765735865,0.9664822485469281
1772649854293093000,2.937093017578125,-1.628517732155323,5.71092849984169,1.3006915529340506
1772649854303134200,2.94713427734375,-0.30925182713270183,4.572388579803705,1.3669716590493917
1772649854313176300,2.95717626953125,0.9602806174278259,3.1658260841220613,1.0888366355184464
1772649854323217400,2.967217529296875,2.243006890082359,1.5477970127552747,0.6464903431478888
1772649854333258500,2.977258544921875,3.2723055141568183,-0.4655909743577242,-0.03212269270867109
1772649854343299300,2.98729931640625,3.7671933101475235,-2.7232652722179886,-0.9998542106643319
1772649854353340400,2.99734033203125,3.867968391060829,-5.275023054173588,-2.211977253307402
1772649854363382300,3.00738232421875,4.2200791167110205,-8.135171662518381,-3.758682379172742
1772649854373423400,3.01742333984375,4.788199906694889,-10.58558737732768,-5.581192112860084
1772649854383464400,3.02746435546875,5.1190486486077305,-11.879424242061376,-6.566216126400232
1772649854393505300,3.03750537109375,4.648220358118414,-12.06615911207199,-6.6322507333219045
1772649854403546400,3.04754638671875,4.762468668588996,-12.167326991695164,-6.474091384932398
1772649854413588200,3.057588134765625,5.28078351739645,-12.4499222825706,-6.117047294533252
1772649854423629300,3.06762939453125,5.338625465512275,-12.921758873319625,-5.32832151364088
1772649854433670400,3.07767041015625,4.395996824631094,-12.859142550408839,-3.4350562819898127
1772649854443711200,3.087711181640625,2.268088139846921,-11.759745723235607,-2.0575812029741702
1772649854453752300,3.09775244140625,0.9554062893897295,-10.40902786437273,-1.1379765870667993
1772649854463794200,3.107794189453125,0.38753925497122105,-9.403325804463028,-0.05891542256623506
1772649854473835300,3.117835205078125,0.14419380527064204,-8.848107750672101,0.3935034240726381
1772649854483876400,3.12787646484375,0.6068115359712392,-8.77875189037323,0.1162307164594531
1772649854493917200,3.137917236328125,1.248255847775936,-9.046428429058194,-0.25450353418327865
1772649854503958300,3.147958251953125,1.6168284634053707,-9.435197445020078,-0.5683313639946281
1772649854514000400,3.15800048828125,1.7840116607278584,-9.724666713318229,-0.9240073078457266
1772649854524041500,3.16804150390625,1.9239637367755174,-9.957760598921775,-1.3883245359405874
1772649854534082300,3.178082275390625,2.037009685719013,-10.18248588463068,-1.9475864582948386
1772649854544123400,3.188123291015625,2.074080063962936,-10.285409668010473,-2.549000592201948
1772649854554164500,3.19816455078125,1.9327267428152262,-10.224627574789524,-2.792534623277187
1772649854564206300,3.208206298828125,1.1843652671456337,-10.021136800289154,-2.596651401171088
1772649854574247400,3.218247314453125,0.9109102911897003,-9.308043475747107,-2.8381802299037573
1772649854584288300,3.228288330078125,0.5295938562560826,-8.195342345842718,-2.927532876309752
1772649854594329300,3.238329345703125,-0.9587680209077895,-6.319548473474383,-2.861393347708881
1772649854604370400,3.248370361328125,-2.10253283598721,-3.635626200607419,-2.874503589172661
1772649854614412300,3.258412353515625,-0.6835515882372856,-0.2855447883307934,-3.488710423026979
1772649854624453400,3.268453369140625,7.090948441034555,4.497670900210738,-5.8105924046427
1772649854634494200,3.278494140625,11.529912885254621,10.160388619112968,-6.148975049191713
1772649854644535300,3.288535400390625,-5.350298952171206,17.21853719882965,-0.7600970677793025
1772649854654576400,3.298576416015625,-11.841178974819183,21.61568494706154,11.029013866150379
1772649854664618200,3.3086181640625,-3.888887844970822,12.928768459820747,11.063965937066078
1772649854674659300,3.318659423828125,0.5736433527976275,7.266841014513373,4.308991910395026
1772649854684700200,3.3287001953125,-1.3873333329461515,7.627864529937505,3.5630405646070837
1772649854694741200,3.3387412109375,-6.649373133036494,8.090830416488647,7.225642158162594
1772649854704782300,3.3487822265625,-7.885904056227207,7.083699200558662,6.6323530246526
1772649854714824200,3.35882421875,-5.853530798137188,7.4434887902736655,3.1506901820495723
1772649854724865300,3.368865234375,-3.7613112663716075,9.827881004077195,-0.46429541812185193
1772649854734906000,3.378906005859375,-4.020017147615552,12.777178552949428,-1.105213696758449
1772649854744947200,3.388947265625,-6.281363996508717,13.896146342033147,1.2737512312993406
1772649854754988300,3.39898828125,-6.750950762504339,12.499107461500166,3.0438772822767493
1772649854765030400,3.409030517578125,-4.550093745887279,11.960814239025115,2.8299104142084714
1772649854775071500,3.419071533203125,-3.3058208302676677,12.925057914865016,1.6423058728806674
1772649854785112300,3.4291123046875,-2.94113294711709,14.468053080296515,0.5938113672858104
1772649854795153400,3.4391533203125,-2.5334903038591143,15.101366181159019,0.3379976272867992
1772649854805194500,3.449194580078125,-2.5117858370512725,13.859308603501319,1.2113155256524681
1772649854815236400,3.459236328125,-2.4019343002349136,11.126744757062196,2.4951515131145716
1772649854825277400,3.46927734375,-1.6756225976794956,8.11055569217801,3.386436627988517
1772649854835318300,3.479318359375,-1.2306393809340894,5.692651669394969,3.8292534604802726
1772649854845359400,3.489359375,-0.626799627315253,4.085876397970319,3.678362057267129
1772649854855400400,3.499400390625,0.40696182138696313,2.8434090704679487,2.8695100186690685
1772649854865442300,3.5094423828125,1.4060628755964337,1.4955851794809103,1.7490283178910613
1772649854875483400,3.5194833984375,2.164533657348156,0.056094227665662764,0.6311243586465716
1772649854885524200,3.529524169921875,2.7755034089773893,-1.5857745689719915,-0.42010545366369184
1772649854895565300,3.5395654296875,3.3451369416117664,-3.216695270615816,-1.442855313681811
1772649854905606100,3.549606201171875,3.908770941570401,-4.640034713575243,-2.462541036888957
1772649854915648300,3.559648193359375,4.3680818127453325,-5.901631104439496,-3.5338211921244858
1772649854925689300,3.569689453125,4.595526294285059,-7.017893141695857,-4.424068488383293
1772649854935730200,3.579730224609375,4.58996690659225,-7.946170601141453,-5.065483062636852
1772649854945771300,3.589771240234375,4.685160972502827,-8.756492127770185,-5.434961687195301
1772649854955812000,3.59981201171875,4.9051615677773945,-9.526554124724864,-5.424544338077307
1772649854965854500,3.6098544921875,4.876912793892622,-10.472981573367118,-5.301192683696747
1772649854975895300,3.619895263671875,4.9364305662661785,-11.616992618292569,-4.939515672799945
1772649854985936400,3.629936279296875,4.621146473231911,-12.693217828714847,-4.46403137319833
1772649854995977500,3.6399775390625,3.8019618411898612,-13.359570444869995,-3.6459625934436914
1772649855006018300,3.650018310546875,2.7981401881992816,-13.396715641915797,-2.4128613524407148
1772649855016060400,3.660060302734375,2.128285116881132,-12.7439964143157,-1.2090013304259628
1772649855026101200,3.670101318359375,1.8688998750708996,-11.67639056367874,-0.5311070372980088
1772649855036142300,3.680142333984375,1.7370957419045268,-10.610537109667062,-0.15538396539203822
1772649855046183400,3.690183349609375,1.7024474762409925,-9.80150094667375,0.07018785414360464
1772649855056224300,3.700224365234375,1.712024136751145,-9.27057328453064,0.003977525328844786
1772649855066266400,3.710266357421875,1.6170986586488783,-9.026510261145233,-0.31121991233527657
1772649855076307200,3.72030712890625,1.45399586250782,-8.911168894740939,-0.7299189332671463
1772649855086348300,3.730348388671875,1.1929688448399305,-8.79012960895598,-1.051907565441355
1772649855096389400,3.740389404296875,0.7477911284357309,-8.625092776012421,-1.3314439802028237
1772649855106430200,3.75043017578125,0.37132162207663055,-8.467367142865061,-1.573936539401114
1772649855116472300,3.760472412109375,0.27651450965702534,-8.361265313971042,-1.6194526744291184
1772649855126513200,3.77051318359375,0.1574604063399136,-8.248480061790346,-1.6290426328122616
1772649855136554200,3.78055419921875,-0.18404300057813525,-7.806884880048036,-1.8984774133414029
1772649855146595300,3.79059521484375,0.19114216505885123,-6.633684565517306,-2.464252809242904
1772649855156636200,3.80063623046875,1.0038431341700256,-4.850014850094914,-2.8828841717660425
1772649855166678300,3.81067822265625,0.8841330511622131,-2.4485037437081334,-2.2936229785978792
1772649855176719000,3.820718994140625,0.231930760108307,1.211660685828328,-0.9661375998277216
1772649855186760200,3.83076025390625,1.1646138341017067,6.508828936314583,-0.24761969295367597
1772649855196801300,3.84080126953125,0.9420698379546404,13.594833491206169,-1.0840182023860514
1772649855206842400,3.85084228515625,-3.618975510057807,22.479828080248833,1.931288818966597
1772649855216884500,3.860884521484375,-7.886030897477268,27.84052743040323,8.600216693431138
1772649855226925300,3.87092529296875,-6.348649480274319,21.921759313201903,8.206815926015377
1772649855236966400,3.88096630859375,-3.1184511694848536,13.73386786788702,4.2374303567454215
1772649855247007500,3.891007568359375,-3.783826465040445,9.09624956780374,3.5042519832909105
1772649855257048300,3.90104833984375,-5.8166983203023666,7.044937800487875,3.8407302555233236
1772649855267089400,3.91108935546875,-6.595014350861311,5.91596591926217,2.7346201944470403
1772649855277131300,3.92113134765625,-6.41026802431941,5.803940545538067,1.9694179124832152
1772649855287172400,3.93117236328125,-5.020038823801279,6.451369265514612,1.9140356324791907
1772649855297213400,3.94121337890625,-4.113519607177376,7.929462627446651,2.471697572290897
1772649855307254300,3.951254150390625,-4.158636513754725,9.636197571748495,3.5576240925163027
1772649855317295400,3.96129541015625,-4.741619357305765,11.09525656286478,4.155695784127712
1772649855327337200,3.971337158203125,-4.624754726856946,12.412699928635359,3.1970822231292724
1772649855337378300,3.98137841796875,-3.484126310107112,13.491698110902309,1.470322143408656
1772649855347419100,3.991419189453125,-2.6860999091669915,13.956652540922164,0.10222228404693305
1772649855357460200,4.001460205078125,-2.576973471754789,13.30782389101982,-0.3917343685735017
1772649855367501300,4.011501220703125,-2.5223750356048344,12.063783615112303,-0.1486850522752851
1772649855377543200,4.021543212890625,-2.0371755438052115,10.424350521188973,0.21747904090769588
1772649855387584300,4.031584228515625,-0.564347116664052,8.045630507802963,0.14261552310325204
1772649855397625000,4.041625,1.3248843294262884,5.038241419968009,-0.3809100460898131
1772649855407666200,4.051666259765625,2.8559850589245555,1.9176351182758806,-0.9025162645928562
1772649855417707300,4.061707275390625,4.067450514441728,-0.9280266995549201,-1.4740002473995089
1772649855427749400,4.071749267578125,4.747608076326549,-3.245879279524088,-2.334557923315465
1772649855437790500,4.08179052734375,5.081624050098657,-5.008517897355556,-2.9970225921213625
1772649855447831300,4.091831298828125,4.669271037192642,-6.291428294405341,-3.2710707116648554
1772649855457872400,4.101872314453125,4.537463981416821,-7.7537664533227675,-3.110749801327288
1772649855467913200,4.111913330078125,4.939371295893192,-8.986663403925299,-3.6011432085081934
1772649855477955000,4.121955078125,5.275047604092955,-9.607361353364587,-4.258765990240872
1772649855487996200,4.13199609375,5.272671522611379,-10.209418315219878,-4.433724497739971
1772649855498037000,4.142037109375,5.108901348602772,-11.161150884532928,-4.423616652962565
1772649855508078000,4.152078125,4.585989235132932,-12.12899287712574,-4.3951445917159315
1772649855518119200,4.162119140625,3.9905373706310985,-12.62978083707094,-3.9543940441042182
1772649855528161300,4.172161376953125,3.189159028914571,-12.477867105072736,-2.9153926489219066
1772649855538202400,4.182202392578125,2.2324989400714634,-11.839846264910697,-1.6425767987765372
1772649855548243200,4.1922431640625,1.5584828035511076,-11.088199045568704,-0.7244611793179064
1772649855558284300,4.2022841796875,1.4324826804883777,-10.505899508106708,-0.13882241443060336
1772649855568325400,4.212325439453125,1.5105034932799637,-10.352566556960344,0.17473142074495554
1772649855578367200,4.2223671875,1.7007552853703498,-10.379256995487212,0.21917159710451958
1772649855588408300,4.232408203125,1.966870566087961,-10.338532186388969,0.08556289873421191
1772649855598449200,4.24244921875,2.0741211266256867,-10.207056846785544,-0.22284246763698756
1772649855608490200,4.252490234375,1.9351276664771138,-10.005020362746714,-0.5661560657821595
1772649855618531300,4.26253125,1.6691268059194087,-9.65297042737305,-0.8905261132001876
1772649855628572200,4.272572265625,1.4426662208504974,-9.154095023050903,-1.2698814041286706
1772649855638614300,4.2826142578125,1.177753886181861,-8.675269888588785,-1.661445896027982
1772649855648655000,4.292655029296875,0.7820984717071056,-8.209618708476423,-1.8360709337890146
1772649855658696200,4.3026962890625,0.2651251006364822,-7.785155278798937,-1.795616758325696
1772649855668737300,4.3127373046875,0.40743177698627114,-7.429830267277359,-1.8703665866225956
1772649855678778000,4.322778076171875,0.7178242985866964,-7.1084887739002705,-1.9680413634330034
1772649855688820200,4.3328203125,0.7982325179714709,-6.444934264031052,-2.3216230384185907
1772649855698861000,4.342861083984375,1.675877449223399,-5.362673865097761,-2.9704326913595196
1772649855708902100,4.352902099609375,2.2422322524480522,-4.079232722172141,-3.2244635665297507
1772649855718943200,4.362943115234375,1.879637834445387,-2.3825883792519567,-2.906731788082421
1772649855728984000,4.372984130859375,1.3892974726259708,0.17068097631037235,-2.7743162450194356
1772649855739026200,4.383026123046875,2.916735003441572,4.5994618801683185,-4.0315518103256816
1772649855749067000,4.39306689453125,3.1742928836941715,11.749074691617489,-4.691875375449658
1772649855759108000,4.403108154296875,-7.7869544371753925,21.830199804401396,2.7407085744500157
1772649855769149200,4.413149169921875,-9.91131448956728,26.437939099049565,14.280067333441972
1772649855779190000,4.42318994140625,-1.5856962430387735,19.870412474572657,12.060877372276781
1772649855789231000,4.433231201171875,-0.495160037060827,13.891380150544643,6.168119310122728
1772649855799273200,4.443273193359375,-5.479525636065006,11.107373701637982,6.244713889503479
1772649855809314300,4.453314208984375,-7.551903572285175,9.17668504052162,6.750204328051209
1772649855819355100,4.463355224609375,-6.736448189899325,7.963513950130343,4.015094596521556
1772649855829396200,4.473396240234375,-5.91434445554018,8.602332078149914,1.3723580282628536
1772649855839437300,4.483437255859375,-5.707753961458802,10.341361272335051,0.6593523089390247
1772649855849479200,4.493479248046875,-6.542363541647791,12.513749734836816,1.837784459708631
1772649855859520300,4.503520263671875,-5.402703677669167,14.17372760413885,2.529360364447534
1772649855869561000,4.51356103515625,-3.9018490333527325,14.927293224322796,2.7426614620834586
1772649855879602200,4.523602294921875,-3.614021687042713,14.997420653516054,2.5024577444747087
1772649855889643300,4.533643310546875,-3.2277345510244366,14.697317763000726,1.9323365744538603
1772649855899685000,4.54368505859375,-2.3861836272649466,13.632577238667011,1.1564089003361762
1772649855909726200,4.553726318359375,-1.515359408878535,11.718315980738401,0.5559206856349482
1772649855919767000,4.56376708984375,-0.7280391108699142,8.996039135035872,0.2810703828630969
1772649855929808100,4.57380810546875,-0.17943009995520115,6.059443246826529,0.33709384684748944
1772649855939849200,4.58384912109375,0.10630772672966123,3.59250485176146,0.3645344461545348
1772649855949890000,4.59389013671875,0.5447095192581415,1.6007447590887545,0.050528994753956794
1772649855959932200,4.60393212890625,1.3444190509796141,-0.22279928608238694,-0.5722288098245859
1772649855969973000,4.613972900390625,2.2303701113492247,-1.9916051943719386,-1.1503765613693744
1772649855980014000,4.62401416015625,3.0925112570643423,-3.8099569315969943,-1.747752891127765
1772649855990055200,4.63405517578125,3.81044968355,-5.515564333173632,-2.4860022842362524
1772649856000096000,4.644095947265625,4.47582848623693,-7.232695583805442,-3.336630394551158
1772649856010138400,4.654138427734375,4.872478318576515,-8.96426277154684,-4.230412586937844
1772649856020179200,4.66417919921875,5.023735924753546,-10.148525162839888,-4.879674659821391
1772649856030220300,4.67422021484375,4.681580191406607,-10.760726502090693,-4.884025256246328
1772649856040261400,4.684261474609375,4.36849682328701,-11.223273870968818,-4.674483511143922
1772649856050302200,4.69430224609375,4.45712203220129,-11.78879646115303,-4.441351339356601
1772649856060344300,4.70434423828125,4.690446219429374,-12.360070746731758,-3.96799557621628
1772649856070385200,4.71438525390625,3.9747751533538103,-12.696715607702732,-3.366592986616492
1772649856080426200,4.72442626953125,2.726249256464839,-12.302242827141285,-2.5944202811181545
1772649856090467300,4.73446728515625,1.7267840451180934,-11.256308710086344,-1.7989564241424203
1772649856100508200,4.744508056640625,1.0993879132144153,-10.239017334669828,-1.3842606475025414
1772649856110550300,4.75455029296875,0.9621762949813156,-9.61945978743732,-1.243939592012018
1772649856120591000,4.764591064453125,1.0741221006631851,-9.306924700850248,-1.3378035783626139
1772649856130632200,4.774632080078125,1.1450796240050345,-9.169100284481049,-1.4751105467289685
1772649856140673300,4.78467333984375,1.18667770880647,-9.207313403019308,-1.6151413871012628
1772649856150714000,4.794714111328125,1.1933903581876306,-9.346237305063008,-1.7699485024534165
1772649856160755200,4.804755126953125,1.1545143187612295,-9.51106604821384,-1.8807637697353958
1772649856170797000,4.814797119140625,1.2502848693855106,-9.641583940961956,-1.9206883683666587
1772649856180838100,4.824838134765625,1.3802730391710996,-9.672651863920688,-1.8827267403714358
1772649856190879200,4.834879150390625,1.3753184855036438,-9.584016718134283,-1.8892986661076545
1772649856200920000,4.844920166015625,1.0271082744233309,-9.314228886383772,-1.8749730575047432
1772649856210961200,4.854961181640625,1.1767752504080533,-8.753826707953214,-2.124739699359238
1772649856221003300,4.865003173828125,1.0944459998328238,-7.927657039329409,-2.3618542187809943
1772649856231044400,4.87504443359375,0.18583653293140232,-6.665994597491622,-2.4716172005310653
1772649856241085200,4.885085205078125,-0.3262861101724207,-4.901588969987631,-2.6893691400960087
1772649856251126300,4.895126220703125,-0.4158527646552771,-2.9363685091942546,-2.3283130375765264
1772649856261167400,4.90516748046875,-1.3294628893882035,-0.4319669371753931,-2.0890162056796253
1772649856271208200,4.915208251953125,4.06506098895669,4.214032237762212,-4.901622872257232
1772649856281250300,4.925250244140625,5.689046922901272,10.672766479086876,-4.136260723556578
1772649856291291100,4.935291015625,-6.603850568267703,19.106510169291496,2.92925253970921
1772649856301332200,4.945332275390625,-6.591396160364151,24.322325247693062,12.588283290034532
1772649856311373300,4.955373291015625,-0.7358084296971559,17.632355315852163,12.244128491824865
1772649856321414100,4.9654140625,-0.13800970980823038,11.106708515727519,5.694567732149363
1772649856331456300,4.975456298828125,-5.243288191738724,10.944290925371646,5.267580336952209
1772649856341497000,4.9854970703125,-9.440684936520457,11.46066457698345,7.478207052433491
1772649856351538200,4.9955380859375,-7.902730103343725,10.944368082261084,4.536326794080436
1772649856361579300,5.005579345703125,-5.402655162352323,10.903601187586784,1.6448500044055283
1772649856371620000,5.0156201171875,-6.985944344249368,11.681535525351762,3.626059915360808
1772649856381661200,5.0256611328125,-7.319958272194862,11.378639789247512,5.74211040456891
1772649856391703000,5.035703125,-5.152821738871932,10.151747047495842,4.629556281919777
1772649856401744100,5.045744140625,-4.16929527041316,10.521363619220256,3.491284072907269
1772649856411785200,5.05578515625,-4.626383204841614,12.564125000333785,2.8829014151617884
1772649856421826000,5.065825927734375,-4.486603562751412,14.623601369404792,2.5206173782825467
1772649856431867100,5.0758671875,-3.4816613812983035,14.851123007833957,1.9866908265843986
1772649856441909000,5.085908935546875,-2.7790497032821175,12.949979590153694,1.7801155300721525
1772649856451950000,5.0959501953125,-1.7726004782669245,10.283888742053508,1.9967333510406313
1772649856461991200,5.1059912109375,-0.21913901000916958,7.691441806834936,2.0139853684842586
1772649856472032000,5.116031982421875,0.9990684671141207,5.207949751853943,1.6939193018704652
1772649856482073000,5.126072998046875,2.242459923724085,2.813179936420917,1.0573330245561896
1772649856492115000,5.136114990234375,3.2203204753756522,0.5910661967635155,0.2668345349028706
1772649856502156000,5.146156005859375,3.4292654236286877,-1.414894270697236,-0.5698812237851322
1772649856512197000,5.156197021484375,3.3691508544057607,-3.326982276239991,-1.5034493369847535
1772649856522238000,5.166238037109375,3.9149826556921004,-5.148374111813307,-2.639610252931714
1772649856532279000,5.176279052734375,5.208554732009768,-6.74492492634356,-4.117401417046785
1772649856542320000,5.186320068359375,6.36433337161839,-8.405669103842973,-5.59490558091402
1772649856552362000,5.196362060546875,5.7471717796117066,-9.593464345437289,-6.191855575019121
1772649856562403000,5.206403076171875,4.407579710397124,-10.115693737339972,-6.3842281586557625
1772649856572444000,5.21644384765625,3.682490243113041,-10.70207674472332,-6.514805672636628
1772649856582485000,5.226485107421875,3.7138159402251243,-11.639981864213944,-6.4659185998708
1772649856592526000,5.236526123046875,3.8391713356435297,-12.489403229087591,-6.172477505332231
1772649856602568200,5.246568115234375,3.19846637096405,-12.957411201459168,-5.512742846012115
1772649856612609000,5.256609130859375,2.3862660448513924,-12.764431299579142,-4.217827538391948
1772649856622650000,5.266650146484375,1.7512112148880958,-11.742191361844538,-2.562538995949924
1772649856632691200,5.276691162109375,1.6901707629919052,-10.53851582955122,-1.5770922269530594
1772649856642732000,5.28673193359375,1.9940859052717685,-9.56511328022182,-0.8806267235416918
1772649856652774100,5.296774169921875,2.182880045899749,-9.038705725851655,-0.32282610591165717
1772649856662815000,5.30681494140625,2.3139923974096774,-8.981790244930982,-0.1126230473563075
1772649856672856000,5.31685595703125,2.2743637129850685,-9.13908976162076,-0.1833561142925173
1772649856691683000,5.33568310546875,1.6807054539017379,-9.302882147461176,-0.2607264272861183
1772649856701724200,5.34572412109375,1.8184148655891417,-9.277640738698839,-0.600732946709916
1772649856711765000,5.355764892578125,2.2379501912146806,-9.088641430887579,-1.069747319645062
1772649856721806000,5.36580615234375,2.658411399513483,-8.852785094833374,-1.5887006855517625
1772649856731847200,5.37584716796875,2.4589982497155667,-8.79225434602499,-1.811137275801599
1772649856741889000,5.385888916015625,1.9784220338024199,-8.525141286441682,-1.9537705537572503
1772649856751930000,5.39593017578125,2.146781873688847,-7.905507166841626,-2.1923573376886547
1772649856761971000,5.405970947265625,1.8294652519136667,-7.1354217890113585,-2.189330537213385
1772649856772012000,5.416011962890625,0.42538171356618404,-6.030687107941508,-2.0127838837400076
1772649856782053000,5.42605322265625,-1.5223631501607595,-4.274413348966837,-1.3393088683590293
1772649856792095000,5.436094970703125,-2.253999262609333,-1.9142951601982117,-0.6206560099937022
1772649856802136000,5.446135986328125,-2.4253251126945017,0.9783253926843404,-0.5282738596986979
1772649856812177000,5.456177001953125,3.734091251012683,5.357988337630033,-2.223842170885205
1772649856822218000,5.466218017578125,8.660284500902891,11.786576447016,-6.826802999085188
1772649856832258800,5.4762587890625,-11.45529515890479,20.384857203948496,-0.7457215556200594
1772649856842300000,5.4862998046875,-8.330193299359083,26.46309458309412,7.423847101214528
1772649856852342000,5.496342041015625,2.050859347373247,19.66523827702999,5.040505857768655
1772649856862383000,5.506383056640625,1.5672598381161689,11.15141274985075,3.253423119032383
1772649856872424200,5.516424072265625,-2.9382027388840912,6.441962554743886,3.9843700801730155
1772649856882465000,5.526465087890625,-5.315832618945837,3.7686470160871743,5.1091158681362865
1772649856892506000,5.536506103515625,-6.832372908172011,3.6424972554206847,4.833084465821087
1772649856902548000,5.5465478515625,-6.509445022386312,6.638340866890549,2.8863474639624354
1772649856912589000,5.556589111328125,-4.842968438714743,10.882501116412877,2.130234789644182
1772649856922630100,5.566630126953125,-5.75113659158945,13.86945122733116,3.7639538898348808
1772649856932671000,5.5766708984375,-6.962040321570634,14.772027843809127,4.5674040693894025
1772649856942712000,5.586712158203125,-7.160544539830088,13.874831166803837,4.222334786683321
1772649856952754000,5.59675390625,-6.075985800826549,12.73002634115219,3.1848227532759306
1772649856962795000,5.606794921875,-4.238807198056579,12.175908942079543,1.5533843113683163
1772649856972836000,5.616836181640625,-2.7377181604623795,11.434745707350968,-0.0733234487555921
1772649856982877000,5.626876953125,-2.0159139984592795,10.757622690856456,-0.23993688336610794
1772649856992918000,5.63691796875,-1.925889882532507,9.903319399160146,0.7894114250689744
1772649857002959000,5.646958984375,-2.0457864280231295,8.716660468119382,2.0883345070257784
1772649857013001000,5.6570009765625,-1.612969888281077,7.250683660438656,2.846112776468694
1772649857023042000,5.6670419921875,-0.9933281698964536,5.68815728058517,2.9940590661406516
1772649857033083000,5.677082763671875,-0.28191154639497396,4.048940459761023,2.6548943313032387
1772649857043124000,5.6871240234375,0.686498601474613,2.1362124027490617,1.8749574215441942
1772649857053165000,5.6971650390625,1.8954254784248767,0.045594460961222646,0.9306432387288659
1772649857063207200,5.707207275390625,2.6564111656069755,-2.5416098974287507,-0.16065350329279898
1772649857073248300,5.717248291015625,2.8878134448617696,-4.73249087895453,-0.9367549265421926
1772649857083289000,5.7272890625,3.2526509656161067,-6.894228768104314,-1.615755573476851
1772649857093330200,5.737330078125,3.9114088888585563,-8.681388079208135,-2.255656674427539
1772649857103371300,5.747371337890625,4.440901549762487,-10.351534291303157,-3.163260325287282
1772649857113413000,5.7574130859375,4.58409070803523,-11.4794838437438,-4.102217291918397
1772649857123454200,5.7674541015625,4.503588599821925,-11.877466093730925,-4.83226701195836
1772649857133495000,5.7774951171875,4.297768505591153,-11.72252921451926,-4.909389999127388
1772649857143536000,5.7875361328125,4.16810109219253,-11.641323926472664,-4.610224973984063
1772649857153577200,5.7975771484375,3.9202205563455816,-11.971422142279147,-4.227535570196807
1772649857163619000,5.807619140625,3.329192353504896,-12.139376323974131,-3.8932939709752796
1772649857173660200,5.81766015625,2.5939333743840454,-11.645929958963393,-3.156604374529421
1772649857183701000,5.827700927734375,1.9380384393572807,-10.741772795295715,-2.1992817301243544
1772649857193742000,5.8377421875,1.476864696919918,-9.773557877737284,-1.5491582181058823
1772649857203783000,5.847782958984375,1.313825759795308,-9.167308140367268,-1.2793136877320705
1772649857213825000,5.857824951171875,1.4369167174130677,-9.043032356879115,-1.284169311069697
1772649857223866000,5.8678662109375,1.6753602934814988,-9.263238703858852,-1.199833908303827
1772649857233907000,5.877906982421875,1.8091990012153982,-9.611640053597093,-1.142070870643109
1772649857243948000,5.887947998046875,1.9634986054368315,-9.927973363423346,-1.2914689665585755
1772649857253988900,5.89798876953125,2.135560806972533,-10.123463202297687,-1.5992305551335215
1772649857264030000,5.908030029296875,2.2298354199506343,-10.1124332742393,-1.8501570345476268
1772649857274072000,5.918072021484375,2.246923771265149,-10.03451299921274,-1.8788764946840701
1772649857284113200,5.928113037109375,2.2142384762376546,-9.900256504458188,-1.587412983828783
1772649857294154200,5.938154296875,1.73701084010005,-9.61608358900249,-1.233229835818708
1772649857304195000,5.948195068359375,1.4376381635554134,-9.153460232278704,-1.2460729507789015
1772649857314236200,5.958236083984375,1.4085827494628727,-8.092907807284593,-1.461231951241195
1772649857324278000,5.968278076171875,1.3442752585947513,-6.65283058001399,-1.8877555283188818
1772649857334319000,5.978319091796875,-0.08048968712314963,-4.589547804397344,-1.8488854071766136
1772649857344360200,5.988360107421875,1.9438184840634465,-0.6478232722520828,-4.137150073611736
1772649857354401000,5.998401123046875,11.864651035821437,6.0904071248888965,-8.103592867428064
1772649857364442000,6.008442138671875,-0.7907330290615558,12.74470251675844,-3.2566388662084935
1772649857374484000,6.01848388671875,-12.092585346704722,18.33610213537812,7.7095801055938
1772649857384525000,6.028525146484375,-5.142376917225122,19.613276619124413,6.97502898248136
1772649857394566100,6.038566162109375,0.8617910171031952,16.068903053325414,4.569128993485868
1772649857404607000,6.04860693359375,-0.059621378878504036,9.74782897771895,5.30924271916151
1772649857414648000,6.05864794921875,-2.5273043087005616,4.0661552139341826,3.5943788289397953
1772649857424690000,6.06868994140625,-4.949898535126447,2.129785000050068,2.2352156516842543
1772649857434731000,6.07873095703125,-6.599421061387658,3.210696906983852,1.157792098322883
1772649857444772000,6.088772216796875,-5.333490440711379,5.870490700766444,0.7489701090872287
1772649857454813000,6.09881298828125,-4.1934798635989425,8.57160726954043,1.9540368034780025
1772649857464854000,6.10885400390625,-4.972574477314949,10.913307758086919,4.2014840140953655
1772649857474896400,6.118896484375,-5.291251135396957,13.107742048180102,4.932482120901346
1772649857484937500,6.1289375,-4.926605922344327,13.94726044319868,4.229788609820604
1772649857494978300,6.138978271484375,-5.096560337945818,13.431223476195335,3.3468691722318527
1772649857505019400,6.149019287109375,-5.280156909930706,12.799149561738966,2.5281284845650194
1772649857515060500,6.159060546875,-4.318147276753187,12.355600323319434,1.5305480640515685
1772649857525102300,6.169102294921875,-3.0431875464469194,11.670959186279774,1.0282854284439236
1772649857535143400,6.179143310546875,-2.728027956575155,10.868073947131633,1.019992158807814
1772649857545184300,6.189184326171875,-3.1126755086928606,9.980092842239142,1.513765563815832
1772649857555225300,6.199225341796875,-3.364963339588046,9.098215314918756,2.246373443906009
1772649857565266400,6.209266357421875,-3.410226961159706,8.303314060261846,2.982111438715458
1772649857575308300,6.219308349609375,-3.038441228702664,7.715150599202513,3.6190304551154373
1772649857585349400,6.229349365234375,-2.069822406518459,7.162983165153861,3.874294671472907
1772649857595390200,6.23939013671875,-1.1897966445446013,6.356427713060379,3.6065281164169307
1772649857605431300,6.249431396484375,-0.16384616185426712,5.185157489809393,2.949829463791847
1772649857615472400,6.259472412109375,1.1781406935423613,3.555915535032749,1.51535487883389
1772649857625514500,6.269514404296875,1.9841285748809574,1.7380395986258983,0.23286533754467964
1772649857635555600,6.2795556640625,2.42149137975052,-0.0029611878931522367,-0.639781858485192
1772649857645596400,6.289596435546875,2.93076352879405,-1.932737410339713,-1.350920980219543
1772649857655637500,6.299637451171875,3.134256641381979,-3.789229200866818,-1.9961463449329138
1772649857665678600,6.3096787109375,3.0725866594105957,-5.473557667571306,-2.8689906709700823
1772649857675720400,6.319720458984375,3.534380579572916,-7.394681797006726,-4.048860964784026
1772649857685761500,6.329761474609375,4.042719393289089,-9.055062401890755,-5.053706115603447
1772649857695802400,6.33980224609375,4.4936593264818185,-10.596074869072437,-5.6382315124213696
1772649857705843500,6.349843505859375,4.8657618698030705,-11.690329072660207,-5.580559660175442
1772649857715884500,6.359884521484375,5.124209392371774,-12.449102782881258,-5.2155537971168755
1772649857725926400,6.369926513671875,5.291968343755602,-13.112905714553595,-4.465996828052401
1772649857735967500,6.379967529296875,3.870581203907728,-13.374756323564052,-3.945934258794784
1772649857746008300,6.39000830078125,2.097032338874787,-12.999898928576707,-3.7103091011479497
1772649857756049400,6.40004931640625,1.813185148242116,-12.08255378203392,-3.0829198373764752
1772649857766090500,6.410090576171875,1.5179352507159114,-10.807045185673235,-2.5399057238593694
1772649857776132400,6.42013232421875,1.0766337912231683,-9.8522684263587,-1.7928353109136224
1772649857786173400,6.43017333984375,0.9122245886586606,-9.502144490611553,-1.465924200710654
1772649857796214300,6.44021435546875,1.1585112794429062,-9.527305819875002,-1.5036492434710262
1772649857806255400,6.45025537109375,1.481499370983243,-9.711897832638025,-1.5358685284219682
1772649857816296400,6.46029638671875,1.8069488842010497,-9.873813903212547,-1.6562909974828361
1772649857826337300,6.470337158203125,2.074095699923485,-9.956424381881952,-1.7744269630417226
1772649857836379600,6.480379638671875,2.1726802850551903,-10.029805259913205,-1.820686025391519
1772649857846420500,6.49042041015625,2.1572639586061237,-10.059979448902606,-1.7897668632537125
1772649857856461600,6.500461669921875,1.935221628370881,-9.967311686599254,-1.655568382296711
1772649857866502400,6.51050244140625,1.2931471289038656,-9.694762573441862,-1.5031221508570014
1772649857876544500,6.52054443359375,0.2275643815923482,-9.157840639320016,-1.4147732746660708
1772649857886585600,6.530585693359375,-0.7887794838409871,-8.08826728800237,-1.257483987109363
1772649857896626400,6.54062646484375,-0.6484784482251852,-6.628384121021628,-1.217996026329696
1772649857906667500,6.55066748046875,0.9171076845251023,-5.131989378723502,-1.2751482386156916
1772649857916708400,6.560708251953125,0.9617764089435339,-3.3713270294010638,-0.780964280045405
1772649857926750500,6.57075048828125,0.08505772569105029,-0.7916448832094669,0.12035985215343534
1772649857936791300,6.580791259765625,1.228542847046256,2.7587685472756625,-0.3170304252449423
1772649857946832400,6.590832275390625,6.061355217927694,7.271705405679345,-2.920933624175191
1772649857956873500,6.60087353515625,3.867708278819918,12.448214309608936,-2.4155562906131145
1772649857966914300,6.610914306640625,-7.116316106525063,18.450370319592952,9.370855028969048
1772649857976956400,6.620956298828125,-6.272243701463937,19.93275056506395,13.318881876128911
1772649857986997200,6.630997314453125,-1.6637749234974384,14.749598569858072,8.347331481164693
1772649857997038300,6.641038330078125,-0.25993469238653777,9.377617947232723,3.8075101229667663
1772649858007079400,6.651079345703125,-3.149288206297159,7.106212645661831,0.9648381346017122
1772649858017120300,6.661120361328125,-4.924684598892927,6.492658138236403,-0.08818133760429918
1772649858027162400,6.671162353515625,-6.719621558260918,6.318977395588159,-1.0835732350975273
1772649858037203200,6.681203125,-7.278347327911853,7.018443761315941,-1.7547306211858986
1772649858047244500,6.69124462890625,-6.273243818417191,8.242696217691897,-0.8532027100432663
1772649858057285600,6.70128564453125,-6.319043446561694,9.667081370311974,1.510334128062427
1772649858067326500,6.711326416015625,-5.914816749227047,11.845128004705906,4.520777342770994
1772649858077368600,6.72136865234375,-5.148952788484096,13.661658371722698,6.4873308057338
1772649858087409400,6.731409423828125,-3.517071717375517,14.672751477020977,6.598731325557828
1772649858097450500,6.741450439453125,-2.049582167044282,14.219865085935592,5.425044688814878
1772649858107491600,6.75149169921875,-1.074305056014657,13.212438101929425,3.777546946379542
1772649858117532400,6.761532470703125,-0.7619402114279568,12.108947283440827,2.466448273460567
1772649858127574500,6.771574462890625,-1.554624228426814,10.96892267780304,2.096786985811591
1772649858137615400,6.781615478515625,-2.2994529999256135,9.66988649086058,2.056637638513744
1772649858147656400,6.791656494140625,-2.396114069648832,8.284483687585592,1.9191025604799388
1772649858157697500,6.801697509765625,-2.346948179941624,6.806559837001561,1.6850927290752529
1772649858167738400,6.81173828125,-2.224782812736183,5.375770078036188,1.2478494589321314
1772649858177780500,6.821780517578125,-1.5546365033864975,4.069374175980687,0.4082327911708504
1772649858187821300,6.8318212890625,-0.5667419028460979,2.7707249425292013,-0.5611321001403033
1772649858197862400,6.8418623046875,0.4720126779682934,1.3531658365368842,-1.3177299276269971
1772649858207903500,6.851903564453125,1.471047535073757,-0.36550212214291095,-1.9760560353234409
1772649858217944300,6.8619443359375,2.5663281590998173,-2.4306588749378917,-2.2920450617566703
1772649858227986400,6.871986328125,3.4441204629331823,-4.859787471568584,-2.3728122506469487
1772649858238027300,6.88202734375,4.480312938174605,-7.40728116633892,-2.4250828283712265
1772649858248068400,6.892068359375,5.377915857893228,-9.136530140265823,-2.559578684839606
1772649858258109400,6.902109375,5.81370732179284,-10.451197611582279,-2.732215179131925
1772649858268150300,6.912150390625,6.089844814831018,-11.204050115060806,-2.882511539061367
1772649858278192600,6.922192626953125,6.348767553696036,-11.248936720013617,-2.945398787868023
1772649858288233500,6.9322333984375,6.254058056432008,-11.683566154396534,-3.13872092731446
1772649858298274600,6.942274658203125,5.8605894844770425,-12.405131539207696,-3.4495828199923038
1772649858308315400,6.9523154296875,5.247397965145111,-12.75729545634985,-3.5842177926704286
1772649858318356500,6.9623564453125,4.374758806291222,-12.275848156690596,-3.468584457582235
1772649858328398600,6.972398681640625,3.5345728872746225,-10.919091017663478,-3.078722385686636
1772649858338439400,6.982439453125,3.1723870500728486,-9.410801254910231,-2.514658177617192
1772649858348480500,6.99248046875,3.0647301006913183,-8.723147492051124,-1.9177479310005903
1772649858358521300,7.002521240234375,2.921349511499703,-8.945346474152803,-1.591385394591093
1772649858368562400,7.0125625,2.9469913177564737,-9.33472631548941,-1.560631359887123
1772649858378604300,7.022604248046875,3.1807495124876497,-9.581868600189685,-1.6418560832865534
1772649858388645400,7.032645263671875,3.398365258452296,-9.741398067888618,-1.7495840520776806
1772649858398686500,7.0426865234375,3.540931608651578,-9.914267494153975,-1.8642473730899392
1772649858408727300,7.052727294921875,3.666489833165705,-10.080753356862068,-2.0932819003000853
1772649858418768400,7.062768310546875,3.7578573265254493,-10.12632969764471,-2.5115675181254744
1772649858428810200,7.072810302734375,3.24798297380507,-9.967947646415233,-2.8638579842567444
1772649858438851300,7.082851318359375,3.109745884981751,-9.521327914509177,-3.1688848871707913
1772649858448892400,7.092892333984375,3.5952550272524353,-8.632662919005751,-3.419620520187914
1772649858458933200,7.102933349609375,2.474500939273834,-7.04394119066596,-3.5266017622649666
1772649858468973600,7.1129736328125,0.6591460457772016,-5.0228158872991795,-3.48833457545191
1772649858479015700,7.123015625,-0.35228783578276635,-2.6212831536024805,-3.1348022925660013
1772649858489056500,7.133056396484375,-0.29123978510200976,0.14373159458637236,-2.769128905509412
1772649858499097600,7.14309765625,-0.9342657400749623,3.2714392527163025,-2.4317549996115266
1772649858509138700,7.153138671875,-1.6184291766002774,6.931230757287144,-1.9406418998539448
1772649858519179500,7.163179443359375,-0.6409719450525939,10.984113232672215,-1.5404945807874202
1772649858529222000,7.173221923828125,-5.10882886788845,14.607906956666707,2.001183900708705
1772649858539262700,7.1832626953125,-8.962055616891384,16.069084255111218,8.691889014956354
1772649858549303800,7.1933037109375,-4.446816911286115,13.209460547423362,8.913468988376856
1772649858559345000,7.203344970703125,-2.0118150387078524,8.94169788851738,6.184669462907314
1772649858569385700,7.2133857421875,-1.9110690377585589,8.24912478943467,4.486972396063805
1772649858579427800,7.223427734375,-1.8103898184351621,8.209691773712635,3.8028529448106885
1772649858589468700,7.23346875,-1.69699227957502,6.68899319576323,2.9707094624742862
1772649858599509800,7.243509765625,-2.538129654097557,5.281446365219354,2.3855673950627443
1772649858609550600,7.253550537109375,-3.9604309861809015,5.545664287883043,2.7282772551611063
1772649858619591700,7.263591796875,-4.485011909645795,7.807851094731688,3.042607992993295
1772649858629633800,7.2736337890625,-4.908870943689346,11.075260069018602,4.264518270157278
1772649858639674600,7.283674560546875,-5.379369563832879,13.782925621044635,5.693334975484013
1772649858649715700,7.2937158203125,-4.959846513167023,15.501553247714043,5.220960040074586
1772649858659756500,7.303756591796875,-4.2921728775411845,16.249281832307577,3.7157869480371475
1772649858669797600,7.313797607421875,-3.3219863676488397,15.134309834861755,2.122997824127972
1772649858679839500,7.323839599609375,-2.650976865598559,13.291791624629496,1.1253445575740189
1772649858689880600,7.333880615234375,-3.1182424951702354,11.357734948384762,1.0007551050268113
1772649858699921700,7.343921630859375,-3.5539094559073447,9.481464690676331,1.2659713910780845
1772649858709962500,7.35396240234375,-3.2891344838827847,7.986307381218671,1.257995882154256
1772649858720003600,7.364003662109375,-2.5343448748618362,7.091910564064979,1.0325636902850122
1772649858730045700,7.374045654296875,-1.6307644881688057,6.40491614189744,0.9732900288656353
1772649858740086800,7.384086669921875,-0.21211188785135746,5.583220403817296,0.8706741423912346
1772649858750127900,7.3941279296875,1.423710322098434,4.181011427170038,0.607880663040094
1772649858760168700,7.404168701171875,3.1613889784574507,2.0091566331535575,0.07150989652760327
1772649858770210800,7.4142109375,4.37271297967732,-0.6043763447135686,-0.592672755177319
1772649858780251600,7.424251708984375,5.072105695647001,-3.319479353263974,-1.3633701274260879
1772649858790292700,7.434292724609375,5.604897982618212,-5.93392652336657,-2.0256173540890217
1772649858800333800,7.444333740234375,5.668659383910894,-8.429916825392842,-2.7675749540656804
1772649858810374700,7.454374755859375,5.521279203689098,-10.425324334657192,-3.5241996695593
1772649858820415700,7.464415771484375,5.833099420005083,-11.902539744710921,-4.165601384331286
1772649858830457600,7.47445751953125,5.821718778812885,-12.814385709315538,-4.440762141291797
1772649858840498700,7.484498779296875,6.106956108629703,-13.672558535921572,-4.696092408622801
1772649858850539800,7.494539794921875,6.066588442406058,-14.11496211143732,-4.909431500181555
1772649858860580600,7.50458056640625,5.130691155606508,-13.643290355861186,-4.395694626814127
1772649858870621700,7.51462158203125,3.869786838659644,-12.024910571360587,-3.262192408682406
1772649858880663600,7.52466357421875,2.6289146713942286,-10.007451973807811,-2.0812728980764748
1772649858890704600,7.53470458984375,1.5639352237381041,-8.559896373480559,-1.1717097837120294
1772649858900745700,7.544745849609375,1.2532735298074782,-7.861109806710481,-0.7171468377165496
1772649858910786600,7.55478662109375,1.325039812248945,-7.8059794556409114,-0.8781494467079639
1772649858920828700,7.56482861328125,1.3076754204720258,-8.268677631166577,-1.298661508411169
1772649858930869500,7.574869384765625,1.2346763813652097,-8.886410301059485,-1.7462836953580378
1772649858940910600,7.58491064453125,1.2409312039762734,-9.407589307126402,-2.174253964112699
1772649858950951700,7.59495166015625,1.252446285203099,-9.729453947594761,-2.5368361071556804
1772649858960992500,7.604992431640625,1.1186671987019479,-9.853147547280788,-2.8074551290333267
1772649858971035000,7.615034912109375,0.843599088460952,-9.751186471453309,-2.8068653464466333
1772649858981075700,7.62507568359375,0.4109826013356447,-9.518499413084983,-2.5621029426202178
1772649858991116800,7.63511669921875,-0.1087345154851675,-9.416872099256516,-2.1670769120901823
1772649859001158000,7.645157958984375,-0.6210042389094829,-9.352301719668507,-1.6120913518808782
1772649859011198700,7.65519873046875,-0.9406796987704932,-9.010997634714842,-0.7277661391474306
1772649859021240800,7.66524072265625,-0.17110139367952942,-8.461354750707745,-0.366739408852905
1772649859031281700,7.67528173828125,0.7152971181966364,-7.570376802086829,-0.23041673881616442
1772649859041322800,7.68532275390625,0.9730559278488159,-6.126392045983672,0.10869374508336185
1772649859051363600,7.695363525390625,0.34411548911258577,-4.189925970509648,0.4614211413271725
1772649859061404700,7.70540478515625,-0.1420246445380151,-1.5514134496867655,0.6841548148274421
1772649859071445800,7.71544580078125,1.2163497204273939,2.502170451965928,0.16223006842713802
1772649859081487600,7.725487548828125,10.13252095350027,8.385704174178839,-4.963629538837075
1772649859091528700,7.73552880859375,8.49428203779757,14.18271638175845,-6.122354168769717
1772649859101569500,7.745569580078125,-10.985196936255694,20.64295167529583,6.4048284636139865
1772649859111610600,7.755610595703125,-14.902521186637877,25.07850718785524,8.309360939210652
1772649859121651700,7.765651611328125,-7.795656214547157,19.586620082867146,5.954542610415816
1772649859131693600,7.775693603515625,-1.8486660653375089,10.660956798827648,-0.09876176832951605
1772649859141734700,7.785734619140625,-2.7015631434977054,7.4726196076899765,-1.7518641258388756
1772649859151775500,7.795775390625,-4.514500454458594,8.245407814738154,-0.2881496005343273
1772649859161816600,7.805816650390625,-5.863220417502522,8.47201409188807,0.9977743356503546
1772649859171857700,7.815857666015625,-4.797678513658046,7.39476655268073,1.4728993004202842
1772649859181899800,7.825899658203125,-3.2389567867845295,7.324674194800854,2.622840027655661
1772649859191940900,7.83594091796875,-3.6785908975869415,9.36997883065641,5.245317067217827
1772649859201981700,7.845981689453125,-4.739792726400494,11.989661563324928,7.22639502235651
1772649859212022800,7.856022705078125,-4.98935726981163,14.131193115270136,6.98623660519421
1772649859222063900,7.86606396484375,-3.794067288547754,15.226083278673887,4.431760504190623
1772649859232105700,7.876105712890625,-2.97444134247899,15.100826082932949,2.1653812140882014
1772649859242146800,7.886146728515625,-2.6699364176124334,14.071424583005903,0.7601321390926837
1772649859252187600,7.896187744140625,-2.4640838824167846,12.23320845388174,-0.14379830314703285
1772649859262228700,7.906228759765625,-2.342299185092002,9.751271227127313,-0.5606858907427639
1772649859272269800,7.916269775390625,-2.157020066847652,7.463329801297188,-0.7347528562296182
1772649859282311700,7.926311767578125,-1.7157003410458564,5.740455623099208,-0.7192293430790305
1772649859292352800,7.936352783203125,-1.0096728632368146,4.387653943699598,-0.7228956105016171
1772649859302393600,7.9463935546875,-0.00884717719182372,3.194360104689002,-0.7700514755606651
1772649859312434700,7.9564345703125,1.0804133097618818,1.9837860450536011,-0.7330562083795666
1772649859322475800,7.966475830078125,2.021380739432573,0.6618973903119564,-0.8441295420758426
1772649859332517600,7.976517578125,2.830020888845622,-0.9083493546605109,-1.162964605589956
1772649859342558700,7.986558837890625,3.5929216158688067,-2.6384324413239955,-1.3396832546293735
1772649859352599600,7.996599609375,4.211236761824787,-4.374681649401784,-1.5681402742125092
1772649859362640600,8.006640625,5.076235342797637,-6.3929129848927255,-2.118253552210331
1772649859372681700,8.016681640625,5.889717379283905,-8.678867036297916,-3.194516756555438
1772649859382723600,8.0267236328125,6.508890895634889,-10.550509049683809,-4.269728990542888
1772649859392764700,8.0367646484375,6.596957301622629,-12.173667885154485,-4.956844993263482
1772649859402805500,8.046805419921874,5.682586786976456,-13.565544268357753,-5.150842547753453
1772649859412846600,8.0568466796875,5.085884045630693,-14.74621185002923,-5.165961206430197
1772649859422887700,8.0668876953125,4.62816132043004,-15.36845059916973,-5.153657605174184
1772649859432929800,8.0769296875,4.10679935901165,-14.898158315253257,-4.627236314539611
1772649859442971000,8.086970947265625,2.996965893498063,-13.069175293898581,-3.385929847510159
1772649859453011700,8.09701171875,1.6854238607257603,-10.69384901460409,-1.6796251113191245
1772649859463052800,8.107052734375,0.5266916320085525,-9.034690060469508,-0.18234430690146983
1772649859473093600,8.11709375,0.41880072774067517,-8.174596494933962,0.6796034351333975
1772649859483135700,8.1271357421875,0.9002525574445724,-8.0205492580384,0.7247004679664969
1772649859493176600,8.137176513671875,1.3201564241215586,-8.543960553202032,0.5853646241210401
1772649859503217700,8.1472177734375,1.7727023312062025,-9.337472983849048,0.32068690192587673
1772649859513258800,8.1572587890625,1.9032909511029719,-8.22926507371068,-0.19310871589146553
1772649859523299600,8.167299560546875,1.480470758587867,-7.871433632326125,0.18166925718411803
1772649859533342000,8.177342041015624,1.3444313259392977,-8.35364314852953,-0.9201512169394641
1772649859543382800,8.1873828125,0.5635213333643972,-8.915619444409012,-1.0323393800098448
1772649859553424000,8.197423828125,0.17343875058591365,-8.898425733023881,-0.7831576253712177
1772649859563465000,8.20746484375,0.22518252795711158,-7.594742012536526,-1.109203789307922
1772649859573505800,8.217505859375,-0.09077084264084696,-6.071672613802552,-1.3335291159138083
1772649859583548000,8.2275478515625,0.42108840028643607,-4.514317499107122,-1.235226854854822
1772649859593588700,8.237588623046875,0.8627788590967654,-1.6377373959213495,-0.09262048909552395
1772649859603629800,8.2476298828125,0.22865926415696738,1.082887590920925,-0.02084996887035668
1772649859613671000,8.2576708984375,0.4413195796713233,4.044146211221814,0.7743698502164333
1772649859623711700,8.267711669921875,0.4108144051618874,8.802350208103656,2.5652386102974414
1772649859633752800,8.2777529296875,-1.0923790573656558,14.347075753831863,4.818439854396879
1772649859643794700,8.287794677734375,-3.801000302681327,17.950985212183,6.308375337553024
1772649859653835800,8.297835693359374,-2.5830451928839087,15.945392408990859,6.015876492300629
1772649859663876900,8.307876953125,-1.2689834323756397,11.478003834319114,3.674511227057874
1772649859673917700,8.317917724609375,-0.1021288336098194,8.32973269611001,1.6731931785754859
1772649859683958800,8.327958740234376,-0.017426643358170985,5.596704154768585,0.09710793670788406
1772649859694000600,8.338000732421875,-1.440532569822669,3.4838936703950165,-0.8105047011759132
1772649859704041700,8.348041748046874,-2.700366627189517,1.9819033000469206,-1.4484277069866656
1772649859714082800,8.358082763671876,-3.466342816135287,0.9942565367877483,-1.5955603421881794
1772649859724123600,8.36812353515625,-3.8182390222519635,0.5669833103865385,-1.130953556562215
1772649859734164700,8.378164794921876,-4.182962853498757,1.0934557466864585,-0.5087896992888301
1772649859744206800,8.388206787109375,-4.149052108329534,2.2695482755273577,0.1738253387507051
1772649859754248000,8.398248046875,-3.8879903116092085,3.539007654851675,0.8184702732276171
1772649859764289000,8.4082890625,-3.499538106511533,4.316772481268644,1.5671557932198046
1772649859774329900,8.418329833984375,-2.249611402913928,4.320564274767041,1.8429250374674795
1772649859784371000,8.428370849609376,-0.830835906869173,3.5320436610579486,1.993923554316908
1772649859794412800,8.438412841796875,0.0137029466599226,2.463757426941395,1.779125496121496
1772649859804454000,8.448453857421875,0.4066837350979447,1.7751929789781569,1.6365737589694558
1772649859814495000,8.458494873046876,0.3709811380758881,1.373970724156499,1.651044182870537
1772649859824535800,8.468535888671875,0.10634323643445968,1.3872072223484515,1.7653502148777245
1772649859834577000,8.478576904296874,0.11825170089304446,1.6292735189586878,1.553460445344448
1772649859844618800,8.48861865234375,0.07197101123332977,2.027847305098176,1.2755381147161124
1772649859854659800,8.498659912109375,-0.07498422157466411,2.491847795394063,1.0955674781434237
1772649859864700700,8.50870068359375,-0.2557709968358278,2.510752986872196,0.880025104386732
1772649859874741800,8.51874169921875,-0.20127865140885112,2.1994588402569293,0.5524682436261326
1772649859884782800,8.528782958984374,-0.29608371800184247,1.5883599092900753,0.35822065989784896
1772649859894824700,8.53882470703125,-0.29749416932165623,0.8941402120441198,0.17220066015832125
1772649859904865800,8.54886572265625,-0.26481822664439675,0.1764203967452049,-0.03366699954122305
1772649859914906600,8.55890673828125,-0.2669584535434842,-0.448584309977293,-0.29944048108384014
1772649859924947700,8.56894775390625,-0.41733810784220693,-0.947165699788928,-0.4264856562200933
1772649859934988800,8.57898876953125,-0.5066153509244322,-1.438557470357418,-0.5288749673970043
1772649859945029600,8.589029541015625,-0.5935021917387843,-2.078108588826656,-0.5458782707765698
1772649859955071700,8.59907177734375,0.15027911653369663,-1.2770727769374848,-0.1002634781293571
1772649859965112600,8.609112548828126,0.4400552588239312,-1.3383628196805715,-0.3280466901041567
1772649859975154000,8.61915380859375,0.29029256737977266,-2.0275439382374287,-0.5384207213122397
1772649859985195000,8.629195068359374,0.031107378186285495,-2.122194398790598,-0.32611681802012027
1772649859995235800,8.63923583984375,0.051852644573152064,-2.070639568120241,-0.1989304077822715
1772649860005278000,8.64927783203125,0.006421557480096817,-1.8176041337281466,0.00951031727567315
1772649860015318800,8.65931884765625,0.0894762727856636,-1.5232880099207162,-0.033536505029350516
1772649860025360000,8.66935986328125,0.18913696271628141,-1.5088058955818413,-0.023447291887179016
1772649860035401000,8.67940087890625,0.08663432735800743,-0.9655793083578348,0.1485735547248274
1772649860045441800,8.68944189453125,0.009683481885492801,-0.2671948926478624,0.13189502632021904
1772649860055484000,8.69948388671875,0.07067512620389461,-0.3514467087835073,0.051746919176355
1772649860065524700,8.709524658203126,0.19032266536951065,-0.558556258302927,-0.10382562759034335
1772649860075565800,8.71956591796875,0.18825579596757888,-0.7891366997808218,-0.18751169960200786
1772649860085607000,8.72960693359375,0.15612608899623154,-0.9954401936143636,-0.1750241931464523
1772649860095647700,8.739647705078125,0.1520131007194519,-1.0395739343732595,-0.0786160752709955
1772649860105688800,8.749688720703125,0.09067366587668657,-0.9669207860946655,0.07158603050373494
1772649860115730700,8.759730712890626,0.06616174043267965,-0.8022755828171968,0.05996442016251385
1772649860125771800,8.769771728515625,0.10673048218637704,-0.4998170690864324,-0.004601648576557636
1772649860135812900,8.779812744140624,0.08640957869142293,-0.11097498788833618,-0.003728372873365879
1772649860145853700,8.789853759765625,-0.035899288637936115,0.12413608275651931,0.06049933075681328
1772649860155894800,8.799894775390625,-0.12494213844239711,-0.07557984938025473,0.023913521159440277
1772649860165936600,8.8099365234375,-0.17354747165739534,-0.47466684573888773,-0.10145049595683812
1772649860175977700,8.819977783203125,-0.1701554911315441,-0.728982383069396,-0.11086517083831131
1772649860186018800,8.830018798828124,-0.06337824719399214,-0.8203466615587472,-0.0964491805382073
1772649860196059600,8.8400595703125,0.06763590463846922,-0.811935976088047,-0.05705130919478833
1772649860206100700,8.850100830078125,0.0943389103859663,-0.8682616744220256,-0.043857846426963804
1772649860216142800,8.860142822265624,-0.13793781361579893,-1.0938011991232632,0.17823438736461103
1772649860226184000,8.870183837890625,0.19413228678554295,0.3985229327350855,0.944116249090433
1772649860236224800,8.880224853515625,0.07176087561398745,0.538902878805995,0.8223470415957271
1772649860246265900,8.890265869140626,-0.2000599232688546,-0.06066928049623966,0.4436416659433394
1772649860256307000,8.900306884765625,-0.07101444116085767,-0.47539749810099596,0.13503588162921368
1772649860266347800,8.91034765625,-0.03561667230427265,-0.7380389652281999,0.14478877548910676
1772649860276390000,8.920389892578125,-0.18626491441130638,-0.9378823231369257,0.2785905122134834
1772649860286430700,8.9304306640625,-0.32781653461009264,-1.1534469817906619,0.2888341121997684
1772649860296471800,8.940471923828126,-0.18594284285008905,-0.9027139791220427,0.553309516755864
