time,seconds_elapsed,z,y,x
1772649851421305000,0.06530517578125,-0.006668029818683863,-0.0710449293255806,0.008548368699848652
1772649851431346200,0.07534619140625,-0.012646937742829323,-0.04954289272427559,-0.002971638459712267
1772649851441388000,0.085387939453125,-0.006202886812388897,-0.017923979088664055,-0.021771159023046494
1772649851451429000,0.09542919921875,0.0074416822753846645,0.007263392210006714,-0.03200579062104225
1772649851461470500,0.105470458984375,0.017507897689938545,0.015352210961282253,-0.04071406275033951
1772649851471511300,0.11551123046875,0.02873588539659977,0.01849946938455105,-0.052185799926519394
1772649851481553400,0.125553466796875,0.03287124261260033,0.017401713877916336,-0.06494767218828201
1772649851491594200,0.13559423828125,0.037803635001182556,0.023584842681884766,-0.07652938365936279
1772649851501635300,0.14563525390625,0.04793163761496544,0.03211761265993118,-0.0776124894618988
1772649851511676400,0.155676513671875,0.06406114995479584,0.04914899170398712,-0.06209545582532883
1772649851521717200,0.16571728515625,0.07531407475471497,0.05890202149748802,-0.056302547454833984
1772649851531759400,0.17575927734375,0.08149529248476028,0.06421662867069244,-0.06704390794038773
1772649851541800200,0.18580029296875,0.08536966145038605,0.05307209491729736,-0.09735068678855896
1772649851551841300,0.19584130859375,0.07915414869785309,-0.0024341060779988766,-0.13279028236865997
1772649851561882400,0.20588232421875,0.06572862714529037,-0.07405316829681396,-0.17286179959774017
1772649851571923200,0.215923095703125,0.04604163393378258,-0.13378998637199402,-0.2162826955318451
1772649851581965300,0.22596533203125,0.020822834223508835,-0.17673584818840027,-0.25003933906555176
1772649851592006100,0.236006103515625,-0.01121704000979662,-0.19707462191581726,-0.26217108964920044
1772649851602047200,0.246047119140625,-0.030902063474059105,-0.163039430975914,-0.26626676321029663
1772649851612088300,0.25608837890625,-0.04787488281726837,-0.11545446515083313,-0.2787816524505615
1772649851622130400,0.26613037109375,-0.06037229672074318,-0.05139186605811119,-0.28877487778663635
1772649851632171500,0.276171630859375,-0.06858218461275101,0.016771944239735603,-0.3003731369972229
1772649851642212400,0.28621240234375,-0.05371269956231117,0.1029486432671547,-0.3014858067035675
1772649851652253400,0.29625341796875,-0.01806781068444252,0.2043716013431549,-0.3094714283943176
1772649851662294300,0.306294189453125,0.021179459989070892,0.28571492433547974,-0.34568509459495544
1772649851672336400,0.31633642578125,0.06044858694076538,0.33039310574531555,-0.37814828753471375
1772649851682377200,0.326377197265625,0.0971331000328064,0.33373406529426575,-0.39772891998291016
1772649851692418300,0.336418212890625,0.11646687984466553,0.29391908645629883,-0.4170067310333252
1772649851702459400,0.34645947265625,0.11742455512285233,0.22456608712673187,-0.435175359249115
1772649851712501200,0.356501220703125,0.10975544899702072,0.15389084815979004,-0.4273824095726013
1772649851722542300,0.366542236328125,0.11426658183336258,0.06376495212316513,-0.42074206471443176
1772649851732583200,0.376583251953125,0.05334915965795517,0.06453054398298264,-0.44089722633361816
1772649851742624300,0.386624267578125,-0.01813327707350254,0.07131575047969818,-0.4627425968647003
1772649851752665300,0.396665283203125,-0.06517089903354645,0.09694607555866241,-0.500052273273468
1772649851762707200,0.406707275390625,-0.10250522196292877,0.19347447156906128,-0.5231863260269165
1772649851772748300,0.416748291015625,-0.1111355796456337,0.3706004023551941,-0.4583759307861328
1772649851782789000,0.4267890625,-0.10420310497283936,0.5646023154258728,-0.32387298345565796
1772649851792830200,0.436830322265625,-0.06607309728860855,0.6613524556159973,-0.16490259766578674
1772649851802871300,0.446871337890625,-0.0012954333797097206,0.695379912853241,0.0009407021570950747
1772649851812913400,0.456913330078125,0.09427296370267868,0.6691042184829712,0.15384510159492493
1772649851822954500,0.46695458984375,0.1463441550731659,0.7102431654930115,0.26807793974876404
1772649851832995300,0.476995361328125,0.11351822316646576,0.675154447555542,0.3040938377380371
1772649851843036400,0.487036376953125,0.09564894437789917,0.5841971039772034,0.2765766978263855
1772649851853078300,0.497078369140625,0.0739835724234581,0.5260598063468933,0.2729296088218689
1772649851863119400,0.507119384765625,0.04568774998188019,0.4357594847679138,0.2738260328769684
1772649851873160400,0.517160400390625,0.025582455098628998,0.29382258653640747,0.23311030864715576
1772649851883201300,0.527201171875,0.03596052899956703,0.14076966047286987,0.1709180474281311
1772649851893242400,0.537242431640625,0.04256012663245201,-0.07595473527908325,0.1471756249666214
1772649851903284200,0.5472841796875,0.010369965806603432,-0.34661978483200073,0.14761903882026672
1772649851913325300,0.5573251953125,0.005700755398720503,-0.6379246115684509,0.10783474147319794
1772649851923366400,0.567366455078125,0.03616945073008537,-0.8742231726646423,0.04629787802696228
1772649851933407200,0.5774072265625,0.06422878801822662,-1.0117778778076172,0.00223522144369781
1772649851943448300,0.5874482421875,0.06726185977458954,-1.0126338005065918,-0.029497673735022545
1772649851953490200,0.597490234375,0.0578760951757431,-0.8360739946365356,-0.08597954362630844
1772649851963531300,0.60753125,0.032256487756967545,-0.5722497701644897,-0.13668480515480042
1772649851973572400,0.617572265625,-0.02719462662935257,-0.31751635670661926,-0.15383584797382355
1772649851983613200,0.62761328125,-0.11300380527973175,-0.09787268191576004,-0.15291093289852142
1772649851993655300,0.6376552734375,-0.18612487614154816,0.07732084393501282,-0.1372264176607132
1772649852003696000,0.647696044921875,-0.20696650445461273,0.23093728721141815,-0.11021876335144043
1772649852013737200,0.6577373046875,-0.18589426577091217,0.38330021500587463,-0.07209904491901398
1772649852023778300,0.6677783203125,-0.13854087889194489,0.5181264877319336,-0.021770888939499855
1772649852033820400,0.6778203125,-0.08992622047662735,0.6223469376564026,0.043407391756772995
1772649852043861500,0.687861572265625,-0.042223937809467316,0.6634605526924133,0.08870775997638702
1772649852053902300,0.69790234375,0.014480490237474442,0.6309497952461243,0.11245804280042648
1772649852063943400,0.707943359375,0.07176695019006729,0.5741981267929077,0.16538409888744354
1772649852073984500,0.717984619140625,0.10477413982152939,0.4644087851047516,0.21363875269889832
1772649852084026400,0.7280263671875,0.0940176323056221,0.3085017204284668,0.25709250569343567
1772649852094067500,0.7380673828125,0.10971274226903915,0.15727420151233673,0.26696938276290894
1772649852104108300,0.7481083984375,0.13751907646656036,0.0051075671799480915,0.21748383343219757
1772649852114149400,0.7581494140625,0.16635921597480774,-0.1490468531847,0.13189493119716644
1772649852124190200,0.768190185546875,0.2227788120508194,-0.3592248260974884,0.06689835339784622
1772649852134232300,0.778232421875,0.27004170417785645,-0.5087134838104248,0.021698305383324623
1772649852144273400,0.7882734375,0.3136270046234131,-0.6448686718940735,0.014978619292378426
1772649852154314200,0.798314208984375,0.37704986333847046,-0.6932118535041809,0.04030618816614151
1772649852164355300,0.808355224609375,0.37183377146720886,-0.6373358368873596,0.057419128715991974
1772649852174397200,0.818397216796875,0.24776342511177063,-0.5064089894294739,0.03139694407582283
1772649852184438300,0.828438232421875,-0.011878807097673416,-0.3477543592453003,-0.06838584691286087
1772649852194479000,0.83847900390625,-0.3374125063419342,-0.1776900738477707,-0.19826535880565643
1772649852204520200,0.848520263671875,-0.528144359588623,-0.06840194016695023,-0.3669790029525757
1772649852214561300,0.858561279296875,-0.6192114949226379,-0.011534330435097218,-0.5594159364700317
1772649852224603400,0.868603271484375,-0.7375866174697876,-0.021343018859624863,-0.7167818546295166
1772649852234644500,0.87864453125,-0.8665024042129517,-0.06353302299976349,-0.7890209555625916
1772649852244685300,0.888685302734375,-0.8935846090316772,-0.08694087713956833,-0.7582164406776428
1772649852254726400,0.898726318359375,-0.7270137667655945,-0.07289096713066101,-0.628548264503479
1772649852264768300,0.908768310546875,-0.49147796630859375,-0.02624569833278656,-0.4450404942035675
1772649852274809300,0.918809326171875,-0.32822301983833313,0.012948909774422646,-0.32289212942123413
1772649852284850400,0.928850341796875,-0.21867257356643677,0.07287988811731339,-0.26236435770988464
1772649852294891300,0.938891357421875,-0.13429656624794006,0.13327251374721527,-0.244106262922287
1772649852304932400,0.948932373046875,-0.10608622431755066,0.1786453276872635,-0.2648216485977173
1772649852314974200,0.95897412109375,-0.11792053282260895,0.20393356680870056,-0.31198787689208984
1772649852325015300,0.969015380859375,-0.14680810272693634,0.24117574095726013,-0.36333122849464417
1772649852335056400,0.979056396484375,-0.1800885945558548,0.30198103189468384,-0.37399715185165405
1772649852345097200,0.98909716796875,-0.20139360427856445,0.3934648931026459,-0.32875856757164
1772649852355139300,0.999139404296875,-0.19677062332630157,0.4875543713569641,-0.22289152443408966
1772649852365180200,1.00918017578125,-0.1624576598405838,0.5781218409538269,-0.07677266746759415
1772649852375221200,1.01922119140625,-0.13654713332653046,0.6339706182479858,0.047486260533332825
1772649852385262300,1.029262451171875,-0.13282616436481476,0.6310685873031616,0.07936988770961761
1772649852395303200,1.03930322265625,-0.14650270342826843,0.5763330459594727,0.0189792662858963
1772649852405345300,1.04934521484375,-0.1407124549150467,0.46697670221328735,-0.10542630404233932
1772649852415386000,1.05938623046875,-0.0310339517891407,0.4467884302139282,-0.23356711864471436
1772649852425427200,1.06942724609375,0.11694246530532837,0.4921761751174927,-0.31615039706230164
1772649852435468300,1.07946826171875,0.1590840071439743,0.5531492829322815,-0.541845977306366
1772649852445510400,1.089510498046875,-0.04438602179288864,0.379425972700119,-1.01434326171875
1772649852455551500,1.099551513671875,-0.4488122761249542,-0.24636268615722656,-0.6935624480247498
1772649852465592600,1.109592529296875,-0.45416468381881714,0.49458542466163635,0.19343073666095734
1772649852475633700,1.119633544921875,-0.03358747437596321,0.9989580512046814,0.5375477075576782
1772649852485674500,1.129674560546875,0.2817979156970978,0.8875439167022705,0.7452020645141602
1772649852495716600,1.139716552734375,0.36729690432548523,0.5852100253105164,0.832616925239563
1772649852505757700,1.1497578125,0.5991370677947998,0.6955019235610962,0.7685103416442871
1772649852515798500,1.159798583984375,0.7832088470458984,0.8038219213485718,0.6718086004257202
1772649852525839600,1.169839599609375,0.6665403246879578,0.6958310008049011,0.4375598728656769
1772649852535881500,1.179881591796875,0.3327215611934662,0.44321560859680176,0.12503032386302948
1772649852545922600,1.189922607421875,0.08578446507453918,0.2729088366031647,0.022974791005253792
1772649852555963400,1.19996337890625,-0.08038778603076935,0.21150393784046173,0.03065660037100315
1772649852566004500,1.21000439453125,-0.1995067298412323,0.20419888198375702,0.021233005449175835
1772649852576045600,1.220045654296875,-0.27587369084358215,0.19832076132297516,-0.033623553812503815
1772649852586087700,1.230087646484375,-0.2635749280452728,0.15964527428150177,-0.10428440570831299
1772649852596128800,1.240128662109375,-0.14131543040275574,0.13049012422561646,-0.10558176040649414
1772649852606169600,1.250169677734375,0.09326779097318649,0.19933949410915375,-0.13226690888404846
1772649852616210700,1.260210693359375,0.3065548539161682,0.20730166137218475,-0.16107532382011414
1772649852626252500,1.27025244140625,0.45957449078559875,0.15249541401863098,-0.10073741525411606
1772649852636293600,1.280293701171875,0.5864612460136414,0.15495792031288147,0.09114807844161987
1772649852646334700,1.290334716796875,0.7061663269996643,0.21851186454296112,0.3925777077674866
1772649852656375600,1.30037548828125,0.793079137802124,0.30555081367492676,0.752273440361023
1772649852666416600,1.310416748046875,0.8205848336219788,0.40295886993408203,1.0823535919189453
1772649852676458500,1.32045849609375,0.7017435431480408,0.4349071681499481,1.2086268663406372
1772649852686499600,1.33049951171875,0.42657992243766785,0.3691933751106262,1.0324838161468506
1772649852696540700,1.340540771484375,0.056100066751241684,0.30664217472076416,0.7804127931594849
1772649852706581500,1.35058154296875,-0.3066624104976654,0.06505165994167328,0.4491288959980011
1772649852716623600,1.36062353515625,-0.595890998840332,-0.2513502538204193,0.06284400075674057
1772649852726664400,1.37066455078125,-0.7993695735931396,-0.5066054463386536,-0.21493461728096008
1772649852736705500,1.38070556640625,-0.9102404117584229,-0.6636564135551453,-0.2721375823020935
1772649852746746600,1.39074658203125,-0.9571932554244995,-0.7776620984077454,-0.1695302277803421
1772649852756787500,1.400787353515625,-0.9388858079910278,-0.8113791346549988,-0.001603695098310709
1772649852766829600,1.41082958984375,-0.831574559211731,-0.7279079556465149,0.15616250038146973
1772649852776870400,1.420870361328125,-0.6368053555488586,-0.583937406539917,0.25378847122192383
1772649852786911500,1.430911376953125,-0.3935820460319519,-0.4391849935054779,0.275034636259079
1772649852796952600,1.44095263671875,-0.17284245789051056,-0.33191341161727905,0.24341702461242676
1772649852806994700,1.45099462890625,-0.010809071362018585,-0.28818032145500183,0.202378511428833
1772649852817035800,1.461035888671875,0.11810380965471268,-0.26383116841316223,0.16667532920837402
1772649852827076600,1.47107666015625,0.20043809711933136,-0.255077064037323,0.11770804971456528
1772649852837117700,1.48111767578125,0.22487422823905945,-0.2510596215724945,0.07287992537021637
1772649852847158800,1.49115869140625,0.20211352407932281,-0.23055942356586456,0.04205889627337456
1772649852857200600,1.50120068359375,0.147064208984375,-0.21053025126457214,-0.00772788655012846
1772649852867241700,1.51124169921875,0.06576855480670929,-0.22451025247573853,-0.07051829993724823
1772649852877282600,1.521282470703125,-0.00023789232363924384,-0.22746075689792633,-0.12106536328792572
1772649852887323600,1.53132373046875,-0.017007818445563316,-0.19233712553977966,-0.1451888084411621
1772649852897365500,1.541365478515625,-0.004806048236787319,-0.1199980229139328,-0.10733332484960556
1772649852907406600,1.551406494140625,-0.022094758227467537,-0.03177042677998543,-0.04508059844374657
1772649852917447700,1.56144775390625,-0.0936058908700943,-0.015485262498259544,-0.05791398137807846
1772649852927488500,1.571488525390625,-0.15063747763633728,-0.03266904503107071,-0.1327485293149948
1772649852937529600,1.581529541015625,-0.1611342877149582,-0.011147572658956051,-0.26939064264297485
1772649852947571500,1.591571533203125,-0.11387649178504944,0.1766958385705948,-0.423149049282074
1772649852957612500,1.601612548828125,-0.04705183953046799,0.4776197373867035,-0.4968302845954895
1772649852967653600,1.611653564453125,0.1787320375442505,0.5223531126976013,-0.508901834487915
1772649852977694500,1.621694580078125,0.4175684154033661,0.5755884051322937,-0.59017014503479
1772649852987736600,1.631736572265625,0.29237082600593567,0.5421878099441528,-0.8008741140365601
1772649852997777700,1.641777587890625,0.26795029640197754,0.7868409156799316,-0.5434830188751221
1772649853007818800,1.65181884765625,0.3159268796443939,0.7363266348838806,-0.042550113052129745
1772649853017859600,1.661859619140625,0.2872161865234375,0.9988564848899841,0.4268912672996521
1772649853027900700,1.671900634765625,0.5102533102035522,1.5812690258026123,0.5272014141082764
1772649853037942500,1.681942626953125,0.6296516060829163,1.6976069211959839,0.3234620988368988
1772649853047983600,1.691983642578125,0.5750045776367188,1.2366613149642944,0.2697330713272095
1772649853058024700,1.702024658203125,0.504696786403656,0.7279784679412842,0.29619863629341125
1772649853068065500,1.7120654296875,0.289916068315506,0.1840381622314453,0.18694455921649933
1772649853078106600,1.722106689453125,-0.027230095118284225,-0.4201444387435913,-0.024091415107250214
1772649853088148500,1.7321484375,-0.1418970227241516,-0.9426276683807373,-0.21242325007915497
1772649853098189600,1.742189453125,-0.16735655069351196,-1.1848267316818237,-0.34202978014945984
1772649853108230700,1.752230712890625,-0.17994904518127441,-1.1381783485412598,-0.4130168855190277
1772649853118271500,1.762271484375,-0.18306463956832886,-0.9317274689674377,-0.4891509413719177
1772649853128313600,1.772313720703125,-0.11924971640110016,-0.6719552874565125,-0.5598229765892029
1772649853138354400,1.7823544921875,-0.020378652960062027,-0.38511502742767334,-0.4979243874549866
1772649853148395500,1.7923955078125,0.022338716313242912,-0.1212431788444519,-0.28941962122917175
1772649853158436600,1.8024365234375,-0.0177125446498394,0.04860091209411621,-0.03737280145287514
1772649853168477400,1.8124775390625,-0.07650821655988693,0.1584770828485489,0.20281822979450226
1772649853178519600,1.82251953125,-0.09764889627695084,0.28388261795043945,0.37283915281295776
1772649853188560400,1.832560302734375,-0.07541576772928238,0.3923664689064026,0.40889808535575867
1772649853198601500,1.8426015625,-0.021288683637976646,0.39280498027801514,0.3277975618839264
1772649853208642600,1.852642578125,0.0478922501206398,0.3232858180999756,0.23985092341899872
1772649853218683400,1.862683349609375,0.15581904351711273,0.26449334621429443,0.21494416892528534
1772649853228725800,1.872725830078125,0.2726529538631439,0.24980440735816956,0.2492731213569641
1772649853238766600,1.8827666015625,0.36418113112449646,0.24901315569877625,0.3023777902126312
1772649853248807700,1.8928076171875,0.40833979845046997,0.24108147621154785,0.350877970457077
1772649853258848800,1.902848876953125,0.36451125144958496,0.19610682129859924,0.35657936334609985
1772649853268890600,1.912890625,0.2107592225074768,0.14702263474464417,0.29591548442840576
1772649853278931700,1.922931640625,-0.017007717862725258,0.12390866130590439,0.12808330357074738
1772649853288972500,1.93297265625,-0.22194381058216095,0.08234630525112152,-0.12177127599716187
1772649853299013600,1.943013671875,-0.41411733627319336,0.0722355991601944,-0.33625632524490356
1772649853309054700,1.9530546875,-0.5689724087715149,0.039734385907649994,-0.5011978149414062
1772649853319096600,1.9630966796875,-0.6525902152061462,-0.056700676679611206,-0.6235122680664062
1772649853329137700,1.9731376953125,-0.6978578567504883,-0.09753172844648361,-0.6809667944908142
1772649853339178500,1.983178466796875,-0.6094129085540771,-0.10564418137073517,-0.5997933745384216
1772649853349219600,1.993219482421875,-0.36179646849632263,-0.09549274295568466,-0.38775700330734253
1772649853359261400,2.003261474609375,-0.0794045478105545,-0.10389973968267441,-0.16096524894237518
1772649853369302500,2.013302490234375,0.12297066301107407,-0.054711420089006424,0.014712565578520298
1772649853379343600,2.023343505859375,0.26688140630722046,-0.027135726064443588,0.10417730361223221
1772649853389384400,2.033384521484375,0.3540663719177246,-0.04730890318751335,0.12012510746717453
1772649853399425500,2.043425537109375,0.3950009047985077,-0.09790662676095963,0.12007696181535721
1772649853409467600,2.053467529296875,0.38012954592704773,-0.16793471574783325,0.1279580444097519
1772649853419508700,2.0635087890625,0.3266191780567169,-0.2145717293024063,0.12515826523303986
1772649853429549600,2.073549560546875,0.25801748037338257,-0.23930662870407104,0.08914834260940552
1772649853439590700,2.083590576171875,0.18828456103801727,-0.24658705294132233,0.03579435497522354
1772649853449632800,2.0936328125,0.1491542011499405,-0.23577754199504852,0.022746728733181953
1772649853459673600,2.103673583984375,0.13645663857460022,-0.19307507574558258,0.03560327738523483
1772649853469714400,2.11371435546875,0.12179086357355118,-0.11763492226600647,0.019619517028331757
1772649853479755500,2.123755615234375,0.05721806362271309,-0.0952189713716507,-0.08367802947759628
1772649853489796400,2.13379638671875,-0.060868363827466965,-0.1813511848449707,-0.22293579578399658
1772649853499838500,2.14383837890625,-0.20129020512104034,-0.28614723682403564,-0.30004456639289856
1772649853509879300,2.15387939453125,-0.330964595079422,-0.3172697424888611,-0.31839507818222046
1772649853519920400,2.16392041015625,-0.4124302268028259,-0.2706739902496338,-0.3313981294631958
1772649853529961500,2.17396142578125,-0.5428609848022461,-0.1970762312412262,-0.2975424528121948
1772649853540002300,2.184002197265625,-0.6886380314826965,0.13490691781044006,0.07739344984292984
1772649853550044400,2.19404443359375,-0.3862004280090332,0.9871453642845154,0.5871608257293701
1772649853560085200,2.204085205078125,0.12095852941274643,1.321270227432251,0.6516005992889404
1772649853570126300,2.214126220703125,0.4244731068611145,0.6652596592903137,0.3624390959739685
1772649853580167200,2.224167236328125,0.43959522247314453,-0.016560308635234833,0.3548075556755066
1772649853590208300,2.234208251953125,0.6583437919616699,-0.1647939831018448,0.5364055633544922
1772649853600250400,2.24425048828125,0.839134693145752,0.05953359603881836,0.5381359457969666
1772649853610291200,2.254291259765625,0.72594153881073,0.297353595495224,0.07796915620565414
1772649853620332300,2.264332275390625,0.4418465197086334,0.25483670830726624,-0.37636786699295044
1772649853630373000,2.274373046875,0.06580685824155807,0.07375800609588623,-0.48649969696998596
1772649853640415200,2.284415283203125,-0.20856501162052155,0.03947433456778526,-0.2782144248485565
1772649853650456000,2.2944560546875,-0.29878467321395874,0.1158205047249794,-0.06973365694284439
1772649853660497200,2.3044970703125,-0.27747946977615356,0.2165943831205368,-0.04624249413609505
1772649853670538200,2.314538330078125,-0.127097949385643,0.3069000542163849,0.011667677201330662
1772649853680579000,2.3245791015625,0.013178966008126736,0.36980143189430237,0.09740866720676422
1772649853690621400,2.334621337890625,0.06641369313001633,0.45570382475852966,0.13587722182273865
1772649853700662300,2.344662353515625,0.037835743278265,0.5688006281852722,0.15961389243602753
1772649853710703400,2.354703369140625,-0.042571745812892914,0.6874076724052429,0.1533847600221634
1772649853720744400,2.364744384765625,-0.1241920068860054,0.7530280947685242,0.11045758426189423
1772649853730785300,2.374785400390625,-0.17432227730751038,0.720605731010437,0.15050461888313293
1772649853740827400,2.384827392578125,-0.16792622208595276,0.6033280491828918,0.23631726205348969
1772649853750868200,2.3948681640625,-0.11509257555007935,0.44175460934638977,0.28038355708122253
1772649853760909300,2.404909423828125,-0.048484381288290024,0.27417099475860596,0.23983445763587952
1772649853770950400,2.414950439453125,0.006485396530479193,0.15119366347789764,0.14203491806983948
1772649853780992300,2.4249921875,0.04664280638098717,0.12351762503385544,0.02207968756556511
1772649853791033300,2.435033447265625,0.06903999298810959,0.17081670463085175,-0.1001194566488266
1772649853801074200,2.44507421875,0.06153176724910736,0.24822063744068146,-0.18650348484516144
1772649853811115300,2.455115234375,-0.004576678853482008,0.3106435239315033,-0.24330364167690277
1772649853821156400,2.46515625,-0.19594408571720123,0.387982577085495,-0.2922518253326416
1772649853831198200,2.4751982421875,-0.45860499143600464,0.3356781005859375,-0.38631680607795715
1772649853841239300,2.4852392578125,-0.749381422996521,0.2891848385334015,-0.5254369378089905
1772649853851280100,2.495280029296875,-1.0177431106567383,0.23494502902030945,-0.7106155753135681
1772649853861321200,2.5053212890625,-1.2404941320419312,0.14946554601192474,-0.9312955737113953
1772649853871362300,2.5153623046875,-1.4132075309753418,0.10653273016214371,-1.0967808961868286
1772649853881404400,2.525404296875,-1.441330075263977,0.14240585267543793,-1.1167480945587158
1772649853891445500,2.535445556640625,-1.1721364259719849,0.22379204630851746,-0.9921010136604309
1772649853901486300,2.545486328125,-0.8647522330284119,0.30541494488716125,-0.7649704217910767
1772649853911527400,2.55552734375,-0.6082648038864136,0.3308188319206238,-0.5165632963180542
1772649853921568500,2.565568603515625,-0.35555946826934814,0.3490561544895172,-0.2611106038093567
1772649853931610400,2.5756103515625,-0.13497570157051086,0.34021392464637756,-0.007828808389604092
1772649853941651500,2.5856513671875,0.030563611537218094,0.2826327979564667,0.19779863953590393
1772649853951692300,2.5956923828125,0.11191625893115997,0.216051384806633,0.33537060022354126
1772649853961733400,2.6057333984375,0.11718157678842545,0.18081387877464294,0.40919920802116394
1772649853971775200,2.615775146484375,0.07563626766204834,0.19183510541915894,0.4245701730251312
1772649853981816300,2.62581640625,-0.005919996649026871,0.2172848880290985,0.39130428433418274
1772649853991857400,2.635857421875,-0.058959778398275375,0.25705599784851074,0.3117886781692505
1772649854001898200,2.645898193359375,-0.13429148495197296,0.24575340747833252,0.2342393696308136
1772649854011939300,2.655939208984375,-0.20490200817584991,0.17596660554409027,0.18353065848350525
1772649854021981200,2.665981201171875,-0.24673669040203094,0.06618884205818176,0.1535448133945465
1772649854032022300,2.676022216796875,-0.29134488105773926,-0.05519245192408562,0.10405874997377396
1772649854042063400,2.6860634765625,-0.3282873332500458,-0.18537241220474243,-0.016987761482596397
1772649854052104200,2.696104248046875,-0.3344022333621979,-0.3315434753894806,-0.21606172621250153
1772649854062145300,2.706145263671875,-0.3024756610393524,-0.4416034519672394,-0.4681660234928131
1772649854072187400,2.7161875,-0.20716379582881927,-0.45704925060272217,-0.6552709341049194
1772649854082228500,2.726228515625,-0.22326210141181946,-0.42385050654411316,-0.6626227498054504
1772649854092269300,2.736269287109375,-0.3944966793060303,-0.20857228338718414,-0.4653075337409973
1772649854102310400,2.746310302734375,-0.47179707884788513,0.07944539189338684,-0.2194623351097107
1772649854112351500,2.7563515625,-0.34853240847587585,0.20089033246040344,0.05508080869913101
1772649854122393300,2.766393310546875,-0.11915645003318787,0.109508216381073,0.20365212857723236
1772649854132434400,2.776434326171875,-0.03906746953725815,0.010288424789905548,0.14421117305755615
1772649854142475300,2.786475341796875,0.01457391120493412,0.015305748209357262,0.009610183537006378
1772649854152516400,2.796516357421875,0.0687258318066597,-0.07419350743293762,-0.06803827732801437
1772649854162557400,2.806557373046875,-0.0015725792618468404,-0.2798197567462921,-0.15766631066799164
1772649854172599300,2.816599365234375,-0.19771786034107208,-0.5226712822914124,-0.2425236701965332
1772649854182640400,2.826640380859375,-0.29559019207954407,-0.627403736114502,-0.2513824701309204
1772649854192681200,2.83668115234375,-0.18864965438842773,-0.6128535866737366,-0.17351749539375305
1772649854202722300,2.846722412109375,-0.008832198567688465,-0.5742942690849304,-0.07268203794956207
1772649854212763400,2.856763427734375,0.18090231716632843,-0.5185598731040955,0.004984256811439991
1772649854222805200,2.86680517578125,0.36314213275909424,-0.44988003373146057,0.10320764780044556
1772649854232846300,2.876846435546875,0.5076286792755127,-0.3465954661369324,0.14204718172550201
1772649854242887200,2.88688720703125,0.5545393228530884,-0.18965677917003632,0.14214801788330078
1772649854252928300,2.89692822265625,0.5170249342918396,0.0029342409688979387,0.17163559794425964
1772649854262970000,2.90697021484375,0.434597909450531,0.1856185495853424,0.2394925206899643
1772649854273011200,2.91701123046875,0.3822377622127533,0.3470465838909149,0.34418243169784546
1772649854283052300,2.92705224609375,0.4117123782634735,0.439869225025177,0.43383151292800903
1772649854293093000,2.937093017578125,0.5282355546951294,0.43958133459091187,0.48304563760757446
1772649854303134200,2.94713427734375,0.6689900755882263,0.38307079672813416,0.5202428698539734
1772649854313176300,2.95717626953125,0.7959469556808472,0.3266695737838745,0.5276962518692017
1772649854323217400,2.967217529296875,0.8904170393943787,0.2689805030822754,0.47666534781455994
1772649854333258500,2.977258544921875,0.9415540099143982,0.23185418546199799,0.3886246979236603
1772649854343299300,2.98729931640625,0.954551100730896,0.25094398856163025,0.304507315158844
1772649854353340400,2.99734033203125,0.8752528429031372,0.23831608891487122,0.19603197276592255
1772649854363382300,3.00738232421875,0.6450114846229553,0.21391211450099945,0.03145933151245117
1772649854373423400,3.01742333984375,0.22938822209835052,0.10515741258859634,-0.19121183454990387
1772649854383464400,3.02746435546875,-0.1393803060054779,0.10045167058706284,-0.36966076493263245
1772649854393505300,3.03750537109375,-0.44404324889183044,0.15020166337490082,-0.4492916762828827
1772649854403546400,3.04754638671875,-0.6636038422584534,0.12028742581605911,-0.5008065700531006
1772649854413588200,3.057588134765625,-0.805819571018219,0.0049219559878110886,-0.5049411058425903
1772649854423629300,3.06762939453125,-0.7628952860832214,-0.22427362203598022,-0.42140376567840576
1772649854433670400,3.07767041015625,-0.42063814401626587,-0.2120254784822464,-0.17013318836688995
1772649854443711200,3.087711181640625,-0.15042802691459656,-0.05382762849330902,0.12963807582855225
1772649854453752300,3.09775244140625,0.044803522527217865,0.0899023786187172,0.36555659770965576
1772649854463794200,3.107794189453125,0.2522408664226532,0.22153893113136292,0.4881156086921692
1772649854473835300,3.117835205078125,0.4035784602165222,0.26004984974861145,0.5345742106437683
1772649854483876400,3.12787646484375,0.4651246666908264,0.197691410779953,0.5013557076454163
1772649854493917200,3.137917236328125,0.43898922204971313,0.10101332515478134,0.3811235725879669
1772649854503958300,3.147958251953125,0.3711938261985779,-0.0013039010809734464,0.2332354485988617
1772649854514000400,3.15800048828125,0.2715652287006378,-0.09414862096309662,0.08270905911922455
1772649854524041500,3.16804150390625,0.1297004073858261,-0.1598539501428604,-0.05915641412138939
1772649854534082300,3.178082275390625,-0.04007584601640701,-0.19178898632526398,-0.19448626041412354
1772649854544123400,3.188123291015625,-0.2428327202796936,-0.24221324920654297,-0.3330889046192169
1772649854554164500,3.19816455078125,-0.35261058807373047,-0.26565757393836975,-0.43372178077697754
1772649854564206300,3.208206298828125,-0.449123352766037,-0.258708119392395,-0.5126192569732666
1772649854574247400,3.218247314453125,-0.5809285044670105,-0.24145086109638214,-0.5860519409179688
1772649854584288300,3.228288330078125,-0.7037303447723389,-0.22883254289627075,-0.5386404395103455
1772649854594329300,3.238329345703125,-0.7908479571342468,-0.19488629698753357,-0.3240432143211365
1772649854604370400,3.248370361328125,-0.8223801255226135,-0.10988817363977432,-0.10359790176153183
1772649854614412300,3.258412353515625,-0.9255424737930298,-0.23074695467948914,-0.2947433590888977
1772649854624453400,3.268453369140625,-1.0543979406356812,-0.5018112659454346,-1.1141555309295654
1772649854634494200,3.278494140625,-1.3196269273757935,-0.29613667726516724,-0.828335165977478
1772649854644535300,3.288535400390625,-1.2925323247909546,0.7859312891960144,0.42803671956062317
1772649854654576400,3.298576416015625,-0.5120372176170349,1.257814645767212,0.8448997139930725
1772649854664618200,3.3086181640625,0.04302685335278511,0.7799568176269531,0.7733426690101624
1772649854674659300,3.318659423828125,0.02876882255077362,-0.28640463948249817,0.5571061968803406
1772649854684700200,3.3287001953125,0.3603099286556244,-0.7140241265296936,0.6326047778129578
1772649854694741200,3.3387412109375,0.7914285659790039,-0.6217072606086731,0.7370043992996216
1772649854704782300,3.3487822265625,0.9116649031639099,-0.5832870006561279,0.5274752974510193
1772649854714824200,3.35882421875,0.70894855260849,-0.7454652786254883,0.10379278659820557
1772649854724865300,3.368865234375,0.2699204385280609,-0.8711024522781372,-0.2695464491844177
1772649854734906000,3.378906005859375,0.04596935212612152,-0.5406123995780945,-0.45102089643478394
1772649854744947200,3.388947265625,0.07734479755163193,0.10805846005678177,-0.25351202487945557
1772649854754988300,3.39898828125,0.19563548266887665,0.49367085099220276,0.08074130117893219
1772649854765030400,3.409030517578125,0.24485212564468384,0.5510097742080688,0.33687305450439453
1772649854775071500,3.419071533203125,0.30104508996009827,0.5801540613174438,0.4933478832244873
1772649854785112300,3.4291123046875,0.3538605570793152,0.6087131500244141,0.6039198637008667
1772649854795153400,3.4391533203125,0.414049357175827,0.7372868061065674,0.6874621510505676
1772649854805194500,3.449194580078125,0.5751244425773621,0.9044233560562134,0.7818878293037415
1772649854815236400,3.459236328125,0.7368390560150146,0.9676326513290405,0.7879217267036438
1772649854825277400,3.46927734375,0.8676261901855469,0.859209418296814,0.7228891849517822
1772649854835318300,3.479318359375,0.9461958408355713,0.6190189123153687,0.6485998034477234
1772649854845359400,3.489359375,0.9485200047492981,0.32050004601478577,0.5679935216903687
1772649854855400400,3.499400390625,0.8864997625350952,0.02168431505560875,0.46302419900894165
1772649854865442300,3.5094423828125,0.7842716574668884,-0.2211114466190338,0.3438953459262848
1772649854875483400,3.5194833984375,0.6834345459938049,-0.37020185589790344,0.22492820024490356
1772649854885524200,3.529524169921875,0.5794805288314819,-0.43747928738594055,0.12592580914497375
1772649854895565300,3.5395654296875,0.4763866066932678,-0.4475353956222534,0.05175357684493065
1772649854905606100,3.549606201171875,0.36513444781303406,-0.4425085484981537,0.0014819334028288722
1772649854915648300,3.559648193359375,0.21548080444335938,-0.4311895966529846,-0.037619397044181824
1772649854925689300,3.569689453125,0.03428284451365471,-0.3913997411727905,-0.06110423803329468
1772649854935730200,3.579730224609375,-0.15860538184642792,-0.29644766449928284,-0.08369290083646774
1772649854945771300,3.589771240234375,-0.30632051825523376,-0.23203246295452118,-0.136070117354393
1772649854955812000,3.59981201171875,-0.42345964908599854,-0.15889300405979156,-0.21133264899253845
1772649854965854500,3.6098544921875,-0.5030062198638916,-0.1007276251912117,-0.3208145499229431
1772649854975895300,3.619895263671875,-0.5471137762069702,-0.11450256407260895,-0.4375861585140228
1772649854985936400,3.629936279296875,-0.5516852736473083,-0.14786458015441895,-0.5007490515708923
1772649854995977500,3.6399775390625,-0.4945037066936493,-0.16304832696914673,-0.4701083302497864
1772649855006018300,3.650018310546875,-0.35716700553894043,-0.14829416573047638,-0.3778219521045685
1772649855016060400,3.660060302734375,-0.1924038827419281,-0.14334174990653992,-0.29729408025741577
1772649855026101200,3.670101318359375,-0.06215229630470276,-0.2060791403055191,-0.25412195920944214
1772649855036142300,3.680142333984375,0.04580533131957054,-0.2830410599708557,-0.250244140625
1772649855046183400,3.690183349609375,0.12789024412631989,-0.37067896127700806,-0.2720177173614502
1772649855056224300,3.700224365234375,0.1659577339887619,-0.47052860260009766,-0.2968226671218872
1772649855066266400,3.710266357421875,0.1455642282962799,-0.5482298135757446,-0.2953628599643707
1772649855076307200,3.72030712890625,0.09119260311126709,-0.5732110738754272,-0.2661679685115814
1772649855086348300,3.730348388671875,0.014658981934189796,-0.5538204908370972,-0.22053654491901398
1772649855096389400,3.740389404296875,-0.07312413305044174,-0.5312347412109375,-0.17282947897911072
1772649855106430200,3.75043017578125,-0.15289297699928284,-0.4875725507736206,-0.16182111203670502
1772649855116472300,3.760472412109375,-0.1795530915260315,-0.4070036709308624,-0.17368656396865845
1772649855126513200,3.77051318359375,-0.16246730089187622,-0.31975603103637695,-0.1438460797071457
1772649855136554200,3.78055419921875,-0.15923236310482025,-0.2541288435459137,-0.1124655157327652
1772649855146595300,3.79059521484375,-0.22445447742938995,-0.24383558332920074,-0.16300873458385468
1772649855156636200,3.80063623046875,-0.24614273011684418,-0.31782591342926025,-0.29869866371154785
1772649855166678300,3.81067822265625,-0.1358046531677246,-0.43726229667663574,-0.4141939580440521
1772649855176719000,3.820718994140625,0.05020809546113014,-0.5349233746528625,-0.5019307136535645
1772649855186760200,3.83076025390625,0.07867555320262909,-0.6866564750671387,-0.4238515794277191
1772649855196801300,3.84080126953125,-0.27801012992858887,-0.9241409301757812,0.1350676268339157
1772649855206842400,3.85084228515625,-0.4753251373767853,-0.4354162812232971,0.8599430918693542
1772649855216884500,3.860884521484375,-0.019771981984376907,0.2253108024597168,1.4543827772140503
1772649855226925300,3.87092529296875,0.34929051995277405,0.19974297285079956,1.729408621788025
1772649855236966400,3.88096630859375,0.42076578736305237,0.05807692930102348,1.7356990575790405
1772649855247007500,3.891007568359375,0.5705694556236267,0.12145370244979858,1.6797488927841187
1772649855257048300,3.90104833984375,0.6803023815155029,0.20959343016147614,1.4384883642196655
1772649855267089400,3.91108935546875,0.5787613987922668,0.1055208146572113,1.0870531797409058
1772649855277131300,3.92113134765625,0.35757923126220703,-0.10707054287195206,0.6642794609069824
1772649855287172400,3.93117236328125,0.04699361324310303,-0.302286833524704,0.19700667262077332
1772649855297213400,3.94121337890625,-0.19509971141815186,-0.26736027002334595,-0.2605323791503906
1772649855307254300,3.951254150390625,-0.264920711517334,-0.038970258086919785,-0.5246286392211914
1772649855317295400,3.96129541015625,-0.24953480064868927,0.14709389209747314,-0.540730893611908
1772649855327337200,3.971337158203125,-0.22627165913581848,0.20844019949436188,-0.48045459389686584
1772649855337378300,3.98137841796875,-0.13522857427597046,0.20336422324180603,-0.3727768659591675
1772649855347419100,3.991419189453125,0.008370019495487213,0.19927872717380524,-0.1595890074968338
1772649855357460200,4.001460205078125,0.18361081182956696,0.2645823657512665,0.11719439923763275
1772649855367501300,4.011501220703125,0.3429131805896759,0.42556032538414,0.3687722384929657
1772649855377543200,4.021543212890625,0.45500269532203674,0.6179018616676331,0.46580955386161804
1772649855387584300,4.031584228515625,0.5032541155815125,0.7244736552238464,0.3839540183544159
1772649855397625000,4.041625,0.5218296647071838,0.7400683164596558,0.2486310750246048
1772649855407666200,4.051666259765625,0.5357564687728882,0.6847594976425171,0.13889621198177338
1772649855417707300,4.061707275390625,0.4992187023162842,0.5850297212600708,0.06993791460990906
1772649855427749400,4.071749267578125,0.40231776237487793,0.43547549843788147,0.014938859269022942
1772649855437790500,4.08179052734375,0.23106800019741058,0.37408965826034546,-0.022944875061511993
1772649855447831300,4.091831298828125,0.10911718010902405,0.3382125496864319,-0.05594510957598686
1772649855457872400,4.101872314453125,-0.020094336941838264,0.2843961715698242,-0.15182903409004211
1772649855467913200,4.111913330078125,-0.221942737698555,0.1897788643836975,-0.3221006691455841
1772649855477955000,4.121955078125,-0.42822694778442383,0.14969909191131592,-0.5005686283111572
1772649855487996200,4.13199609375,-0.5727301239967346,0.19692637026309967,-0.6586939096450806
1772649855498037000,4.142037109375,-0.663123369216919,0.260210245847702,-0.7455505132675171
1772649855508078000,4.152078125,-0.7014974355697632,0.24813483655452728,-0.7328063249588013
1772649855518119200,4.162119140625,-0.6387839913368225,0.19586151838302612,-0.6234303116798401
1772649855528161300,4.172161376953125,-0.4550202786922455,0.19521470367908478,-0.4508081078529358
1772649855538202400,4.182202392578125,-0.23322559893131256,0.23637625575065613,-0.26476478576660156
1772649855548243200,4.1922431640625,-0.019159123301506042,0.2366890162229538,-0.137642040848732
1772649855558284300,4.2022841796875,0.14834359288215637,0.20736095309257507,-0.1131787821650505
1772649855568325400,4.212325439453125,0.23154866695404053,0.1386968195438385,-0.16440024971961975
1772649855578367200,4.2223671875,0.22734485566616058,0.04529523104429245,-0.24183884263038635
1772649855588408300,4.232408203125,0.14600057899951935,-0.04514779523015022,-0.3200966417789459
1772649855598449200,4.24244921875,0.021312449127435684,-0.13112688064575195,-0.3835003674030304
1772649855608490200,4.252490234375,-0.10823466628789902,-0.1995878964662552,-0.4333871603012085
1772649855618531300,4.26253125,-0.18310119211673737,-0.2548101544380188,-0.4627820551395416
1772649855628572200,4.272572265625,-0.2309388965368271,-0.26899880170822144,-0.4642294645309448
1772649855638614300,4.2826142578125,-0.276288241147995,-0.2479132115840912,-0.4340217709541321
1772649855648655000,4.292655029296875,-0.31484439969062805,-0.17869403958320618,-0.3831990361213684
1772649855658696200,4.3026962890625,-0.36323803663253784,-0.033851366490125656,-0.36062368750572205
1772649855668737300,4.3127373046875,-0.42145034670829773,0.05963842198252678,-0.40905997157096863
1772649855678778000,4.322778076171875,-0.49404677748680115,0.09499134868383408,-0.43358927965164185
1772649855688820200,4.3328203125,-0.611787736415863,0.12054459005594254,-0.4646112620830536
1772649855698861000,4.342861083984375,-0.7234165072441101,0.046096980571746826,-0.5374358892440796
1772649855708902100,4.352902099609375,-0.7449005246162415,-0.11255346238613129,-0.579012393951416
1772649855718943200,4.362943115234375,-0.7019155025482178,-0.20769141614437103,-0.5243110656738281
1772649855728984000,4.372984130859375,-0.654436469078064,-0.2599625885486603,-0.38770976662635803
1772649855739026200,4.383026123046875,-0.7552083730697632,-0.343852162361145,-0.21393612027168274
1772649855749067000,4.39306689453125,-0.8844692707061768,-0.14081092178821564,0.45869138836860657
1772649855759108000,4.403108154296875,-0.5891345143318176,0.7501509189605713,1.300081729888916
1772649855769149200,4.413149169921875,0.011825451627373695,1.0017191171646118,1.1233595609664917
1772649855779190000,4.42318994140625,0.22770369052886963,0.12140290439128876,0.7511011362075806
1772649855789231000,4.433231201171875,0.18759776651859283,-0.7428127527236938,0.608951985836029
1772649855799273200,4.443273193359375,0.44638723134994507,-0.7222411632537842,0.4014115333557129
1772649855809314300,4.453314208984375,0.583690881729126,-0.6673632264137268,0.05401981621980667
1772649855819355100,4.463355224609375,0.42517390847206116,-0.8610423803329468,-0.25244876742362976
1772649855829396200,4.473396240234375,0.049015991389751434,-1.0070838928222656,-0.4747791290283203
1772649855839437300,4.483437255859375,-0.21893663704395294,-0.7966984510421753,-0.508199155330658
1772649855849479200,4.493479248046875,-0.29427382349967957,-0.4485694468021393,-0.40712252259254456
1772649855859520300,4.503520263671875,-0.22179138660430908,-0.15367896854877472,-0.26581281423568726
1772649855869561000,4.51356103515625,-0.04343587905168533,0.10937003046274185,-0.04148414731025696
1772649855879602200,4.523602294921875,0.17192862927913666,0.36816805601119995,0.19694679975509644
1772649855889643300,4.533643310546875,0.33526796102523804,0.5567702054977417,0.35178276896476746
1772649855899685000,4.54368505859375,0.43102139234542847,0.6704967617988586,0.41816446185112
1772649855909726200,4.553726318359375,0.5006668567657471,0.7130891680717468,0.42016834020614624
1772649855919767000,4.56376708984375,0.5624935030937195,0.7028898000717163,0.41251522302627563
1772649855929808100,4.57380810546875,0.615561842918396,0.6811848878860474,0.43247923254966736
1772649855939849200,4.58384912109375,0.6643837094306946,0.6775912046432495,0.4671165645122528
1772649855949890000,4.59389013671875,0.6883276700973511,0.6826128363609314,0.46319523453712463
1772649855959932200,4.60393212890625,0.7117094397544861,0.6767954230308533,0.38979372382164
1772649855969973000,4.613972900390625,0.7232469320297241,0.6670482158660889,0.248823344707489
1772649855980014000,4.62401416015625,0.7185456156730652,0.6135103702545166,0.07722416520118713
1772649855990055200,4.63405517578125,0.6696876883506775,0.504480242729187,-0.08061318844556808
1772649856000096000,4.644095947265625,0.5270208120346069,0.3233564794063568,-0.21677662432193756
1772649856010138400,4.654138427734375,0.26267367601394653,0.12818267941474915,-0.3300841748714447
1772649856020179200,4.66417919921875,-0.018993141129612923,0.017255626618862152,-0.3985593616962433
1772649856030220300,4.67422021484375,-0.24202367663383484,0.030965184792876244,-0.42528262734413147
1772649856040261400,4.684261474609375,-0.410015344619751,0.05793821066617966,-0.45418110489845276
1772649856050302200,4.69430224609375,-0.48918259143829346,-0.013658285140991211,-0.5364778637886047
1772649856060344300,4.70434423828125,-0.49752679467201233,-0.09515208005905151,-0.6195712089538574
1772649856070385200,4.71438525390625,-0.4574868679046631,-0.12121132016181946,-0.5989197492599487
1772649856080426200,4.72442626953125,-0.34642186760902405,-0.07669392228126526,-0.4778441786766052
1772649856090467300,4.73446728515625,-0.20114664733409882,0.012048732489347458,-0.30058610439300537
1772649856100508200,4.744508056640625,-0.05779935419559479,0.07930394262075424,-0.12203472852706909
1772649856110550300,4.75455029296875,0.05598539486527443,0.09585835039615631,0.00895531103014946
1772649856120591000,4.764591064453125,0.1233721598982811,0.07271362096071243,0.07877486944198608
1772649856130632200,4.774632080078125,0.13778264820575714,0.03646288439631462,0.09124917536973953
1772649856140673300,4.78467333984375,0.10530459880828857,0.013534664176404476,0.07957547903060913
1772649856150714000,4.794714111328125,0.04872392117977142,0.019857656210660934,0.05570061877369881
1772649856160755200,4.804755126953125,-0.020238367840647697,0.047125499695539474,0.015681831166148186
1772649856170797000,4.814797119140625,-0.07869115471839905,0.07125353068113327,-0.051434680819511414
1772649856180838100,4.824838134765625,-0.12347939610481262,0.07594176381826401,-0.1334962546825409
1772649856190879200,4.834879150390625,-0.17482787370681763,0.05354676768183708,-0.19510862231254578
1772649856200920000,4.844920166015625,-0.24618248641490936,0.05479126423597336,-0.2681625783443451
1772649856210961200,4.854961181640625,-0.34660571813583374,0.011383799836039543,-0.3550128936767578
1772649856221003300,4.865003173828125,-0.42767712473869324,-0.009855974465608597,-0.38420140743255615
1772649856231044400,4.87504443359375,-0.4912944734096527,0.033307891339063644,-0.3001822829246521
1772649856241085200,4.885085205078125,-0.5113989114761353,0.08777725696563721,-0.17405499517917633
1772649856251126300,4.895126220703125,-0.4340752065181732,0.09190788865089417,0.06813649088144302
1772649856261167400,4.90516748046875,-0.5029389262199402,0.20419900119304657,0.20683684945106506
1772649856271208200,4.915208251953125,-0.6575343608856201,-0.20893637835979462,0.06600090116262436
1772649856281250300,4.925250244140625,-0.7334744334220886,-0.039408326148986816,0.4706532955169678
1772649856291291100,4.935291015625,-0.6297382116317749,1.0891104936599731,0.8889369368553162
1772649856301332200,4.945332275390625,0.03974902257323265,1.2070496082305908,0.7943103313446045
1772649856311373300,4.955373291015625,0.4485882520675659,0.3595997989177704,0.7179421782493591
1772649856321414100,4.9654140625,0.4167637526988983,-0.7367421388626099,0.8095117807388306
1772649856331456300,4.975456298828125,0.7400209903717041,-0.999165415763855,1.067252516746521
1772649856341497000,4.9854970703125,0.9576486349105835,-0.8579052090644836,1.1074490547180176
1772649856351538200,4.9955380859375,0.7432212233543396,-0.9648863673210144,0.6610725522041321
1772649856361579300,5.005579345703125,0.4719124734401703,-1.0687991380691528,0.29809701442718506
1772649856371620000,5.0156201171875,0.3539905548095703,-0.7402592301368713,0.07611100375652313
1772649856381661200,5.0256611328125,0.22477157413959503,-0.3625209927558899,-0.24420548975467682
1772649856391703000,5.035703125,0.13358142971992493,-0.1633668839931488,-0.4033796191215515
1772649856401744100,5.045744140625,0.08324556052684784,-0.01244315505027771,-0.22773456573486328
1772649856411785200,5.05578515625,0.034650176763534546,0.16385869681835175,-0.0077457730658352375
1772649856421826000,5.065825927734375,0.01291451882570982,0.2726251482963562,0.07410968095064163
1772649856431867100,5.0758671875,0.09326229244470596,0.38672202825546265,0.14372915029525757
1772649856441909000,5.085908935546875,0.27719563245773315,0.48467761278152466,0.2623423635959625
1772649856451950000,5.0959501953125,0.4736972451210022,0.4886009693145752,0.3313150405883789
1772649856461991200,5.1059912109375,0.619856595993042,0.3550679683685303,0.321931391954422
1772649856472032000,5.116031982421875,0.686119556427002,0.1456550657749176,0.2523877024650574
1772649856482073000,5.126072998046875,0.6967535614967346,-0.08211630582809448,0.17174850404262543
1772649856492115000,5.136114990234375,0.70880526304245,-0.251935213804245,0.11247968673706055
1772649856502156000,5.146156005859375,0.7215229272842407,-0.29915785789489746,0.08771335333585739
1772649856512197000,5.156197021484375,0.7195131778717041,-0.270905464887619,0.040376290678977966
1772649856522238000,5.166238037109375,0.5978394746780396,-0.25788742303848267,-0.11462128162384033
1772649856532279000,5.176279052734375,0.2877575159072876,-0.38752663135528564,-0.40106406807899475
1772649856542320000,5.186320068359375,-0.0920872911810875,-0.4879414141178131,-0.6635180711746216
1772649856552362000,5.196362060546875,-0.41958266496658325,-0.4366069436073303,-0.7539517879486084
1772649856562403000,5.206403076171875,-0.6430026888847351,-0.29592305421829224,-0.688684344291687
1772649856572444000,5.21644384765625,-0.7825268507003784,-0.18313893675804138,-0.5805678367614746
1772649856582485000,5.226485107421875,-0.8126038312911987,-0.18118390440940857,-0.4994940161705017
1772649856592526000,5.236526123046875,-0.7408285140991211,-0.2357083261013031,-0.38167804479599
1772649856602568200,5.246568115234375,-0.5281414985656738,-0.18777063488960266,-0.19277550280094147
1772649856612609000,5.256609130859375,-0.21114300191402435,-0.03192129731178284,0.04826584830880165
1772649856622650000,5.266650146484375,0.02454061433672905,0.09482493251562119,0.2891698181629181
1772649856632691200,5.276691162109375,0.2102038413286209,0.12270022183656693,0.4471356272697449
1772649856642732000,5.28673193359375,0.38084617257118225,0.10067401081323624,0.4927757978439331
1772649856652774100,5.296774169921875,0.5103116035461426,0.02666337974369526,0.4539317786693573
1772649856662815000,5.30681494140625,0.5750879645347595,-0.09916645288467407,0.40802234411239624
1772649856672856000,5.31685595703125,0.56733638048172,-0.24612262845039368,0.4237474203109741
1772649856691683000,5.33568310546875,0.3486568033695221,-0.4069923758506775,0.4746186435222626
1772649856701724200,5.34572412109375,0.15117515623569489,-0.4912252426147461,0.39207369089126587
1772649856711765000,5.355764892578125,-0.024975799024105072,-0.6423689126968384,0.19834333658218384
1772649856721806000,5.36580615234375,-0.18768908083438873,-0.7696869373321533,-0.05342152342200279
1772649856731847200,5.37584716796875,-0.3361119329929352,-0.8686802387237549,-0.27353668212890625
1772649856741889000,5.385888916015625,-0.4973607361316681,-0.9372308254241943,-0.4762740731239319
1772649856751930000,5.39593017578125,-0.640303909778595,-0.9922610521316528,-0.6698601841926575
1772649856761971000,5.405970947265625,-0.7215092778205872,-0.9706071615219116,-0.7535039186477661
1772649856772012000,5.416011962890625,-0.7237177491188049,-0.851856529712677,-0.6274358630180359
1772649856782053000,5.42605322265625,-0.6386960744857788,-0.5556661486625671,-0.35797378420829773
1772649856792095000,5.436094970703125,-0.490180641412735,-0.2458495795726776,-0.07638803124427795
1772649856802136000,5.446135986328125,-0.31687411665916443,-0.14132264256477356,-0.01708769053220749
1772649856812177000,5.456177001953125,-0.34168481826782227,-0.2916185259819031,-0.7892836928367615
1772649856822218000,5.466218017578125,-0.36340558528900146,-0.3622104227542877,-0.2372540682554245
1772649856832258800,5.4762587890625,-0.1933014690876007,1.0870672464370728,0.6937167048454285
1772649856842300000,5.4862998046875,-0.1567000448703766,1.5880498886108398,0.34111499786376953
1772649856852342000,5.496342041015625,0.1457391232252121,0.8428346514701843,0.16234295070171356
1772649856862383000,5.506383056640625,0.41484543681144714,0.055264912545681,0.4421772360801697
1772649856872424200,5.516424072265625,0.5356656312942505,-0.1944456696510315,0.45540881156921387
1772649856882465000,5.526465087890625,0.5464684963226318,-0.1535048931837082,0.03553588688373566
1772649856892506000,5.536506103515625,0.36679700016975403,-0.2584555149078369,-0.2584294378757477
1772649856902548000,5.5465478515625,0.1464843600988388,-0.6372886300086975,-0.41366615891456604
1772649856912589000,5.556589111328125,-0.1430027186870575,-0.8228400349617004,-0.5059756636619568
1772649856922630100,5.566630126953125,-0.38319161534309387,-0.5710186958312988,-0.4714309871196747
1772649856932671000,5.5766708984375,-0.40079978108406067,-0.15938575565814972,-0.3139561414718628
1772649856942712000,5.586712158203125,-0.31582844257354736,0.14855849742889404,-0.10130032896995544
1772649856952754000,5.59675390625,-0.16553325951099396,0.4525927007198334,0.141945943236351
1772649856962795000,5.606794921875,-0.047369334846735,0.6303293704986572,0.23162336647510529
1772649856972836000,5.616836181640625,-0.043331731110811234,0.6892629265785217,0.17757409811019897
1772649856982877000,5.626876953125,-0.07769343256950378,0.7230616211891174,0.07952981442213058
1772649856992918000,5.63691796875,-0.057010751217603683,0.7586319446563721,0.07643347978591919
1772649857002959000,5.646958984375,0.017975077033042908,0.7464134097099304,0.17040923237800598
1772649857013001000,5.6570009765625,0.10648062825202942,0.6652562618255615,0.30279821157455444
1772649857023042000,5.6670419921875,0.22321122884750366,0.555986225605011,0.40219029784202576
1772649857033083000,5.677082763671875,0.316527783870697,0.4632614254951477,0.4427931308746338
1772649857043124000,5.6871240234375,0.37833577394485474,0.3794003427028656,0.41169700026512146
1772649857053165000,5.6971650390625,0.39857447147369385,0.29143062233924866,0.3219054043292999
1772649857063207200,5.707207275390625,0.37279558181762695,0.23889605700969696,0.2270776629447937
1772649857073248300,5.717248291015625,0.30805760622024536,0.24589218199253082,0.11790750175714493
1772649857083289000,5.7272890625,0.22955262660980225,0.23684635758399963,-0.04140077158808708
1772649857093330200,5.737330078125,0.11003635078668594,0.156985342502594,-0.26701873540878296
1772649857103371300,5.747371337890625,-0.06382154673337936,0.030033709481358528,-0.48901498317718506
1772649857113413000,5.7574130859375,-0.2468443661928177,-0.04282744973897934,-0.6592828631401062
1772649857123454200,5.7674541015625,-0.44561564922332764,-0.050584305077791214,-0.7375566363334656
1772649857133495000,5.7774951171875,-0.5939923524856567,-0.019127311185002327,-0.7367278337478638
1772649857143536000,5.7875361328125,-0.6559160351753235,-0.01683584228157997,-0.6811218857765198
1772649857153577200,5.7975771484375,-0.6264604330062866,-0.03422894701361656,-0.5689708590507507
1772649857163619000,5.807619140625,-0.5119237899780273,-0.04945013299584389,-0.4170979857444763
1772649857173660200,5.81766015625,-0.36180514097213745,-0.018979575484991074,-0.25114789605140686
1772649857183701000,5.827700927734375,-0.20837698876857758,0.024331215769052505,-0.058590639382600784
1772649857193742000,5.8377421875,-0.04138852655887604,0.049071718007326126,0.13063254952430725
1772649857203783000,5.847782958984375,0.08020283281803131,0.05575631931424141,0.29734840989112854
1772649857213825000,5.857824951171875,0.1447267085313797,0.038463082164525986,0.39926624298095703
1772649857223866000,5.8678662109375,0.16960132122039795,0.025563742965459824,0.4428060054779053
1772649857233907000,5.877906982421875,0.16160544753074646,0.017561210319399834,0.43817079067230225
1772649857243948000,5.887947998046875,0.11104972660541534,0.022121930494904518,0.403231143951416
1772649857253988900,5.89798876953125,0.05396726354956627,0.016016634181141853,0.34570738673210144
1772649857264030000,5.908030029296875,-0.014334628358483315,0.006372374482452869,0.27674880623817444
1772649857274072000,5.918072021484375,-0.06975607573986053,-0.019676536321640015,0.18143028020858765
1772649857284113200,5.928113037109375,-0.08556967973709106,-0.08613888919353485,0.06990984082221985
1772649857294154200,5.938154296875,-0.13980814814567566,-0.12619604170322418,-0.03971093147993088
1772649857304195000,5.948195068359375,-0.23485256731510162,-0.1464032530784607,-0.14165087044239044
1772649857314236200,5.958236083984375,-0.31701186299324036,-0.20994281768798828,-0.25175875425338745
1772649857324278000,5.968278076171875,-0.39119598269462585,-0.3415108323097229,-0.33167722821235657
1772649857334319000,5.978319091796875,-0.36468902230262756,-0.4703865349292755,-0.3132705092430115
1772649857344360200,5.988360107421875,-0.49845996499061584,-0.5342180728912354,-0.9448591470718384
1772649857354401000,5.998401123046875,-0.21411240100860596,-0.9377285242080688,-1.2487995624542236
1772649857364442000,6.008442138671875,0.3489692807197571,-0.1292712539434433,-0.08112236112356186
1772649857374484000,6.01848388671875,0.18192674219608307,0.5249595642089844,0.4479537308216095
1772649857384525000,6.028525146484375,-0.03506065905094147,0.14954707026481628,0.2956022322177887
1772649857394566100,6.038566162109375,0.012472241185605526,-0.12083542346954346,0.14511500298976898
1772649857404607000,6.04860693359375,0.11314655095338821,-0.21981021761894226,-0.043190326541662216
1772649857414648000,6.05864794921875,0.1127779632806778,-0.15247565507888794,-0.3152865469455719
1772649857424690000,6.06868994140625,0.06216440349817276,0.16434891521930695,-0.3227597773075104
1772649857434731000,6.07873095703125,-0.08284898102283478,0.2702029049396515,-0.3686268627643585
1772649857444772000,6.088772216796875,-0.29131627082824707,0.08440441638231277,-0.5299007296562195
1772649857454813000,6.09881298828125,-0.4515610635280609,-0.18726544082164764,-0.5028137564659119
1772649857464854000,6.10885400390625,-0.4199938476085663,-0.2953339219093323,-0.22230032086372375
1772649857474896400,6.118896484375,-0.24909213185310364,-0.2298247069120407,0.04119949787855148
1772649857484937500,6.1289375,-0.0871276706457138,-0.10943371802568436,0.22768662869930267
1772649857494978300,6.138978271484375,0.08694132417440414,0.12093797326087952,0.34017908573150635
1772649857505019400,6.149019287109375,0.1799410581588745,0.36184534430503845,0.35553207993507385
1772649857515060500,6.159060546875,0.20620329678058624,0.47055503726005554,0.2106742262840271
1772649857525102300,6.169102294921875,0.18528376519680023,0.5136393904685974,0.014473719522356987
1772649857535143400,6.179143310546875,0.19871434569358826,0.599452018737793,-0.07215385138988495
1772649857545184300,6.189184326171875,0.28061798214912415,0.6953331828117371,0.00319811818189919
1772649857555225300,6.199225341796875,0.3599977493286133,0.7556442022323608,0.17334827780723572
1772649857565266400,6.209266357421875,0.4029509127140045,0.7555400729179382,0.33624306321144104
1772649857575308300,6.219308349609375,0.4751763641834259,0.7095419764518738,0.3956320881843567
1772649857585349400,6.229349365234375,0.5530237555503845,0.6271275281906128,0.3718549609184265
1772649857595390200,6.23939013671875,0.6232539415359497,0.5033382177352905,0.2905544936656952
1772649857605431300,6.249431396484375,0.6168975830078125,0.3029240667819977,0.16681674122810364
1772649857615472400,6.259472412109375,0.5190761685371399,0.058453094214200974,0.07798299938440323
1772649857625514500,6.269514404296875,0.414020299911499,-0.10747356712818146,0.07541494816541672
1772649857635555600,6.2795556640625,0.3500746190547943,-0.15490871667861938,0.09797511994838715
1772649857645596400,6.289596435546875,0.3372948169708252,-0.1424814760684967,0.09547702223062515
1772649857655637500,6.299637451171875,0.3571132719516754,-0.0750339925289154,0.11418280005455017
1772649857665678600,6.3096787109375,0.28841447830200195,0.00370135810226202,0.12485432624816895
1772649857675720400,6.319720458984375,0.157619446516037,0.06179875135421753,0.08243363350629807
1772649857685761500,6.329761474609375,-0.03834913671016693,0.10257069021463394,-0.028515418991446495
1772649857695802400,6.33980224609375,-0.2633329927921295,0.1363595426082611,-0.18281018733978271
1772649857705843500,6.349843505859375,-0.46496668457984924,0.1020408496260643,-0.33528223633766174
1772649857715884500,6.359884521484375,-0.613949179649353,-0.04483247920870781,-0.47835683822631836
1772649857725926400,6.369926513671875,-0.5882972478866577,-0.26747527718544006,-0.6025394797325134
1772649857735967500,6.379967529296875,-0.4944937825202942,-0.2835695743560791,-0.5195900201797485
1772649857746008300,6.39000830078125,-0.35824310779571533,-0.22309640049934387,-0.34821027517318726
1772649857756049400,6.40004931640625,-0.19152387976646423,-0.14503782987594604,-0.17066161334514618
1772649857766090500,6.410090576171875,-0.0016920433845371008,-0.006123441271483898,-0.04483006149530411
1772649857776132400,6.42013232421875,0.17975977063179016,0.12305159121751785,0.05779698118567467
1772649857786173400,6.43017333984375,0.3089742362499237,0.18346379697322845,0.18405798077583313
1772649857796214300,6.44021435546875,0.36416423320770264,0.2101963460445404,0.2615903317928314
1772649857806255400,6.45025537109375,0.35055193305015564,0.2320912778377533,0.270160436630249
1772649857816296400,6.46029638671875,0.29641997814178467,0.2589697539806366,0.21669481694698334
1772649857826337300,6.470337158203125,0.21073086559772491,0.2810914218425751,0.12140100449323654
1772649857836379600,6.480379638671875,0.11539767682552338,0.2946796715259552,0.00432711374014616
1772649857846420500,6.49042041015625,0.008565900847315788,0.2809603214263916,-0.11303993314504623
1772649857856461600,6.500461669921875,-0.0782877653837204,0.25636792182922363,-0.2027042955160141
1772649857866502400,6.51050244140625,-0.16079360246658325,0.2565701901912689,-0.21911188960075378
1772649857876544500,6.52054443359375,-0.22239172458648682,0.27203649282455444,-0.1602054387331009
1772649857886585600,6.530585693359375,-0.2521982789039612,0.33598896861076355,-0.0801781564950943
1772649857896626400,6.54062646484375,-0.3005855083465576,0.39999058842658997,-0.14641177654266357
1772649857906667500,6.55066748046875,-0.3311159908771515,0.30717703700065613,-0.34685778617858887
1772649857916708400,6.560708251953125,-0.26723021268844604,0.14500649273395538,-0.533941388130188
1772649857926750500,6.57075048828125,-0.1904347836971283,0.08083096891641617,-0.6719666719436646
1772649857936791300,6.580791259765625,-0.2630471885204315,-0.09347851574420929,-0.8357851505279541
1772649857946832400,6.590832275390625,-0.5980796813964844,-0.8034307956695557,-0.8007901310920715
1772649857956873500,6.60087353515625,-0.6422058343887329,-0.7873317003250122,-0.02953307144343853
1772649857966914300,6.610914306640625,-0.15768739581108093,-0.1469774842262268,0.4752710461616516
1772649857976956400,6.620956298828125,0.16354762017726898,-0.018968654796481133,0.5264232158660889
1772649857986997200,6.630997314453125,0.3127211928367615,-0.518313467502594,0.39103737473487854
1772649857997038300,6.641038330078125,0.36391887068748474,-1.1053524017333984,0.4132215082645416
1772649858007079400,6.651079345703125,0.39936789870262146,-1.1492379903793335,0.3924615681171417
1772649858017120300,6.661120361328125,0.4358944892883301,-0.8550369739532471,0.2738124132156372
1772649858027162400,6.671162353515625,0.3845815658569336,-0.5732585191726685,0.21142974495887756
1772649858037203200,6.681203125,0.17890724539756775,-0.42122557759284973,0.08745533972978592
1772649858047244500,6.69124462890625,0.019575070589780807,-0.22229129076004028,0.03369026258587837
1772649858057285600,6.70128564453125,0.034373991191387177,0.016639532521367073,0.03847756236791611
1772649858067326500,6.711326416015625,0.12314795702695847,0.1676846593618393,0.08633405715227127
1772649858077368600,6.72136865234375,0.298329621553421,0.1325940489768982,0.09503940492868423
1772649858087409400,6.731409423828125,0.4176236093044281,0.03447765111923218,0.11066284030675888
1772649858097450500,6.741450439453125,0.4996638894081116,-0.09331493079662323,0.2421036958694458
1772649858107491600,6.75149169921875,0.43788406252861023,-0.229874849319458,0.4037787616252899
1772649858117532400,6.761532470703125,0.3001384437084198,-0.24248677492141724,0.4977518618106842
1772649858127574500,6.771574462890625,0.13850651681423187,-0.1111980602145195,0.5341757535934448
1772649858137615400,6.781615478515625,0.01712922379374504,0.07890183478593826,0.518247127532959
1772649858147656400,6.791656494140625,-0.007960611023008823,0.1782025396823883,0.5417869091033936
1772649858157697500,6.801697509765625,0.030637115240097046,0.21733209490776062,0.6496603488922119
1772649858167738400,6.81173828125,0.07500844448804855,0.25368669629096985,0.7949647903442383
1772649858177780500,6.821780517578125,0.12269154191017151,0.2703077495098114,0.8940660357475281
1772649858187821300,6.8318212890625,0.1896582692861557,0.30039042234420776,0.9525409936904907
1772649858197862400,6.8418623046875,0.2833980619907379,0.3451174199581146,1.00496506690979
1772649858207903500,6.851903564453125,0.3727038502693176,0.3691362142562866,1.0576119422912598
1772649858217944300,6.8619443359375,0.4061800539493561,0.4144722819328308,1.0679335594177246
1772649858227986400,6.871986328125,0.3699776828289032,0.45966029167175293,0.9827940464019775
1772649858238027300,6.88202734375,0.2679498791694641,0.38779330253601074,0.7533196210861206
1772649858248068400,6.892068359375,0.0865541622042656,0.2507079541683197,0.4404025673866272
1772649858258109400,6.902109375,-0.12284459918737411,0.018335439264774323,0.14798668026924133
1772649858268150300,6.912150390625,-0.31829389929771423,-0.14756320416927338,-0.1301831752061844
1772649858278192600,6.922192626953125,-0.4688565135002136,-0.2926860451698303,-0.3488862216472626
1772649858288233500,6.9322333984375,-0.5825330018997192,-0.3979913294315338,-0.4725859761238098
1772649858298274600,6.942274658203125,-0.65217524766922,-0.49610698223114014,-0.5043939352035522
1772649858308315400,6.9523154296875,-0.6511973738670349,-0.5705751776695251,-0.43383538722991943
1772649858318356500,6.9623564453125,-0.5477069616317749,-0.5775737166404724,-0.26646238565444946
1772649858328398600,6.972398681640625,-0.3453587293624878,-0.541226863861084,-0.061145324259996414
1772649858338439400,6.982439453125,-0.09527327120304108,-0.48665550351142883,0.10994759202003479
1772649858348480500,6.99248046875,0.08048074692487717,-0.38692304491996765,0.22918926179409027
1772649858358521300,7.002521240234375,0.15683835744857788,-0.30973875522613525,0.3013891577720642
1772649858368562400,7.0125625,0.18589426577091217,-0.24913541972637177,0.3348269462585449
1772649858378604300,7.022604248046875,0.17625150084495544,-0.20142409205436707,0.330822616815567
1772649858388645400,7.032645263671875,0.11991840600967407,-0.14314575493335724,0.28322094678878784
1772649858398686500,7.0426865234375,0.014729403890669346,-0.039605509489774704,0.1746382713317871
1772649858408727300,7.052727294921875,-0.1275215744972229,0.01862752065062523,0.03443041443824768
1772649858418768400,7.062768310546875,-0.2739719748497009,-0.014243076555430889,-0.10442307591438293
1772649858428810200,7.072810302734375,-0.40472713112831116,-0.04987111687660217,-0.24296677112579346
1772649858438851300,7.082851318359375,-0.5334992408752441,0.015126790851354599,-0.5112094283103943
1772649858448892400,7.092892333984375,-0.6265252828598022,0.031905245035886765,-0.7739526629447937
1772649858458933200,7.102933349609375,-0.6589809656143188,0.07731880247592926,-0.869642972946167
1772649858468973600,7.1129736328125,-0.6431788802146912,0.3429572582244873,-0.8387548923492432
1772649858479015700,7.123015625,-0.5863581895828247,0.6410890817642212,-0.7507169246673584
1772649858489056500,7.133056396484375,-0.5038703083992004,0.8304153084754944,-0.678716242313385
1772649858499097600,7.14309765625,-0.4071648120880127,0.949022650718689,-0.5549200177192688
1772649858509138700,7.153138671875,-0.4732986390590668,0.8781657218933105,-0.48264679312705994
1772649858519179500,7.163179443359375,-0.7450872659683228,0.7836579084396362,-0.3139147460460663
1772649858529222000,7.173221923828125,-0.6333745121955872,1.3065491914749146,0.149314284324646
1772649858539262700,7.1832626953125,-0.16133266687393188,1.7946581840515137,0.2752719521522522
1772649858549303800,7.1933037109375,0.17604495584964752,1.7875914573669434,0.08395881950855255
1772649858559345000,7.203344970703125,0.2526516020298004,1.3850607872009277,0.07352562248706818
1772649858569385700,7.2133857421875,0.23492595553398132,0.848174512386322,0.11712051182985306
1772649858579427800,7.223427734375,0.18209309875965118,0.4267314374446869,-0.030094241723418236
1772649858589468700,7.23346875,-0.008026963099837303,0.06553524732589722,-0.29056182503700256
1772649858599509800,7.243509765625,-0.23619595170021057,-0.20877034962177277,-0.42858362197875977
1772649858609550600,7.253550537109375,-0.49317771196365356,-0.2945629954338074,-0.45672252774238586
1772649858619591700,7.263591796875,-0.6969262957572937,-0.27360817790031433,-0.46389254927635193
1772649858629633800,7.2736337890625,-0.7328764796257019,-0.14641989767551422,-0.3708721697330475
1772649858639674600,7.283674560546875,-0.6320204734802246,0.0008337302133440971,-0.24113014340400696
1772649858649715700,7.2937158203125,-0.38268008828163147,0.0635688304901123,-0.10393711924552917
1772649858659756500,7.303756591796875,-0.11182621121406555,0.07233888655900955,0.037576865404844284
1772649858669797600,7.313797607421875,0.06886926293373108,-0.013039398938417435,0.10482966899871826
1772649858679839500,7.323839599609375,0.18540386855602264,-0.06339311599731445,0.195072740316391
1772649858689880600,7.333880615234375,0.26127779483795166,0.04788452386856079,0.3421398997306824
1772649858699921700,7.343921630859375,0.315756231546402,0.23771092295646667,0.469116747379303
1772649858709962500,7.35396240234375,0.3890269100666046,0.36399412155151367,0.6069766879081726
1772649858720003600,7.364003662109375,0.48929092288017273,0.4520813524723053,0.7570125460624695
1772649858730045700,7.374045654296875,0.6387017965316772,0.4656050205230713,0.9015530347824097
1772649858740086800,7.384086669921875,0.8284157514572144,0.47021546959877014,0.9971082806587219
1772649858750127900,7.3941279296875,1.006882667541504,0.3974386155605316,1.0198441743850708
1772649858760168700,7.404168701171875,1.1364079713821411,0.28463244438171387,0.9957649111747742
1772649858770210800,7.4142109375,1.1707353591918945,0.1942044049501419,0.9277529120445251
1772649858780251600,7.424251708984375,1.1198375225067139,0.10084515810012817,0.7814441919326782
1772649858790292700,7.434292724609375,0.9472066164016724,0.03164199739694595,0.5373206734657288
1772649858800333800,7.444333740234375,0.6494020819664001,-0.05516533553600311,0.2723829746246338
1772649858810374700,7.454374755859375,0.27820244431495667,-0.17075911164283752,-0.03648998588323593
1772649858820415700,7.464415771484375,-0.09702443331480026,-0.2535243034362793,-0.39341697096824646
1772649858830457600,7.47445751953125,-0.37150996923446655,-0.3338489234447479,-0.7381008267402649
1772649858840498700,7.484498779296875,-0.5792911052703857,-0.47208747267723083,-1.0417598485946655
1772649858850539800,7.494539794921875,-0.7076572179794312,-0.5971249341964722,-1.2057719230651855
1772649858860580600,7.50458056640625,-0.7171229124069214,-0.6439800262451172,-1.157547950744629
1772649858870621700,7.51462158203125,-0.5883697271347046,-0.6374759674072266,-0.9412493109703064
1772649858880663600,7.52466357421875,-0.38950619101524353,-0.5820353031158447,-0.6485716700553894
1772649858890704600,7.53470458984375,-0.22151188552379608,-0.49462181329727173,-0.4104415476322174
1772649858900745700,7.544745849609375,-0.11875888705253601,-0.4523894190788269,-0.2659567892551422
1772649858910786600,7.55478662109375,-0.05278423801064491,-0.44953852891921997,-0.19843657314777374
1772649858920828700,7.56482861328125,-0.04252094775438309,-0.48662492632865906,-0.16290147602558136
1772649858930869500,7.574869384765625,-0.07898912578821182,-0.5022497773170471,-0.15592315793037415
1772649858940910600,7.58491064453125,-0.12112884968519211,-0.4875353276729584,-0.1870986521244049
1772649858950951700,7.59495166015625,-0.15947479009628296,-0.4612370431423187,-0.2228078991174698
1772649858960992500,7.604992431640625,-0.18435724079608917,-0.4192887842655182,-0.2373913675546646
1772649858971035000,7.615034912109375,-0.17783942818641663,-0.34902000427246094,-0.22815930843353271
1772649858981075700,7.62507568359375,-0.14749003946781158,-0.2403598427772522,-0.19083189964294434
1772649858991116800,7.63511669921875,-0.11109716445207596,-0.11902695149183273,-0.14266829192638397
1772649859001158000,7.645157958984375,-0.031873445957899094,0.00028160068904981017,-0.10289877653121948
1772649859011198700,7.65519873046875,0.04727635160088539,0.11797401309013367,-0.09529650211334229
1772649859021240800,7.66524072265625,0.07778233289718628,0.12694913148880005,-0.16194850206375122
1772649859031281700,7.67528173828125,0.0977141261100769,0.02193116396665573,-0.31701648235321045
1772649859041322800,7.68532275390625,0.13941097259521484,-0.1958874613046646,-0.516406238079071
1772649859051363600,7.695363525390625,0.16619393229484558,-0.40160518884658813,-0.6866177916526794
1772649859061404700,7.70540478515625,0.22414778172969818,-0.5909372568130493,-0.7346732020378113
1772649859071445800,7.71544580078125,0.21091532707214355,-0.9014769792556763,-0.9361234307289124
1772649859081487600,7.725487548828125,-0.296003520488739,-1.6603080034255981,-1.3098241090774536
1772649859091528700,7.73552880859375,-0.6003163456916809,-1.4515106678009033,-1.1650159358978271
1772649859101569500,7.745569580078125,-0.555704653263092,-0.29223355650901794,-0.1988798826932907
1772649859111610600,7.755610595703125,-0.13177621364593506,0.7575997114181519,0.7729908227920532
1772649859121651700,7.765651611328125,0.24049057066440582,0.7050608396530151,1.0527074337005615
1772649859131693600,7.775693603515625,0.2065102607011795,0.5083487629890442,0.9277723431587219
1772649859141734700,7.785734619140625,0.2262570559978485,0.5563437342643738,0.796635091304779
1772649859151775500,7.795775390625,0.321198433637619,0.6407341957092285,0.6668967604637146
1772649859161816600,7.805816650390625,0.2611769139766693,0.5835465788841248,0.5134579539299011
1772649859171857700,7.815857666015625,-0.11907324939966202,0.3450208902359009,0.27700504660606384
1772649859181899800,7.825899658203125,-0.43483811616897583,0.06286696344614029,0.11374581605195999
1772649859191940900,7.83594091796875,-0.47967448830604553,-0.16049107909202576,0.023152628913521767
1772649859201981700,7.845981689453125,-0.30573704838752747,-0.2841605544090271,0.06698506325483322
1772649859212022800,7.856022705078125,-0.10299526154994965,-0.3950504660606384,0.13781903684139252
1772649859222063900,7.86606396484375,0.11929160356521606,-0.5981556177139282,0.23068906366825104
1772649859232105700,7.876105712890625,0.2855171263217926,-0.7764871120452881,0.3599129915237427
1772649859242146800,7.886146728515625,0.3599652647972107,-0.8169437050819397,0.4617610573768616
1772649859252187600,7.896187744140625,0.317715048789978,-0.7290915250778198,0.534417986869812
1772649859262228700,7.906228759765625,0.22216163575649261,-0.5308029055595398,0.5947444438934326
1772649859272269800,7.916269775390625,0.12992841005325317,-0.2644630968570709,0.6217369437217712
1772649859282311700,7.926311767578125,0.07894910871982574,-0.01865786500275135,0.63222736120224
1772649859292352800,7.936352783203125,0.0468812994658947,0.1952533721923828,0.6517452597618103
1772649859302393600,7.9463935546875,0.053954921662807465,0.36134034395217896,0.6789941787719727
1772649859312434700,7.9564345703125,0.13302497565746307,0.456432968378067,0.7172203660011292
1772649859322475800,7.966475830078125,0.24489744007587433,0.5214908123016357,0.7608003616333008
1772649859332517600,7.976517578125,0.35738757252693176,0.5962275266647339,0.7758936285972595
1772649859342558700,7.986558837890625,0.43941906094551086,0.7062211632728577,0.7318697571754456
1772649859352599600,7.996599609375,0.4355020821094513,0.7681741714477539,0.6237831711769104
1772649859362640600,8.006640625,0.30217838287353516,0.7243905067443848,0.4000672996044159
1772649859372681700,8.016681640625,0.01290956325829029,0.6210387349128723,0.1086108535528183
1772649859382723600,8.0267236328125,-0.35838115215301514,0.5162558555603027,-0.2701228857040405
1772649859392764700,8.0367646484375,-0.665026843547821,0.4942820072174072,-0.5807235240936279
1772649859402805500,8.046805419921874,-0.8292807340621948,0.5751821398735046,-0.7906463742256165
1772649859412846600,8.0568466796875,-0.8737950325012207,0.6421610713005066,-0.9071765542030334
1772649859422887700,8.0668876953125,-0.7976118326187134,0.5743021368980408,-0.9211192727088928
1772649859432929800,8.0769296875,-0.5962143540382385,0.5166821479797363,-0.7999014854431152
1772649859442971000,8.086970947265625,-0.2804901897907257,0.5492092370986938,-0.5054234862327576
1772649859453011700,8.09701171875,0.031097516417503357,0.6990461945533752,-0.08819960057735443
1772649859463052800,8.107052734375,0.2903224229812622,0.8812335729598999,0.28855887055397034
1772649859473093600,8.11709375,0.5230768918991089,0.9878664612770081,0.47433799505233765
1772649859483135700,8.1271357421875,0.6279311180114746,0.9303946495056152,0.49632716178894043
1772649859493176600,8.137176513671875,0.7738021612167358,0.8524278402328491,0.4668044149875641
1772649859503217700,8.1472177734375,0.6291187405586243,0.6336137056350708,0.38682809472084045
1772649859513258800,8.1572587890625,0.4141876697540283,0.5374237298965454,0.3164044916629791
1772649859523299600,8.167299560546875,0.1951512098312378,0.46409088373184204,0.2550481855869293
1772649859533342000,8.177342041015624,0.02077939361333847,0.23947621881961823,0.284670352935791
1772649859543382800,8.1873828125,0.024226589128375053,0.1805924028158188,0.3871554434299469
1772649859553424000,8.197423828125,-0.0007407080847769976,0.19580648839473724,0.3526730239391327
1772649859563465000,8.20746484375,-0.04479898139834404,0.16881242394447327,0.25961577892303467
1772649859573505800,8.217505859375,-0.030057430267333984,0.19673854112625122,0.1089051365852356
1772649859583548000,8.2275478515625,0.002168150618672371,0.24824008345603943,-0.21439330279827118
1772649859593588700,8.237588623046875,-0.006493507418781519,0.08141601830720901,-0.5087918639183044
1772649859603629800,8.2476298828125,-0.09145420044660568,-0.15504951775074005,-0.6962507367134094
1772649859613671000,8.2576708984375,-0.0753059983253479,-0.4773261845111847,-0.6743050813674927
1772649859623711700,8.267711669921875,-0.06491141766309738,-0.97578364610672,-0.4314554035663605
1772649859633752800,8.2777529296875,-0.16456946730613708,-1.061694860458374,0.11888056993484497
1772649859643794700,8.287794677734375,-0.007916468195617199,-0.6850921511650085,0.5417471528053284
1772649859653835800,8.297835693359374,0.3140137791633606,-0.31292662024497986,0.527036190032959
1772649859663876900,8.307876953125,0.4692915081977844,-0.30362847447395325,0.4669094383716583
1772649859673917700,8.317917724609375,0.461061030626297,-0.5462693572044373,0.4672452211380005
1772649859683958800,8.327958740234376,0.3726406395435333,-0.6413804292678833,0.5252494215965271
1772649859694000600,8.338000732421875,0.24301879107952118,-0.5537626147270203,0.5845849514007568
1772649859704041700,8.348041748046874,0.07098391652107239,-0.3792209029197693,0.5824064612388611
1772649859714082800,8.358082763671876,-0.1135154664516449,-0.19377493858337402,0.48815402388572693
1772649859724123600,8.36812353515625,-0.23641929030418396,0.03284142166376114,0.41297218203544617
1772649859734164700,8.378164794921876,-0.2625918686389923,0.2634880840778351,0.3927052319049835
1772649859744206800,8.388206787109375,-0.16638733446598053,0.46018359065055847,0.38642656803131104
1772649859754248000,8.398248046875,0.04054398462176323,0.6436007022857666,0.416623592376709
1772649859764289000,8.4082890625,0.22759056091308594,0.801362156867981,0.4277718663215637
1772649859774329900,8.418329833984375,0.3210969865322113,0.8048179149627686,0.3831331729888916
1772649859784371000,8.428370849609376,0.29381904006004333,0.6651961207389832,0.2862044870853424
1772649859794412800,8.438412841796875,0.19625161588191986,0.42954301834106445,0.16904889047145844
1772649859804454000,8.448453857421875,0.08110131323337555,0.17042331397533417,0.05360832065343857
1772649859814495000,8.458494873046876,-0.01759784296154976,0.0247671939432621,-0.008009383454918861
1772649859824535800,8.468535888671875,-0.0979137197136879,-0.06176130101084709,-0.039913251996040344
1772649859834577000,8.478576904296874,-0.15488895773887634,-0.12465773522853851,-0.04045294597744942
1772649859844618800,8.48861865234375,-0.1871720552444458,-0.18842898309230804,-0.011362969875335693
1772649859854659800,8.498659912109375,-0.1646650731563568,-0.20548012852668762,0.03956349566578865
1772649859864700700,8.50870068359375,-0.09660293906927109,-0.20085129141807556,0.10808183252811432
1772649859874741800,8.51874169921875,-0.022784357890486717,-0.19854985177516937,0.17555800080299377
1772649859884782800,8.528782958984374,0.04807144030928612,-0.17143727838993073,0.21247953176498413
1772649859894824700,8.53882470703125,0.09335957467556,-0.1510828137397766,0.2051754742860794
1772649859904865800,8.54886572265625,0.0960720032453537,-0.13225612044334412,0.18264912068843842
1772649859914906600,8.55890673828125,0.057406771928071976,-0.1127668246626854,0.15557527542114258
1772649859924947700,8.56894775390625,0.0004369635134935379,-0.07656088471412659,0.135407954454422
1772649859934988800,8.57898876953125,-0.14260461926460266,-0.12393353879451752,0.48066914081573486
1772649859945029600,8.589029541015625,-0.2419477254152298,-0.07480274140834808,0.7308052182197571
1772649859955071700,8.59907177734375,-0.24429164826869965,-0.026811186224222183,0.3849864602088928
1772649859965112600,8.609112548828126,-0.23488828539848328,-0.04338323697447777,0.09132234752178192
1772649859975154000,8.61915380859375,-0.2118997573852539,0.009092084132134914,-0.20489197969436646
1772649859985195000,8.629195068359374,-0.17942383885383606,0.06726297736167908,-0.3668110966682434
1772649859995235800,8.63923583984375,-0.13332921266555786,0.11352209746837616,-0.47771406173706055
1772649860005278000,8.64927783203125,-0.10064955800771713,0.1504119485616684,-0.5049651265144348
1772649860015318800,8.65931884765625,-0.12873587012290955,0.13659705221652985,-0.45251592993736267
1772649860025360000,8.66935986328125,-0.17571163177490234,0.08241397142410278,-0.3297535181045532
1772649860035401000,8.67940087890625,-0.14819128811359406,0.04202333465218544,-0.17128410935401917
1772649860045441800,8.68944189453125,-0.12178817391395569,0.04046831652522087,-0.062477193772792816
1772649860055484000,8.69948388671875,-0.10557889938354492,0.05328492075204849,-0.01047426462173462
1772649860065524700,8.709524658203126,-0.09902086853981018,0.06559218466281891,0.023728447034955025
1772649860075565800,8.71956591796875,-0.08766551315784454,0.07628510892391205,0.05375523120164871
1772649860085607000,8.72960693359375,-0.06557699292898178,0.07497270405292511,0.0725795179605484
1772649860095647700,8.739647705078125,-0.029556328430771828,0.09643140435218811,0.08142510801553726
1772649860105688800,8.749688720703125,0.001778424484655261,0.12346834689378738,0.09296964854001999
1772649860115730700,8.759730712890626,0.02379353903234005,0.1529933512210846,0.10638829320669174
1772649860125771800,8.769771728515625,0.02366650477051735,0.17626245319843292,0.12333718687295914
1772649860135812900,8.779812744140624,0.024073071777820587,0.18826857209205627,0.15367795526981354
1772649860145853700,8.789853759765625,0.04207390919327736,0.21160346269607544,0.18946045637130737
1772649860155894800,8.799894775390625,0.058363281190395355,0.23565459251403809,0.2160467803478241
1772649860165936600,8.8099365234375,0.06055905669927597,0.24883325397968292,0.20924532413482666
1772649860175977700,8.819977783203125,0.052891913801431656,0.2528742551803589,0.17657189071178436
1772649860186018800,8.830018798828124,0.04293195903301239,0.25534993410110474,0.1253281533718109
1772649860196059600,8.8400595703125,0.026843516156077385,0.24638661742210388,0.07290869206190109
1772649860206100700,8.850100830078125,-0.04059943929314613,0.1417294442653656,0.3290283679962158
1772649860216142800,8.860142822265624,-0.09302815049886703,0.0799793154001236,0.541230320930481
1772649860226184000,8.870183837890625,-0.08356567472219467,0.061934538185596466,0.30419883131980896
1772649860236224800,8.880224853515625,-0.04623500630259514,0.06374888867139816,0.18004187941551208
1772649860246265900,8.890265869140626,-0.0112583814188838,0.1317252665758133,-0.04807332158088684
1772649860256307000,8.900306884765625,-0.006480064708739519,0.19817879796028137,-0.22108864784240723
1772649860266347800,8.91034765625,-0.0035338099114596844,0.2590373456478119,-0.371807336807251
1772649860276390000,8.920389892578125,-0.022110138088464737,0.2620202898979187,-0.40371525287628174
1772649860286430700,8.9304306640625,-0.050855498760938644,0.17673549056053162,-0.2542453408241272
1772649860296471800,8.940471923828126,-0.11388058960437775,0.07947390526533127,-0.13899379968643188
