time,seconds_elapsed,z,y,x
1772642686008479700,0.056479736328125,0.031281565709412096,-0.0857902777493,0.034831805536895986
1772642686018520800,0.066520751953125,0.013560323318839072,-0.07725158198475837,0.012865472922474145
1772642686028562700,0.076562744140625,0.028256080408394335,-0.06075812782347202,0.01715440228804946
1772642686038603800,0.086603759765625,0.023063187940418717,-0.040776831546425814,-0.003777472712099552
1772642686048645600,0.096645751953125,0.012334288655221461,-0.03264496301710605,0.009918898076564073
1772642686058686700,0.106686767578125,0.020457097095251082,-0.02204699663519859,-0.004032178125530481
1772642686068727800,0.116727783203125,0.03953881418406963,-0.045616672793030735,0.013990531429648399
1772642686078769700,0.126769775390625,0.06284224062114954,-0.05025719207525253,0.01579524276405573
1772642686088810800,0.136810791015625,0.046883623988926405,-0.05866670850217342,-0.008094751389324665
1772642686098852900,0.146852783203125,0.03888385740667581,-0.052312955561280246,0.007723579989373683
1772642686108894000,0.15689404296875,0.034281039786338806,-0.03306815686523914,0.01360723120048642
1772642686118935800,0.166935791015625,0.028284721980988976,-0.04087210861444473,0.008716974940896034
1772642686128977000,0.176976806640625,0.017886662085354325,-0.05371580809652805,0.02169175345674157
1772642686139017700,0.187017822265625,0.019501403805613517,-0.04444295283854007,0.014425561846047638
1772642686149059800,0.197059814453125,0.03188157742917538,-0.03370353215932846,0.006717033295333385
1772642686159100700,0.2071005859375,0.033384675468504425,-0.04666530506312847,-0.007733809122443198
1772642686169142800,0.217142822265625,0.05842062478661537,-0.06818857008516788,0.011747574808448553
1772642686179183600,0.22718359375,0.04770926115810871,-0.07355857268571853,0.005417495004087686
1772642686189224700,0.237224609375,0.04460632670670747,-0.08469254564046859,0.014306319380551576
1772642686199266600,0.2472666015625,0.04309738344848156,-0.06717910078167914,-0.009646364745497703
1772642686209307600,0.2573076171875,0.06455898141115904,-0.05272328992784023,-0.01855097121298313
1772642686219349800,0.267349853515625,0.09147767573595046,-0.02441080315709114,-0.03534837675690651
1772642686229390800,0.277390869140625,0.07184124737381935,-0.006694529202580452,-0.048110973826795814
1772642686239432000,0.287431884765625,0.054389761835336684,0.015035072046518326,-0.06660553867742419
1772642686249473800,0.297473876953125,0.005436930356919765,-0.0026718495577573776,-0.07558788655623794
1772642686259515000,0.307514892578125,-0.000789104551076889,-0.018688333857059477,-0.06176818164885044
1772642686269556700,0.317556640625,-0.021662965753674508,-0.03228782014250755,-0.02021115951016545
1772642686279597800,0.327597900390625,-0.00571077886223793,-0.06392506742179394,0.007663081973791122
1772642686289639700,0.3376396484375,0.02405775193572044,-0.06701835726201534,0.03241217717453837
1772642686299680800,0.3476806640625,0.026932430589199065,-0.07963584677278995,0.04209375936388969
1772642686309721600,0.3577216796875,0.023883856673538685,-0.0707499450057745,0.05467267042994499
1772642686319763700,0.367763671875,0.04676028987020254,-0.055423196536302566,0.053352966133505104
1772642686329804500,0.377804443359375,0.03517857314795256,-0.04443886118531227,0.04956862528920173
1772642686339847000,0.387846923828125,0.03229395762234926,-0.044319618719816205,0.06268208162337541
1772642686349887700,0.3978876953125,0.0234931037902832,-0.0351525619238615,0.07627703786417842
1772642686359928800,0.4079287109375,0.013628712379932403,-0.0393354005664587,0.0707553518332541
1772642686369970700,0.417970703125,0.0216413384437561,-0.03806055832505226,0.06121551620215177
1772642686380011800,0.42801171875,0.002972293809056282,-0.029246552750468252,0.047368192635476584
1772642686390053600,0.4380537109375,0.020975568011403083,-0.030377018085122106,0.02096183174699545
1772642686400094700,0.4480947265625,0.01436433317810297,-0.04563011679649353,0.019312018713355063
1772642686410135800,0.4581357421875,0.005238192914426326,-0.061138651573657984,0.01702770716845989
1772642686420177700,0.468177734375,0.013699439528584479,-0.07770166383981704,0.009269932648539543
1772642686430218800,0.47821875,0.022059856116771696,-0.097000823071599,0.006801642838865518
1772642686440260600,0.488260498046875,0.037809798434376714,-0.08853869967460631,0.012657821521162986
1772642686450301700,0.4983017578125,0.057332245028018945,-0.06082184070944786,0.006138356624543666
1772642686460343800,0.50834375,0.07033405768126248,-0.040922962018847465,-0.00466506920158863
1772642686470385000,0.518385009765625,0.08264087380766869,-0.01664484533071518,-0.03521364446133375
1772642686480425700,0.52842578125,0.08002864548265934,0.005808978539705276,-0.0530612897105515
1772642686490467800,0.5384677734375,0.05880874732136726,0.015095277801156043,-0.07996551711857318
1772642686500508700,0.5485087890625,0.06642857467532158,0.009275777867436408,-0.11059870192185044
1772642686510550800,0.55855078125,0.05791092169880867,-0.015635960549116135,-0.14184709601402282
1772642686520591600,0.568591552734375,0.03226093213558197,0.0000415010541677475,-0.14936024812310933
1772642686530632700,0.5786328125,0.03402472693771124,0.007063947036862373,-0.1651860321559012
1772642686540674600,0.588674560546875,0.016048048481345174,0.00329261180460453,-0.14912088640928267
1772642686550715600,0.598715576171875,0.034487960535287854,0.004979541978240013,-0.1344169460132718
1772642686560757800,0.6087578125,0.020057868644595144,-0.02114391031563282,-0.1131530625797808
1772642686570798800,0.618798828125,0.03344868061542511,-0.04221943157017231,-0.09483341590464114
1772642686580840700,0.6288408203125,0.04108487458229065,-0.047425183519721026,-0.08241670966297387
1772642686590881800,0.6388818359375,0.05438303983360528,-0.027190789264440535,-0.0763559483192861
1772642686600923000,0.6489228515625,0.05371083966046571,-0.02174596786201,-0.07295695353075861
1772642686610964700,0.65896484375,0.06590630436688662,-0.026430910807847974,-0.06505670180022716
1772642686621005800,0.669005859375,0.04333148446530104,-0.02358545824885368,-0.05411956659182906
1772642686631047700,0.679047607421875,0.03210369574725628,-0.020107553005218503,-0.06288418006673455
1772642686641088800,0.6890888671875,0.036038697108626366,-0.025520225703716277,-0.05563493959084153
1772642686651129600,0.699129638671875,0.030706396169960497,-0.06401274570524693,-0.036347763057798146
1772642686661171700,0.709171630859375,0.028693010520935057,-0.07842705550491809,-0.0350621071614325
1772642686671212800,0.719212890625,0.03639262511283159,-0.07909691759049892,-0.06317308001071215
1772642686681255000,0.7292548828125,0.05335545035153627,-0.04541559726297855,-0.07386983059197663
1772642686691295700,0.739295654296875,0.03452303184866905,-0.008859598281979561,-0.054725715791434044
1772642686701336800,0.7493369140625,0.03686491879969835,0.00621054507791996,-0.05299085482284426
1772642686711378700,0.759378662109375,0.047802784660458564,0.013801730859279632,-0.04124547197148204
1772642686721420000,0.769419921875,0.04606120169013738,0.004395604610443115,-0.026011954743415115
1772642686731462000,0.7794619140625,0.059148939061164856,-0.0184258835285902,-0.013729980797320603
1772642686741503000,0.7895029296875,0.06395750838667154,-0.03156184395551681,-0.0011309037260711192
1772642686751544800,0.799544921875,0.08108604558110237,-0.046830140236020085,-0.003026654344797134
1772642686761586000,0.8095859375,0.07883329821825028,-0.05462123250365257,-0.005644435627758503
1772642686771627000,0.819626953125,0.08670563902854919,-0.05167699574530124,-0.008728811509162188
1772642686781668900,0.8296689453125,0.06849661312103271,-0.03590308803021908,0.006891805340349674
1772642686791710000,0.8397099609375,0.08383505202829837,-0.036791561302542686,0.01988499629572034
1772642686801752000,0.849751953125,0.0909513137742877,-0.023735680374503135,0.024488544568419455
1772642686811793200,0.859793212890625,0.07629033573716879,0.0031400515913963317,0.02876855997517705
1772642686821834000,0.869833984375,0.05661152953803539,0.006733692169189453,0.014266864152997731
1772642686831876000,0.8798759765625,0.043508302336931225,0.0033031331986188885,0.012721388276666402
1772642686841917000,0.8899169921875,0.055744683575630186,-0.0242296013712883,-0.016785715106129646
1772642686851959000,0.899958984375,0.07098784541487693,-0.041891514790058135,-0.015850918474048376
1772642686861999900,0.909999755859375,0.06874182005375623,-0.05686755012571811,-0.015421002624183892
1772642686872042000,0.9200419921875,0.05514350281208753,-0.06079962887763977,-0.0032531565770506856
1772642686882082800,0.930082763671875,0.04778904839605093,-0.06871814691722393,0.006274404094368219
1772642686892124000,0.9401240234375,0.05346124881356954,-0.060438978871703145,0.014551234052330254
1772642686902166000,0.950166015625,0.023467969349026677,-0.056090720534324644,0.016107377453148365
1772642686912207000,0.96020703125,0.021019407153129575,-0.050454760473966596,0.023296558304876088
1772642686922249000,0.9702490234375,0.02798047833740711,-0.0679261197566986,0.027533319091796873
1772642686932290000,0.9802900390625,0.01832300767600536,-0.07370119602680206,0.04788973229154944
1772642686942331100,0.9903310546875,0.019985095669329166,-0.07611644047498703,0.06113645961657166
1772642686952373000,1.000373046875,0.03130260849744081,-0.07950199126005172,0.07794614012017846
1772642686962414000,1.0104140625,0.035305706658959386,-0.10115502014160156,0.07971125009655952
1772642686972456000,1.0204560546875,0.026447861942648886,-0.0884521904349327,0.06672551179528236
1772642686982497000,1.0304970703125,0.03379880922734737,-0.07910451637506484,0.05674582344219088
1772642686992537900,1.040537841796875,0.03218202168047428,-0.0814987180352211,0.054975014377385376
1772642687002580000,1.050580078125,0.008595978909730911,-0.09652502225339413,0.04538695569038391
1772642687012620800,1.060620849609375,0.022253625123202798,-0.09456745844483375,0.036353169885277745
1772642687022663200,1.0706630859375,0.03817044844031334,-0.08285188620984554,0.014861761306226252
1772642687032704000,1.0807041015625,0.036219898894429205,-0.058497197154164314,-0.004185761252045631
1772642687042746000,1.09074609375,0.04713146127015352,-0.01066518639922142,-0.02659384628459811
1772642687052787000,1.100786865234375,0.06268325066715479,0.002333411383628845,-0.023157149834185837
1772642687062828000,1.110828125,0.05719254429638385,0.01667173333764076,-0.036448008561879394
1772642687072870100,1.1208701171875,0.05370704026818275,0.02861936076283455,-0.03405336851030588
1772642687082911000,1.130910888671875,0.06629471916258335,0.029596681362390517,-0.02988105126172304
1772642687092953000,1.140953125,0.08831950396597385,0.032441549399495125,-0.04645443879142403
1772642687102994000,1.150993896484375,0.09579904606640338,0.038864860445261,-0.05460910367444157
1772642687113035000,1.161034912109375,0.09909107334911822,0.045024552118778226,-0.06398074313178657
1772642687123076900,1.171076904296875,0.07893149789571761,0.028992285728454588,-0.06113382926806807
1772642687133118000,1.181117919921875,0.06179331609010696,0.015410919621586798,-0.03548486261814832
1772642687143160000,1.19116015625,0.07415946118831634,0.002203647524118423,-0.03864464182332158
1772642687153201200,1.201201171875,0.0646209407314658,-0.032682372418045995,-0.007899667208641768
1772642687163242000,1.211241943359375,0.07036416055858134,-0.04885141693055629,0.0062067456856369965
1772642687173284000,1.2212841796875,0.057167994377017015,-0.046342064458131785,0.0054833998471498484
1772642687183325000,1.231324951171875,0.04909165542721748,-0.055256607797741886,0.01859539487659931
1772642687193367000,1.241366943359375,0.06568447830975055,-0.049181671798229215,-0.00005859831944108009
1772642687203408100,1.251408203125,0.05389174918532371,-0.05968903728723526,0.02477116090208292
1772642687213450000,1.261449951171875,0.057688218858838076,-0.06965922715961932,0.033249358651041984
1772642687223491000,1.271490966796875,0.055115445761382574,-0.08875146564245223,0.038203327796608205
1772642687233532000,1.281531982421875,0.06072101068347692,-0.10157821398973464,0.061689125063270324
1772642687243574000,1.291573974609375,0.04394610923230648,-0.09421090009212493,0.030991058330237863
1772642687253614800,1.30161474609375,0.033169863674044606,-0.09208733206689357,0.029503742381930348
1772642687263657200,1.3116572265625,0.028803485158085822,-0.09939210212230681,0.023765052599459886
1772642687273698000,1.321697998046875,0.04759674069434404,-0.08204933765530585,0.014875351440161467
1772642687283739100,1.3317392578125,0.04601239411234855,-0.06381167017519473,0.01894157796576619
1772642687293781000,1.341781005859375,0.05092179346382618,-0.037598786032199856,0.0175948395319283
1772642687303822000,1.351822021484375,0.06763736594319343,-0.0015372925698757171,0.02984641833975911
1772642687313864000,1.361864013671875,0.06278349617123603,0.008017302238941192,0.0206556884072721
1772642687323905000,1.371905029296875,0.061392334073781966,0.008183306455612183,0.00815992558002472
1772642687333947000,1.38194677734375,0.061762628690898415,0.015692659172415732,0.002743891880661249
1772642687343988000,1.391988037109375,0.04805529811680317,-0.0153062902033329,0.01380158472880721
1772642687354029000,1.402029052734375,0.052991000953316686,-0.03658873220682144,0.016121698239445686
1772642687364071200,1.4120712890625,0.05297229625284672,-0.04550444459021091,0.019763854134082794
1772642687374112300,1.4221123046875,0.055361237215995784,-0.058901686301827426,0.01321472475156188
1772642687384154000,1.432154052734375,0.07177256605178117,-0.06059095456302166,0.02312631630450487
1772642687394195200,1.4421953125,0.05187748675346374,-0.03755903854370117,0.031626725885272024
1772642687404236000,1.452236083984375,0.04287058895528316,-0.05099544322192669,0.013018909918516874
1772642687414278100,1.462278076171875,0.02310673482120037,-0.06657002897262573,0.022079583730548618
1772642687424319000,1.472319091796875,0.018261632877588273,-0.07697334956526755,0.023503040662407874
1772642687434361000,1.482361083984375,0.018874796339869496,-0.06200199040472507,0.014226386012136936
1772642687444402000,1.49240185546875,0.03417407228052616,-0.04238426674306393,0.022003595884889364
1772642687454443000,1.502443115234375,0.043891748696565626,-0.04760170913040638,0.0024321955829858777
1772642687464484900,1.51248486328125,0.0339238969117403,-0.032583588218688966,0.004345627988874912
1772642687474526000,1.52252587890625,0.05529547850340604,-0.02068681419789791,0.0049181671798229215
1772642687484568000,1.532568115234375,0.049258244165778155,-0.035094109734892846,0.00630114597082138
1772642687494609200,1.542609130859375,0.03178980749249458,-0.04717442362904548,0.0056026423126459115
1772642687504651000,1.552651123046875,0.03874181858748197,-0.053963060855865476,-0.010605565166473388
1772642687514692000,1.562692138671875,0.022318214792013166,-0.047238721036911006,-0.0056317222766578195
1772642687524733200,1.572733154296875,0.030729192523658275,-0.044502574071288103,-0.017312661589682102
1772642687534775000,1.582775146484375,0.04259586366713047,-0.05707505539655685,-0.005362257685512304
1772642687544816000,1.592816162109375,0.0373594243183732,-0.04002104474306106,-0.01190817219763994
1772642687554858000,1.60285791015625,0.0461368972748518,-0.057438628011941904,-0.01961786979213357
1772642687564899000,1.612899169921875,0.007443301743268967,-0.0547591796696186,-0.028860622172802684
1772642687574940000,1.62293994140625,-0.00608896452486515,-0.05361293224394321,-0.02615107095316052
1772642687584982000,1.63298193359375,0.0089449384778738,-0.07148235093355178,-0.016554098307341336
1772642687595022800,1.64302294921875,0.01746434502005577,-0.07313420979380607,-0.026182635135203598
1772642687605065200,1.653065185546875,0.018306348802149295,-0.0732072750300169,-0.020433131697773933
1772642687615106000,1.66310595703125,0.027358547046780583,-0.05149228682816028,-0.01841959991827607
1772642687625148200,1.673148193359375,0.021735738728940485,-0.04123568122982978,-0.006184095462411642
1772642687635189000,1.68318896484375,0.023439912298321722,-0.053687166523933405,-0.004061258089542389
1772642687645230000,1.69322998046875,0.020469956576824187,-0.05589081404805183,-0.020968261487782
1772642687655272000,1.70327197265625,0.0018894670084118842,-0.054335985821485515,-0.003201426389813423
1772642687665313000,1.71331298828125,0.008059387814998627,-0.0661404053837061,0.0035531624369323253
1772642687675355000,1.72335498046875,0.012083528764545918,-0.06472878502011299,-0.0023640987828373906
1772642687685396000,1.73339599609375,0.016303484547138213,-0.0653296735227108,-0.0063075757116079325
1772642687695437000,1.74343701171875,0.019826982498168944,-0.05319266100525856,-0.019252835872024296
1772642687705479000,1.75347900390625,0.022585341295599935,-0.04589665877819061,-0.02994052636399865
1772642687715520000,1.76352001953125,0.01977612909376621,-0.038083354678750035,-0.04285393008142709
1772642687725561000,1.77356103515625,0.005370002600550651,-0.034195115068554875,-0.042227468746155496
1772642687735602200,1.783602294921875,0.007184943068027496,-0.028189737173914906,-0.03501563767120242
1772642687745643300,1.793643310546875,0.0052127662122249604,-0.025953356423974037,-0.03744739486277103
1772642687755685000,1.80368505859375,0.01983984197974205,-0.011351999619603157,-0.016844459556043148
1772642687765726200,1.813726318359375,0.030367665734887122,-0.03086567838490009,0.04770692307054996
1772642687775768000,1.82376806640625,0.0625713147252798,-0.0678045392036438,-0.042744770618528126
1772642687785809200,1.83380908203125,0.06051525897830724,-0.01535246743261814,-0.028331775993108748
1772642687795851300,1.843851318359375,-0.012866203574836253,-0.04060907376408577,0.055323681684583424
1772642687805892400,1.853892333984375,0.011510112790763378,-0.05145370838344097,-0.013388766144216059
1772642687815933200,1.86393310546875,0.008438450260460376,-0.06836451117396354,0.010008914447575807
1772642687825975300,1.873975341796875,-0.0012529226705431937,-0.07578910821676253,-0.0069070029094815254
1772642687836016000,1.88401611328125,0.006062661039829254,-0.056963411715626716,-0.02170695102587342
1772642687846058200,1.894058349609375,0.012418752068281172,-0.06929623906612396,-0.010760463467240333
1772642687856099000,1.90409912109375,0.022536241456866262,-0.057337505725026126,-0.00021261983737349508
1772642687866140200,1.91414013671875,0.01933130793571472,-0.0786187786847353,-0.009180500799417495
1772642687876182000,1.92418212890625,-0.006489654280245304,-0.06535246987640857,-0.006242986042797565
1772642687886223000,1.93422314453125,-0.014667700038850307,-0.08748422218561172,-0.007609305959939956
1772642687896265000,1.944264892578125,-0.021015607760846614,-0.077925535723567,-0.01877542761862278
1772642687906306000,1.95430615234375,0.006015899288654327,-0.06419628557860851,-0.022575404423475266
1772642687916347100,1.96434716796875,0.010787351474165915,-0.03857376854419708,-0.02305982693955302
1772642687926389200,1.97438916015625,0.005128887321054935,-0.04450140502750873,-0.016915332835167645
1772642687936430300,1.984430419921875,0.0014133739292621612,-0.04711246430873871,-0.011905541849136352
1772642687946472200,1.99447216796875,0.009722060330212116,-0.049751580640673636,0.014447627547383308
1772642687956513300,2.00451318359375,0.011721125192940234,-0.061086044603586194,0.010953940212726592
1772642687966555100,2.01455517578125,0.017829671201109884,-0.06770283239483833,0.0017060732655227184
1772642687976596200,2.02459619140625,0.02492489015907049,-0.06071604224741459,-0.010166881488263606
1772642687986637000,2.034636962890625,0.019309680625796317,-0.06314063904583454,-0.015635229896754026
1772642687996679200,2.04467919921875,0.011895020455121993,-0.05521276865601539,-0.007550561510026454
1772642688006720000,2.054719970703125,0.019015666115283963,-0.05285656091868877,-0.01798442337140441
1772642688016762400,2.064762451171875,0.012862404182553291,-0.04427753314375877,-0.0032166239589452744
1772642688026803200,2.07480322265625,0.032602292919158934,-0.03976210154592991,-0.02396875847801566
1772642688036844300,2.08484423828125,0.038780397032201284,-0.01784896042346954,-0.04139145631343126
1772642688046886100,2.09488623046875,0.03634995501488447,-0.01812134762406349,-0.03579509761109948
1772642688056927200,2.10492724609375,0.04351473207771778,0.000042670097947120666,-0.03934124578535556
1772642688066969000,2.114968994140625,0.05780950715094804,-0.029767361754179,-0.05107537659034132
1772642688077010200,2.12501025390625,0.047614276351034636,-0.04071545674800873,-0.04678600883334875
1772642688087052000,2.135052001953125,0.025373218448460102,-0.05463818363845348,-0.044333793375641105
1772642688097093000,2.145093017578125,0.030597967359423637,-0.055498015338182445,-0.01811959405839443
1772642688107134200,2.15513427734375,0.03175736652761697,-0.058898179170489305,-0.015416910970956087
1772642688117176000,2.165176025390625,0.025946342161297795,-0.0472042342454195,-0.018546002776920794
1772642688127217200,2.175217041015625,0.04933510879427194,-0.026591654327511784,-0.025388416017591953
1772642688137259300,2.18525927734375,0.04967822314351797,-0.011223989325761794,-0.04620718603208661
1772642688147300400,2.19530029296875,0.04924129303097725,-0.009749825119972228,-0.03886062266156077
1772642688157341200,2.205341064453125,0.03692863168567419,-0.008657938230037689,-0.030312282285839317
1772642688167383300,2.21538330078125,0.023816636656224726,-0.028310148683190345,-0.012823095085471867
1772642688177424100,2.225424072265625,0.027667174604535102,-0.03348725906014442,-0.008419453299045563
1772642688187466200,2.23546630859375,0.02975041061937809,-0.06009586452245712,-0.025506051047891377
1772642688197507000,2.245507080078125,0.03234451876580715,-0.06128887369930744,-0.020583646084368228
1772642688207549200,2.255549072265625,0.046644846796989436,-0.06209142225384712,-0.029654110638052223
1772642688217590000,2.265590087890625,0.05081219560950994,-0.06530161647200584,-0.02821677131131291
1772642688227631000,2.275631103515625,0.0480865700379014,-0.05162205068767071,-0.026426673024147748
1772642688237673000,2.2856728515625,0.041158524340391155,-0.05438683922588825,-0.01213715864792466
1772642688247714000,2.295714111328125,0.029910569617152213,-0.05350362665057182,-0.004487228416651487
1772642688257756200,2.305756103515625,0.03535246841013431,-0.038377369189262385,-0.012937222984433174
1772642688267797200,2.31579736328125,0.041537294524908064,-0.02567687757015228,-0.01827741496860981
1772642688277838300,2.32583837890625,0.039650750125944614,-0.026898528319597242,-0.010040770890563726
1772642688287880200,2.335880126953125,0.04920125328153371,-0.04149988512396812,-0.004807984803617001
1772642688297921300,2.34592138671875,0.03583089957684278,-0.052914428585767746,-0.0047651685751974576
1772642688307963100,2.355963134765625,0.024128771345317362,-0.06316694253087043,-0.018148235630989072
1772642688318004200,2.366004150390625,0.01866875237375498,-0.05486439360976219,0.0024463702388107774
1772642688328046000,2.376046142578125,0.03013677958846092,-0.055302785027027124,0.005867138467729092
1772642688338087200,2.386087158203125,0.02541764211207628,-0.05216974769830703,0.004637158281356096
1772642688348128000,2.3961279296875,0.028754093058407305,-0.05418634821772575,0.0031692776858806607
1772642688358170000,2.406170166015625,0.03136427555680275,-0.03996025446653366,0.01693272236138582
1772642688368211000,2.4162109375,0.0362812736928463,-0.014365794482827186,0.02131181422844529
1772642688378253300,2.42625341796875,0.03558277003467083,-0.026302900514006612,0.018022417294234035
1772642688388294100,2.436294189453125,0.0254494985550642,-0.05094751242697239,0.01078413660377264
1772642688398335200,2.446335205078125,0.023353110797703264,-0.06361994699537754,0.01526990371569991
1772642688408377000,2.456377197265625,0.022659867836534977,-0.06753565913438797,0.021497253797948358
1772642688418418200,2.466418212890625,0.017175591206550597,-0.07279401805400848,0.010045154804736375
1772642688428460000,2.4764599609375,0.012755144415795802,-0.07557517320513725,0.01142784133478999
1772642688438501000,2.486501220703125,0.032067747651040555,-0.07189969956278801,-0.003745908530056476
1772642688448542200,2.496542236328125,0.023109657430648804,-0.07573124054968357,-0.003045651306211948
1772642688458584000,2.506583984375,0.01177840833812952,-0.06279167947769165,-0.00027677111476659774
1772642688468625200,2.516625244140625,0.013379413793981075,-0.05496668494045734,0.002329319730401039
1772642688478667300,2.526667236328125,0.014369009353220462,-0.06037292789816856,0.0036368951976299283
1772642688488708400,2.536708251953125,0.027615444417297838,-0.0656955842256546,0.00006751227825880051
1772642688498749200,2.546749267578125,0.01471329274624586,-0.04826689504086971,0.0037177053488790988
1772642688508791300,2.556791259765625,0.0185109314635396,-0.022495909446477887,0.005972060146927833
1772642688518832000,2.56683203125,0.012071253804862498,-0.027075053930282592,-0.004327215549349785
1772642688528874200,2.576874267578125,0.026750644281506537,-0.025349545311927794,-0.012149871999025345
1772642688538915000,2.5869150390625,0.026148586735129355,-0.04422726426124572,-0.011608312468230724
1772642688548957200,2.596957275390625,0.034411972689628596,-0.05719663594961166,0.0027925533279776573
1772642688558998000,2.606998046875,0.032093758875131606,-0.06656009210050105,-0.007343056239187717
1772642688569039000,2.6170390625,0.02025192991197109,-0.07151800676882267,-0.0070062255002558225
1772642688579081000,2.6270810546875,0.02127367417514324,-0.05086100318729877,-0.02778042572066188
1772642688589122000,2.6371220703125,0.024442075078189372,-0.05222293919026851,-0.01329918816462159
1772642688599164200,2.6471640625,0.02154986076802015,-0.03588847498297691,-0.002336772384494543
1772642688609205200,2.657205322265625,0.025281448511779308,-0.02238601933121681,-0.0055834992207586765
1772642688619246300,2.667246337890625,0.0272837282449007,-0.03744330320954323,0.001056669446080923
1772642688629288200,2.6772880859375,0.0369914677888155,-0.030555297261476516,-0.007993482971936463
1772642688639329300,2.687329345703125,0.021748305949568746,-0.027061025404930113,-0.00543736874833703
1772642688649371100,2.69737109375,0.026380349664390085,-0.03194353674948215,-0.001435731891542673
1772642688659412200,2.707412109375,0.011014145967364311,-0.028573183533549307,-0.0007696691982448101
1772642688669454000,2.7174541015625,0.030800796455144882,-0.050593876683712,-0.005791150622069835
1772642688679495200,2.7274951171875,0.03513005783110857,-0.05575812757909298,0.000035217443853616714
1772642688689536000,2.737535888671875,0.048996962881088256,-0.06487842262387275,0.0030262159533798695
1772642688699578000,2.747578125,0.03520984506905079,-0.05951660332977771,0.0011870178274810312
1772642688709619000,2.757618896484375,0.03496814526766538,-0.04252805912792682,-0.0060706982158124445
1772642688719661600,2.76766162109375,0.019830489629507064,-0.04358955087959766,-0.0066359308831393715
1772642688729702400,2.777702392578125,0.027050504010915754,-0.05065408243834972,-0.012359569226950405
1772642688739743500,2.787743408203125,0.009328677098453045,-0.04297521837353706,-0.01456058640256524
1772642688749785600,2.79778564453125,0.02415449030846357,-0.06872106952667235,-0.008655161751061678
1772642688759826700,2.80782666015625,0.022587971644103526,-0.07235445759296417,-0.012440379378199577
1772642688769868500,2.81786865234375,0.02637713479399681,-0.05483750560283661,-0.005228109911829233
1772642688779909600,2.82790966796875,0.028491642729938028,-0.058200844556093215,-0.003586772445589304
1772642688789951500,2.837951416015625,0.03379647113978863,-0.048076340904831885,-0.016202362260222435
1772642688799992600,2.84799267578125,0.03542173425406217,-0.04853986676335335,-0.006463058534264564
1772642688810033700,2.85803369140625,0.03618395079821348,-0.04959317520856857,-0.0097260058529675
1772642688820075500,2.868075439453125,0.039158290433883663,-0.040973815423250196,-0.01301861765757203
1772642688830116600,2.87811669921875,0.033923312389850614,-0.050748190462589264,-0.022627865263074635
1772642688840158500,2.888158447265625,0.033334114325046536,-0.05732815337479114,-0.024144407305866478
1772642688850199600,2.898199462890625,0.026660920171439645,-0.05226619381010532,-0.009528437454253434
1772642688860240400,2.908240478515625,0.023636311653256414,-0.05106850845813751,-0.011107084947824478
1772642688870282800,2.91828271484375,0.005617255359888077,-0.056501054900884626,-0.001558335357904434
1772642688880323600,2.928323486328125,0.006466565665602684,-0.06470832675397396,0.0038631051689386364
1772642688890365700,2.93836572265625,0.019712416207790375,-0.06264671804904938,-0.004642565108835697
1772642688900406500,2.948406494140625,0.034085224953293795,-0.03568915301859379,-0.010190554624795914
1772642688910447600,2.958447509765625,0.0404465766787529,-0.030756957313418386,-0.014095160847902298
1772642688920489500,2.968489501953125,0.031015315988659857,-0.01646130545735359,-0.020009061066806316
1772642688930530600,2.978530517578125,0.03405716790258884,-0.022237550771236417,-0.019852993722259998
1772642688940572400,2.988572509765625,0.02216390101313591,-0.02975391775071621,-0.010694850885123014
1772642688950613500,2.998613525390625,0.030734745481610298,-0.03658580959737301,-0.02216214744746685
1772642688960655400,3.0086552734375,0.028894670572876927,-0.03992459863126278,-0.007165946106612682
1772642688970696400,3.018696533203125,0.04254091860949993,-0.05186871892511844,-0.02957388500869274
1772642688980737500,3.028737548828125,0.05487023882865905,-0.046994975408911704,-0.025946926683187484
1772642688990779600,3.038779541015625,0.04086772470027208,-0.03453764489591121,-0.021867986806482075
1772642689000820700,3.04882080078125,0.02793079397678375,-0.04535948316156864,-0.022632833699136972
1772642689010862600,3.058862548828125,0.033818098449707026,-0.052748424369096755,-0.0023022855930030345
1772642689020903700,3.068903564453125,0.02609831785261631,-0.05245616342425346,0.001293254680931568
1772642689030944500,3.078944580078125,0.022411446033418176,-0.05354688127040863,-0.004193944558501243
1772642689040986600,3.088986572265625,0.026159108129143713,-0.056990884244441986,-0.0008903729684650898
1772642689051027500,3.09902734375,0.02690261997282505,-0.05298281764686107,-0.01015928270369768
1772642689061069600,3.109069580078125,0.04290682931244373,-0.05105798706412315,-0.0060312429882586
1772642689071110400,3.1191103515625,0.04542027343809604,-0.043291444715857504,-0.016943828277289866
1772642689081152500,3.129152587890625,0.03566957153528928,-0.031744799306988716,-0.011324380960315465
1772642689091193600,3.139193603515625,0.02661094354987144,-0.035897827333211896,-0.010222995589673519
1772642689101234700,3.149234619140625,0.02894347815066576,-0.06007657530009746,-0.01206774667352438
1772642689111276500,3.159276611328125,0.023090368208289146,-0.057660161808133124,-0.005513794985413551
1772642689121317600,3.169317626953125,0.020310674361884593,-0.054556935095787046,0.009802870481461286
1772642689131359500,3.179359375,0.017342179945111273,-0.04817337153851985,0.020174773022532462
1772642689141400600,3.189400634765625,0.0029740473747253415,-0.0434223776191473,0.020685791284590957
1772642689151441700,3.199441650390625,0.004202712386846542,-0.04781096796691418,0.023129677305370567
1772642689161483500,3.2094833984375,0.02130465383529663,-0.04571662603616714,0.016479133374989033
1772642689171524600,3.219524658203125,0.01829436610341072,-0.0557353312253952,0.0182004042096436
1772642689181566500,3.22956640625,0.026526772397756575,-0.054748658275604246,0.021425795996934175
1772642689191607600,3.239607666015625,0.01782382598221302,-0.05181786552071571,0.03807224876284599
1772642689201648400,3.2496484375,0.015660218207538126,-0.08183131099045277,0.030831337723881004
1772642689211690800,3.259690673828125,0.02872983539998531,-0.07385726337134838,0.023494565095007417
1772642689221731600,3.269731689453125,0.016315759506821632,-0.058688335812091826,0.033059096775949
1772642689231773700,3.279773681640625,0.02613952664583921,-0.04497311419248581,0.04404226308315992
1772642689241814500,3.289814453125,0.03608808920830488,-0.027988077121973036,0.03909282398223877
1772642689251856600,3.299856689453125,0.04943418525457382,-0.022771803778409958,0.04569660616144538
1772642689261897500,3.3098974609375,0.052828503867983816,-0.029576807618141174,0.026280542551726103
1772642689271938600,3.3199384765625,0.0346644861459732,-0.046264323046803474,-0.0008855506628751755
1772642689281980400,3.32998046875,0.028867782565951346,-0.05773322704434394,-0.005587444743514061
1772642689292021500,3.340021484375,0.024391513934731483,-0.07372749951183795,-0.01056406411230564
1772642689302063400,3.3500634765625,0.046102118222415445,-0.07075345213711261,-0.03328209187686443
1772642689312104400,3.3601044921875,0.04636018463671207,-0.05686521203815937,-0.03346227074936032
1772642689322145500,3.3701455078125,0.04949526779204607,-0.05176116689741611,-0.030410774224251508
1772642689332187600,3.380187744140625,0.05410626871883869,-0.039783144333958624,-0.04214928894340992
1772642689342228700,3.390228759765625,0.0674231386706233,-0.020203999117016792,-0.021348492977023122
1772642689352270600,3.4002705078125,0.06336158832013607,-0.0008633388310670852,-0.019346797765791415
1772642689362311700,3.410311767578125,0.04301876525431871,0.00871580589711666,-0.027549393443763254
1772642689372352500,3.4203525390625,0.042266485582292075,0.015416180318593977,-0.02268237192928791
1772642689382394600,3.43039453125,0.050582770767807955,0.0024450550645589825,-0.032779841443151235
1772642689392435500,3.440435546875,0.05148819517493248,-0.03234802589714527,-0.03764613230526447
1772642689402477600,3.4504775390625,0.04709200604259967,-0.045892567124962806,-0.03186316498965025
1772642689412518400,3.460518310546875,0.03007014409303665,-0.06594985124766826,-0.030816286285221574
1772642689422560500,3.470560546875,0.034577392384409905,-0.08311199845075606,-0.013358955527842045
1772642689432601300,3.480601318359375,0.054473348465561865,-0.07062836445271968,-0.014920798017084598
1772642689442642400,3.490642333984375,0.048421208819746965,-0.05928747074902057,-0.01948226071372628
1772642689452684500,3.5006845703125,0.06332856283336877,-0.04947101013362407,-0.029247429533302782
1772642689462725600,3.5107255859375,0.061521513411402697,-0.03180851219296455,-0.01477729789316654
1772642689472767500,3.520767578125,0.03728255968987942,-0.018714637342095376,-0.021352146238833664
1772642689482808600,3.53080859375,0.03380816157758236,-0.024587328767776487,-0.017895576044172048
1772642689492849700,3.540849609375,0.0467944844007492,-0.03405366077125072,-0.01217617548406124
1772642689502891500,3.5508916015625,0.042216508960723875,-0.05147241308391094,-0.012280951032787561
1772642689512932600,3.5609326171875,0.0488555085837841,-0.04979541978240013,-0.023576105898618697
1772642689522974500,3.570974365234375,0.036842999228835105,-0.04991992294490337,-0.028435236367583272
1772642689533015600,3.581015625,0.04609422717690467,-0.049636429828405375,-0.03182444041445851
1772642689543057400,3.591057373046875,0.055904842573404306,-0.04368132081627846,-0.01934255998209119
1772642689553098500,3.601098388671875,0.04433130915760994,-0.03813011642992496,-0.03209536631032824
1772642689563139300,3.611139404296875,0.033791210442781446,-0.04570610464215279,-0.0165383162163198
1772642689573181700,3.621181640625,0.02831424033641815,-0.029314357289671897,-0.013461100728064775
1772642689583222500,3.631222412109375,0.0289613060683012,-0.036811435046792025,-0.02613485047072172
1772642689593264600,3.6412646484375,0.04435907394737005,-0.03866612300276756,-0.03313508462160825
1772642689603305500,3.651305419921875,0.030429040533304214,-0.030485154634714125,-0.01775295270308852
1772642689613346600,3.6613466796875,0.05175269133001566,-0.03982990608513355,-0.02138195685520768
1772642689623388400,3.671388427734375,0.041727556400001045,-0.042348026385903355,-0.011648059956729412
1772642689633429500,3.681429443359375,0.045098201876878734,-0.038842064091563225,-0.02221095502525568
1772642689643471400,3.691471435546875,0.04603285237848759,-0.05009644855558872,-0.021046002899110315
1772642689653512400,3.701512451171875,0.045557343821227544,-0.039489714345335956,-0.027285627941042185
1772642689663553500,3.711553466796875,0.041891514790058135,-0.018349895682930946,-0.02484247257262468
1772642689673595600,3.721595703125,0.03858779706954956,-0.024821137523651123,-0.015219634833186864
1772642689683636700,3.73163671875,0.04172024987637996,-0.018600071051716804,-0.012457476643472909
1772642689693678600,3.7416787109375,0.030498598638176916,-0.02549392221868038,-0.02792962493300438
1772642689703719700,3.7517197265625,0.05343816019892692,-0.028090952974557874,-0.02059869752302766
1772642689713761500,3.761761474609375,0.047212417551875115,-0.03321720994710922,-0.014220686923712492
1772642689723802600,3.771802734375,0.03672287998050451,-0.058387891560792916,-0.00787248694077134
1772642689733843500,3.781843505859375,0.04017272817343473,-0.06844517519474029,-0.015105360803753137
1772642689743885800,3.7918857421875,0.01870879212319851,-0.05496960754990577,-0.006869447378069162
1772642689753926700,3.8019267578125,0.023607670080661773,-0.06183540166616439,-0.005216419474035501
1772642689763968800,3.81196875,0.0020166005194187163,-0.06484744296371936,0.02042947843596339
1772642689774009600,3.822009521484375,0.014070026406645774,-0.06280336991548538,0.028408056099712847
1772642689784050700,3.83205078125,0.015410335099697112,-0.059114452269673344,0.04443462340161204
1772642689794092500,3.842092529296875,0.024182255098223686,-0.06795359228551387,0.04949643683582544
1772642689804133600,3.852133544921875,0.021395839250087735,-0.07825111441612244,0.04737374559342861
1772642689814175500,3.862175537109375,0.037568390893936154,-0.07509586525559425,0.057822951154410836
1772642689824216600,3.872216552734375,0.03653349488824606,-0.08419277942478656,0.057090252965688704
1772642689834258400,3.882258544921875,0.019370763163268565,-0.0828407802939415,0.05568871560469269
1772642689844299500,3.892299560546875,0.010310966134071349,-0.10327040486037731,0.060664458190649743
1772642689854340600,3.902340576171875,0.015718378135561942,-0.09982347927689551,0.06174640820845961
1772642689864382700,3.9123828125,0.03280629105865955,-0.07801964374780654,0.05370733252912759
1772642689874423800,3.922423828125,0.038941725073754783,-0.06682721860408783,0.03924743002206087
1772642689884465700,3.932465576171875,0.02815174325108528,-0.0563017329365015,0.03129500971287489
1772642689894506800,3.9425068359375,0.01930909610390663,-0.04508943404853344,0.021038842505961657
1772642689904547600,3.952547607421875,-0.006793897923827171,-0.0525718987584114,0.004951192666590214
1772642689914589700,3.962589599609375,-0.008020809370279311,-0.052421092110872265,-0.0064095747813582415
1772642689924630500,3.972630615234375,0.01712882945537567,-0.049340661752223965,-0.012664981914311646
1772642689934672600,3.982672607421875,0.02641629776060581,-0.05393967998027801,-0.011600421422719954
1772642689944713500,3.99271337890625,0.037594986639916894,-0.04136193795800209,-0.02242854329869151
1772642689954755600,4.002755615234375,0.030072482180595397,-0.03036123599410057,-0.02752060574069619
1772642689964796400,4.01279638671875,0.024837504136562345,-0.03636661388874054,-0.011740122154355048
1772642689974837500,4.02283740234375,0.009231061942875384,-0.030223873350024223,-0.024501988571882245
1772642689984879600,4.032879638671875,0.0018096797704696655,-0.02749766325652599,-0.04049085421189665
1772642689994920700,4.042920654296875,0.0013484919995069504,-0.03091419370174408,-0.02457519993856549
1772642690004962600,4.052962646484375,0.0215630125105381,-0.014387421792745589,-0.025314912389963865
1772642690015003600,4.063003662109375,0.014851239912211893,-0.012481295910477638,-0.02226005486398935
1772642690025044700,4.073044677734375,0.03702215518802404,-0.01004910032749176,-0.01565671107620001
1772642690035086600,4.083086669921875,0.020546236683428285,-0.0147878192871809,-0.034046208117157216
1772642690045127700,4.093127685546875,0.027102818720042703,-0.02454232058227062,-0.02638882523179054
1772642690055169500,4.10316943359375,0.013472352774441242,-0.027841362127661702,-0.017798983801901338
1772642690065210600,4.113210693359375,0.018700608816742896,-0.06212941617667675,-0.023335429010540247
1772642690075252500,4.12325244140625,0.022929624688625333,-0.061523851498961446,-0.025344284614920616
1772642690085293600,4.13329345703125,0.016007716470956803,-0.07140811665356159,-0.028909283620119092
1772642690095334700,4.143334716796875,0.006371873119473457,-0.09317512730360031,-0.03036240503787994
1772642690105376800,4.153376708984375,0.018080723352730272,-0.07615384987592697,-0.02163826970383525
1772642690115417600,4.16341748046875,0.0013674889609217643,-0.07112286997139454,-0.013544248966872691
1772642690125459700,4.173459716796875,-0.008507423843443393,-0.05268061982989311,-0.014919628973305225
1772642690135500500,4.18350048828125,-0.002596446233987808,-0.03387771968245506,-0.01801014233455062
1772642690145542700,4.193542724609375,-0.007339841368794441,-0.04559796809256077,-0.025811025343835354
1772642690155583700,4.203583740234375,-0.0055181788995862,-0.060230304557085036,-0.0247197229757905
1772642690165624600,4.21362451171875,0.007272913612425327,-0.07558277198970317,-0.02729951033592224
1772642690175666700,4.223666748046875,0.004817629414796829,-0.09583820903301238,-0.026472704122960565
1772642690185707500,4.23370751953125,0.0037269115686416623,-0.08971475771665573,-0.01780599806457758
1772642690195749600,4.24374951171875,0.017362053689360616,-0.07726210337877273,-0.028446050022542475
1772642690205790700,4.253790771484375,0.030813071414828298,-0.05724339770078659,-0.025767916854470968
1772642690215831800,4.263831787109375,0.034237785166502,-0.03820785784125328,-0.03560132860466838
1772642690225873700,4.273873779296875,0.025614041467010972,-0.026298808860778806,-0.04099295851513743
1772642690235914800,4.283914794921875,0.022291619046032426,-0.020358897417783735,-0.03618307401537895
1772642690245956600,4.29395654296875,0.01120411558151245,-0.022611644780635834,-0.028109511544555425
1772642690255997700,4.303997802734375,0.005783259576559067,-0.03777648068666458,-0.033722382990270854
1772642690266039600,4.31403955078125,-0.008078677037358284,-0.028800562548637387,-0.03270969881638884
1772642690276080600,4.32408056640625,0.004079670529067516,-0.046328620454669,-0.049586745467782016
1772642690286121700,4.334121826171875,0.017278467059135435,-0.03499824814498424,-0.03685264384001493
1772642690296163600,4.34416357421875,0.01940671125948429,-0.028517653954029082,-0.029298282937705516
1772642690306204700,4.35420458984375,0.02308744559884071,-0.049852702927589414,-0.03623772681206464
1772642690316246800,4.364246826171875,0.017596446967124937,-0.04929740713238716,-0.03005596943721175
1772642690326288000,4.374287841796875,0.00864829361885786,-0.044056583869457246,-0.031367636557668443
1772642690336329700,4.384329833984375,0.004976034846901893,-0.041291795331239695,-0.016988836462795733
1772642690346370800,4.394370849609375,0.00805880329310894,-0.029828152030706403,-0.03292684869840741
1772642690356411600,4.40441162109375,0.02438508419394493,-0.025007600006461142,-0.01874970865547657
1772642690366453800,4.414453857421875,0.019868775813281534,-0.025688568007946014,-0.009336129752546548
1772642690376494600,4.42449462890625,0.016364859345555306,-0.03587795358896255,-0.005023088859021663
1772642690386536700,4.43453662109375,0.02971680061072111,-0.05274900889098644,-0.002623188110440969
1772642690396577500,4.44457763671875,0.02228548156619072,-0.06157762751281261,0.0018405133001506326
1772642690406618600,4.45461865234375,0.01956190182119608,-0.07842939359247685,0.009074556206911801
1772642690416660500,4.464660400390625,-0.0005398059651255607,-0.0931055691987276,0.023260756339132785
1772642690426701600,4.47470166015625,0.006957564052939414,-0.09137421536147594,0.024418109680712223
1772642690436743700,4.48474365234375,-0.00819908854663372,-0.0949918213367462,0.01053732223585248
1772642690446784800,4.49478466796875,-0.017261515924334524,-0.09091010498106479,0.02204801954850554
1772642690456826600,4.50482666015625,-0.017440671883523464,-0.09123626819550991,0.017472674456983802
1772642690466867700,4.51486767578125,-0.014345336216688155,-0.09043781129419803,0.02166881097257137
1772642690476908800,4.52490869140625,-0.00421761769503355,-0.08862053273916244,0.012254063025861978
1772642690486950700,4.53495068359375,0.004874912559986114,-0.06316109731197357,0.013942162243276834
1772642690496991700,4.54499169921875,0.009097790952026844,-0.056822541940212246,0.018721067082881928
1772642690507033600,4.55503369140625,0.012659575086832046,-0.056171969076991075,0.011110738209635018
1772642690517074700,4.56507470703125,0.005149053326249122,-0.0677741440653801,0.006558189471811055
1772642690527116500,4.575116455078125,0.006475625754892826,-0.06366027900576592,0.006940028396248817
1772642690537157600,4.58515771484375,0.01674538309574127,-0.056201779693365095,0.009475392092764377
1772642690547198500,4.595198486328125,0.01506575944572687,-0.037248072898387906,0.00997018987238407
1772642690557240800,4.60524072265625,0.004656885895133018,-0.035819501399993896,0.010441314515471457
1772642690567281700,4.61528173828125,0.010972644913196564,-0.03709083651006222,-0.0034716216333210465
1772642690577323800,4.62532373046875,0.024079379245638848,-0.040434886240959166,-0.004538374081999063
1772642690587364600,4.635364501953125,0.005385784691572189,-0.046450201007723804,-0.013373130183666943
1772642690597406700,4.64540673828125,0.01527706410884857,-0.0305342544734478,-0.012510668135434388
1772642690607447600,4.655447509765625,0.023798516477644444,-0.024877251625061034,-0.031237872698158024
1772642690617488600,4.665488525390625,0.002762158189713955,-0.014940379500389098,-0.02746010772511363
1772642690627530500,4.675530517578125,0.016461013196408747,-0.02886485995650291,-0.01663461619764566
1772642690637571600,4.685571533203125,0.01976356187313795,-0.054471594899892804,-0.036859219711273906
1772642690647613400,4.695613525390625,0.024353520011901855,-0.05232932217419147,-0.01421440331339836
1772642690657654500,4.705654541015625,0.030014029991626737,-0.0400759898006916,-0.031546061864495274
1772642690667696600,4.715696533203125,0.04647065927386283,-0.049444706648588174,-0.05573255474641919
1772642690677737700,4.72573779296875,0.04201514116972685,-0.02375730768442154,-0.04926818103790283
1772642690687778800,4.73577880859375,0.045856326767802234,-0.01650748268663883,-0.041284342677146195
1772642690697820700,4.745820556640625,0.039081133544445035,-0.021475334227085113,-0.04616583110839128
1772642690707861800,4.75586181640625,0.02522036597430706,-0.03898351838886738,-0.05222922280058265
1772642690717903600,4.765903564453125,0.022321721923351287,-0.04408522544205189,-0.05198474652022123
1772642690727944400,4.7759443359375,0.044404666654765605,-0.04443184692263603,-0.04691840304136276
1772642690737986300,4.785986328125,0.027079730105400084,-0.04962473939061165,-0.04848740592375397
1772642690748027400,4.79602734375,0.017501462160050867,-0.05593757579922676,-0.05117591435536742
1772642690758068200,4.806068115234375,0.038757308417558665,-0.05573416218161582,-0.04208250731751322
1772642690768110300,4.8161103515625,0.04952361710369586,-0.05461421824097633,-0.028928718972951174
1772642690778151200,4.826151123046875,0.04754238015860319,-0.0543757333099842,-0.03225055687204003
1772642690788193500,4.836193603515625,0.02910246810466051,-0.04771685994267463,-0.020219635077565908
1772642690798234400,4.846234375,0.03398556397110224,-0.039837504869699475,-0.0064323711350560185
1772642690808276500,4.8562763671875,0.026083704805374145,-0.04165302985906601,-0.008825403751432896
1772642690818317300,4.8663173828125,0.005528408032655715,-0.045054362735152245,-0.005003799636662006
1772642690828358400,4.8763583984375,0.016441139452159404,-0.06015840836465358,0.005076718742400408
1772642690838400300,4.886400146484375,0.03629588674008846,-0.059980713710188864,0.010626315693557261
1772642690848441300,4.89644140625,0.017392156566679477,-0.06344108329713344,0.023786095387488604
1772642690858483200,4.906483154296875,0.026724925318360328,-0.07412438987493515,0.02603270527049899
1772642690868524300,4.916524169921875,0.037520460098981856,-0.06842471692860126,0.03375146295428276
1772642690878566400,4.92656640625,0.04202887743413448,-0.06164952370524406,0.023510201055556533
1772642690888607500,4.936607421875,0.04374094204902649,-0.04282207363843918,0.033077947606891395
1772642690898648600,4.946648681640625,0.05162409651428461,-0.03276362096071243,0.039818069516867394
1772642690908690400,4.9566904296875,0.04894640173763037,-0.044750411352515215,0.04517039033025503
1772642690918731500,4.9667314453125,0.0371501654818654,-0.04873100542128086,0.056537441388517615
1772642690928773400,4.9767734375,0.025236148065328597,-0.036464813566207885,0.04740823238492012
1772642690938814500,4.986814453125,0.03338058381527662,-0.05092763868272304,0.053368309833109376
1772642690948856300,4.996856201171875,0.014251228192448616,-0.05821487308144569,0.052861383224278684
1772642690958897400,5.0068974609375,0.012117723295092583,-0.0703793581277132,0.06068433193489909
1772642690968938200,5.016938232421875,0.044265842705965036,-0.0790460641860962,0.053963645377755165
1772642690978980400,5.02698046875,0.03148117993474007,-0.10438976427912712,0.048316579401493066
1772642690989021200,5.037021240234375,0.022198972326517102,-0.09447744207382201,0.04148366464152932
1772642690999063600,5.0470634765625,0.011131634867191313,-0.09505611874461173,0.036411914335191246
1772642691009104400,5.0571044921875,0.007107493917644024,-0.08503039929270743,0.012918810544908047
1772642691019146500,5.067146484375,0.022176760494709014,-0.07850421239435672,0.006258622003346682
1772642691029187300,5.077187255859375,0.018119301797449586,-0.06361936247348784,0.00024316110610961912
1772642691039228400,5.087228515625,0.01436433317810297,-0.045585693132877345,-0.014186346262693404
1772642691049270300,5.097270263671875,0.0103261637032032,-0.025903672063350675,-0.023210487456619737
1772642691059311400,5.107311279296875,0.015914777490496634,-0.013455109378695488,-0.04019830100610852
1772642691069353200,5.117353271484375,0.02847673742175102,-0.0029606033712625502,-0.02941591796800494
1772642691079394300,5.127394287109375,0.029428923580050465,-0.02119651728570461,-0.023882395368814466
1772642691089436400,5.1374365234375,0.03394230935126543,-0.031001871985197067,-0.015573855098336933
1772642691099477200,5.147477294921875,0.03646276773959398,-0.024859715968370437,-0.024036563017219303
1772642691109519400,5.157519287109375,0.047238721036911006,-0.024995325046777723,-0.029193361258506773
1772642691119560400,5.167560546875,0.02720627909451723,-0.03553659280538559,-0.029198621955513954
1772642691129601500,5.1776015625,0.023835049095749853,-0.051905543804168695,-0.04306377343982458
1772642691139643400,5.187643310546875,-0.007004910326004028,-0.04548749345541,-0.017563421480357645
1772642691149684500,5.1976845703125,0.0015407997012138366,-0.055876785522699354,-0.010870791973918676
1772642691159726300,5.207726318359375,0.019486206236481667,-0.08040800018906592,-0.017395371437072753
1772642691169767400,5.217767333984375,0.009471008178591728,-0.07241057169437408,-0.02960296497270465
1772642691179809300,5.227809326171875,0.0102390699416399,-0.04311491910517216,-0.041793753504008054
1772642691189850400,5.237850341796875,0.007682078935205936,-0.03277472687661648,-0.03922989436537027
1772642691199891500,5.247891357421875,-0.0011623217776417733,-0.034921091255545614,-0.03835033505186438
1772642691209933300,5.257933349609375,0.0008168693408370018,-0.03987608331441879,-0.02964475828781724
1772642691219974400,5.267974365234375,0.00848404296785593,-0.040053777968883514,-0.005610971749573946
1772642691230016500,5.2780166015625,0.016898235569894313,-0.058064066433906554,-0.004021364470571279
1772642691240057300,5.288057373046875,0.013922142368555069,-0.06236907015144825,0.0016131342850625515
1772642691250099500,5.298099365234375,0.01021510454416275,-0.05380757803320885,0.0019157704934477805
1772642691260140500,5.308140625,0.018863982684910297,-0.05381283873021602,0.003355886299163103
1772642691270181400,5.318181396484375,0.018391688998043536,-0.05104921923577785,0.02037161076888442
1772642691280223500,5.328223388671875,0.01038023197799921,-0.03504851702749729,0.02832593077421188
1772642691290264300,5.338264404296875,0.010135609567165374,-0.03702478553652763,0.029788258411735293
1772642691300306400,5.348306396484375,0.00900602101534605,-0.046998482540249825,0.0372169471077621
1772642691310347300,5.35834716796875,0.020744097343087194,-0.059605450657010076,0.04458323809206485
1772642691320389600,5.3683896484375,0.0316495222389698,-0.0723573802024126,0.0533968052752316
1772642691330430500,5.378430419921875,0.03300941241532564,-0.06601005700230599,0.034184155283123255
1772642691340472600,5.38847265625,0.021889175724983213,-0.06363222195506095,0.03448328436017036
1772642691350513400,5.398513427734375,0.016683423775434494,-0.08360767301321029,0.02930938885360956
1772642691360554500,5.408554443359375,0.021108839002251623,-0.0703530546426773,0.021337387061119078
1772642691370596400,5.418596435546875,0.016598375840485097,-0.06336041927635669,0.02782411873191595
1772642691380637400,5.428637451171875,0.013524959744513034,-0.048452188479900356,0.029053514396399256
1772642691390679300,5.43867919921875,0.028112288023531436,-0.04000935430526733,0.03481865379437804
1772642691400720400,5.448720458984375,0.013321546126902103,-0.056821957418322556,0.026234949844330547
1772642691410762200,5.45876220703125,0.024189269360899924,-0.05640577783286571,0.014079232626408337
1772642691420803300,5.46880322265625,0.02437806993126869,-0.06970131273567676,0.007174860065430402
1772642691430844400,5.478844482421875,0.034946225696802134,-0.07700900540053844,0.011751666461676358
1772642691440886500,5.488886474609375,0.029438275930285453,-0.07676935142576694,0.014006167390197515
1772642691450927600,5.498927734375,0.037137013739347455,-0.07382394562363624,0.02210281847566366
1772642691460969500,5.508969482421875,0.03457797690629959,-0.06369768840670585,0.007139934882521629
1772642691471010600,5.519010498046875,0.01699205133318901,-0.0753460406243801,0.003139174808561802
1772642691481052400,5.529052490234375,0.020086217956244944,-0.0746405227035284,0.010512772316485643
1772642691491093500,5.539093505859375,0.023593933816254138,-0.07258943539261818,0.003745908530056476
1772642691501134300,5.54913427734375,0.028442250630259513,-0.08695230726599693,0.004009527902305126
1772642691511176400,5.559176513671875,0.05264700982123613,-0.059406713214516634,-0.009911883813887834
1772642691521217300,5.56921728515625,0.06300444544553756,-0.05059621477127075,-0.026077567325532434
1772642691531259400,5.57925927734375,0.039110944160819054,-0.020006430718302725,-0.03610723230019212
1772642691541300200,5.58930029296875,0.022761866906285285,-0.02019230867922306,-0.050950873427838085
1772642691551342600,5.599342529296875,0.0140884388461709,-0.004722936868667602,-0.05788154947385191
1772642691561383400,5.609383544921875,0.0077037062451243395,-0.01701250959932804,-0.07070332938507198
1772642691571425500,5.619425537109375,0.024480653522908687,-0.02778174089491367,-0.056801791413128376
1772642691581466400,5.62946630859375,0.038030747708678245,-0.03224865717589855,-0.0626313743494451
1772642691591507500,5.639507568359375,0.040614334461092944,-0.037464345997571945,-0.060456076136976476
1772642691601549300,5.64954931640625,0.052508770394325256,-0.026467151165008543,-0.05057999428883195
1772642691611590400,5.65959033203125,0.0424900652050972,-0.0233276840955019,-0.05173968571797013
1772642691621632300,5.66963232421875,0.02608691967576742,-0.04759937104284763,-0.05083630713745951
1772642691631673300,5.67967333984375,0.02096212400794029,-0.05741933878958225,-0.028182138389348983
1772642691641715200,5.689715087890625,0.02571779410243034,-0.05153437240421772,-0.02703077639713883
1772642691651756300,5.69975634765625,0.02900397616624832,-0.0484632943958044,-0.007906827601790428
1772642691661798400,5.70979833984375,0.03440086677372455,-0.03944645972549915,-0.0033349896416068076
1772642691671839500,5.719839599609375,0.04587795407772064,-0.02697100903391838,-0.013050327970087528
1772642691681880600,5.729880615234375,0.03701046475023031,-0.0342681803047657,-0.009171879101544617
1772642691691922400,5.73992236328125,0.019097206918895243,-0.037194296884536744,0.004561462696641683
1772642691701963500,5.749963623046875,0.020582477040588854,-0.05923486377894878,0.015106822108477353
1772642691712005400,5.76000537109375,0.03606763094216585,-0.06784311764836311,0.03186374951153993
1772642691722046500,5.77004638671875,0.03164776867330074,-0.06979249815046787,0.01748494941666722
1772642691732088300,5.78008837890625,0.06656564505845308,-0.06968553064465523,0.025144524259120223
1772642691742129400,5.79012939453125,0.0761588183119893,-0.04132394403517246,-0.000030979660153388974
1772642691752170200,5.800170166015625,0.06316314313858747,-0.020648820275068282,-0.026656243996322153
1772642691762212400,5.81021240234375,0.05296849686056375,-0.032817396974563595,-0.029863661735504865
1772642691772253200,5.820253173828125,0.03801613466143608,-0.035817163312435146,-0.050454468213021755
1772642691782295600,5.830295654296875,0.007206278117001056,-0.02915770542323589,-0.057457771103829144
1772642691792336400,5.84033642578125,0.010654665005207061,-0.025424364113807676,-0.05006342306882143
1772642691802378500,5.85037841796875,0.018408055610954762,-0.020664017844200133,-0.038558424844592806
1772642691812419300,5.86041943359375,0.04103577474355698,-0.032083237481117244,-0.026669834130257367
1772642691822460400,5.87046044921875,0.05353957474678755,-0.027881694138050077,-0.020117197616398335
1772642691832502300,5.880502197265625,0.046342648980021474,-0.027744916015863416,-0.025895488756895065
1772642691842543400,5.89054345703125,0.03400456093251705,-0.04085223487019539,-0.01936418729200959
1772642691852585200,5.900585205078125,0.02049246066957712,-0.02633621826171875,-0.007647299882769585
1772642691862626300,5.910626220703125,0.012827332869172096,-0.0371089566886425,-0.009682458972185849
1772642691872668400,5.92066845703125,0.010041793803870677,-0.04764963992536068,-0.01875511548295617
1772642691882709500,5.93070947265625,0.03296908040493726,-0.03087269264757633,-0.020292992574721575
1772642691892751400,5.94075146484375,0.030700258690118786,-0.04259586366713047,-0.02317424709945917
1772642691902792400,5.95079248046875,0.046398470820486544,-0.027641455641388892,-0.015202975959330796
1772642691912833500,5.96083349609375,0.037056057457625864,-0.017570728003978728,-0.01603665030449629
1772642691922875400,5.97087548828125,0.029380116002261637,-0.017433949881792067,-0.00435965651422739
1772642691932916500,5.98091650390625,0.01004471641331911,-0.032332243806123734,-0.013174538871645927
1772642691942958300,5.990958251953125,0.01865735419690609,-0.046294133663177486,0.0035934944473206996
1772642691952999400,6.00099951171875,0.04079407494217157,-0.03796060508191585,0.014339198736846446
1772642691963041300,6.011041259765625,0.054581777276098725,-0.03551321192979812,0.026193156529217956
1772642691973082400,6.021082275390625,0.04435819716453552,-0.035384617114067075,0.0393961908429861
1772642691983124500,6.03112451171875,0.047102235175669194,-0.04190905044674873,0.019397358909249304
1772642691993165600,6.04116552734375,0.05109013576805591,-0.048422962385416025,0.023516338535398244
1772642692003206400,6.051206298828125,0.03718202192485332,-0.05863982049524784,0.02259805464670062
1772642692013248500,6.06124853515625,0.03226619283258915,-0.07020750869214534,0.016191256344318387
1772642692023289300,6.071289306640625,0.030226795959472655,-0.04741816925704479,-0.001167728605121374
1772642692033331500,6.08133154296875,0.037273499600589274,-0.04514262554049492,-0.02990165565833449
1772642692043372300,6.091372314453125,0.016978315068781374,-0.04006546840667724,-0.021489655013382434
1772642692053414400,6.101414306640625,0.01795709697306156,-0.03304419146776199,-0.03008183453083038
1772642692063455200,6.111455322265625,0.005109890359640121,-0.043210780695080754,-0.01781856528520584
1772642692073497300,6.121497314453125,0.028697394435107708,-0.05427285745739936,-0.024440467642992732
1772642692083538200,6.1315380859375,0.037435412164032456,-0.05108429054915905,-0.023413608813285827
1772642692093579300,6.141579345703125,0.05032324304878712,-0.06399813265800476,-0.027292934464663264
1772642692103621400,6.151621337890625,0.06725801123678683,-0.06029051031172275,-0.01684650538265705
1772642692113662500,6.161662353515625,0.07315320675522088,-0.060711366072297095,-0.025698212619125842
1772642692123704300,6.171704345703125,0.061358431804180144,-0.0342027138531208,-0.029343437253683803
1772642692133745400,6.181745361328125,0.060959203353524206,-0.008193243327736854,-0.02636924374848604
1772642692143787300,6.191787353515625,0.052092590808868404,-0.003192074039578438,-0.016798428457230327
1772642692153828400,6.201828369140625,0.07544979325979947,-0.000630114597082138,-0.027369360701739787
1772642692163870200,6.2118701171875,0.07482786196917295,-0.013924480456113815,-0.03220481803417206
1772642692173911300,6.221911376953125,0.05893734213709831,-0.017031214299798012,-0.041757659277319906
1772642692183952400,6.231952392578125,0.06013385844528675,-0.005562310302257538,-0.03649287061691284
1772642692193994200,6.241994140625,0.044622108797729015,-0.006969839012622833,-0.03630903848260641
1772642692204035300,6.252035400390625,0.05605769504755735,-0.02100479410588741,-0.028563831183314323
1772642692214077400,6.262077392578125,0.03436813354790211,-0.010206921237707138,-0.021930676779150962
1772642692224118500,6.272118408203125,0.044560149477422234,-0.028580197796225545,-0.010533522843569516
1772642692234160400,6.282160400390625,0.0710240857720375,-0.050910103026032445,-0.01992167504429817
1772642692244201500,6.292201416015625,0.051093935160338874,-0.0461672924131155,-0.030742490396648645
1772642692254243300,6.302243408203125,0.054797465853393075,-0.058682490593194955,-0.030200930865854025
1772642692264284400,6.312284423828125,0.05496317780911922,-0.055518473604321474,-0.024725714325159787
1772642692274325200,6.3223251953125,0.03615326339900493,-0.07033084281086921,-0.003966273282468319
1772642692284367400,6.332367431640625,0.018574352088570594,-0.07663841852247714,0.003831102595478296
1772642692294408400,6.342408447265625,0.026491116562485692,-0.08523030577898025,0.0002906535096466541
1772642692304450300,6.3524501953125,0.04334375942498445,-0.05468260730206966,-0.01611848336905241
1772642692314491400,6.362491455078125,0.02622983527779579,-0.042886955568194385,-0.007853343848884106
1772642692324533500,6.372533447265625,0.022202479457855223,-0.032900399082899094,0.012008856093138455
1772642692334574300,6.38257421875,0.03138005764782428,-0.03493395073711872,0.0035125381655991077
1772642692344616400,6.392616455078125,0.02231763027012348,-0.0249877262622118,0.014746902754902839
1772642692354657500,6.402657470703125,0.04653671024739742,-0.03642448155581951,0.0046126083619892596
1772642692364698400,6.412698486328125,0.05091214885264635,-0.043881227302551264,0.0031824294283986088
1772642692374740500,6.422740478515625,0.025594752244651315,-0.046774026134610173,0.007754267388582229
1772642692384781300,6.43278125,0.025825346130132674,-0.04488309782147407,0.003298310893028974
1772642692394823400,6.442823486328125,0.024510756400227544,-0.06008534312844276,0.014659662862867117
1772642692404864300,6.4528642578125,0.031413959917426106,-0.07060849070847033,0.024877397755533454
1772642692414906600,6.46290673828125,0.034836920103430744,-0.07001286290287971,0.019174656069278716
1772642692424947500,6.472947509765625,0.04789923077225685,-0.05200082087218761,0.027775895676016807
1772642692434989600,6.482989501953125,0.03415419853627682,-0.025601474246382712,0.025062252803146837
1772642692445030400,6.493030517578125,0.05479249741733074,-0.014569792622327804,0.006605828005820513
1772642692455072500,6.503072509765625,0.058812838974595064,-0.0307563727915287,0.018569237522035837
1772642692465113300,6.51311328125,0.03385521558970213,-0.043104982233047484,0.0034099545739591118
1772642692475154400,6.523154541015625,0.007670680758357047,-0.06697685620784759,0.013345657654851675
1772642692485196300,6.5331962890625,0.006051847384870052,-0.061325114056468004,0.020058891557902095
1772642692495237400,6.5432373046875,0.004900047001242637,-0.0582668955296278,0.012443740379065274
1772642692505279200,6.553279296875,0.008726911813020705,-0.052929626154899594,0.004852846858650446
1772642692515320300,6.5633203125,0.026887422403693198,-0.04562134896814823,0.0013761106587946415
1772642692525362400,6.573362548828125,0.044071196916699404,-0.04854688102602958,0.022924363991618155
1772642692535403500,6.583403564453125,0.03869096518307924,-0.05242869089543819,0.026767010894417763
1772642692545445400,6.5934453125,0.027926410062611103,-0.045045010384917254,0.03798267078325152
1772642692555486500,6.603486572265625,0.012899229061603545,-0.04496726897358894,0.021808511704206467
1772642692565528300,6.6135283203125,0.03411298974305391,-0.07624561981260776,0.001689268261194229
1772642692575569400,6.6235693359375,0.024960838255286215,-0.06142857443094253,-0.00483282698392868
1772642692585610500,6.633610595703125,0.03267418911159038,-0.06843114666938781,-0.003664806117862463
1772642692595652400,6.64365234375,0.05047989491522312,-0.0758604198873043,-0.003385112393647432
1772642692605693400,6.653693359375,0.0507376690685749,-0.056304071024060244,-0.005426116701960563
1772642692615735300,6.6637353515625,0.04882365214079618,-0.04707914656102657,-0.014008797738701104
1772642692625776400,6.6737763671875,0.043481414330005644,-0.03131108406484127,-0.021424919214099645
1772642692635818500,6.683818603515625,0.027397417752444742,-0.015537176349759102,-0.019254297176748512
1772642692645859600,6.693859619140625,0.011471534346044063,-0.022917349728941917,-0.011303630433231592
1772642692655901400,6.7039013671875,-0.00030599720925092693,-0.0379237802028656,-0.008549217158555984
1772642692665942500,6.713942626953125,0.018216624692082403,-0.05312894811928272,-0.02017111976072192
1772642692675983400,6.7239833984375,0.048018473237752914,-0.04246609980762005,-0.010609072297811507
1772642692686025500,6.734025390625,0.06038958677202463,-0.036277766561508176,-0.010418079770356416
1772642692696066300,6.74406640625,0.05205576592981815,-0.03421381976902485,-0.022855244278162715
1772642692706108400,6.7541083984375,0.04735591767579317,-0.029476854375004767,-0.022521628409624097
1772642692716149200,6.764149169921875,0.021080197429656982,-0.015088263538479803,-0.023878449846059083
1772642692726191900,6.77419189453125,0.01596241602450609,-0.024673253485560417,-0.02896744354814291
1772642692736233000,6.78423291015625,0.01556990957558155,-0.025564649367332458,-0.022302140440046785
1772642692746275000,6.794275146484375,0.008116670960187911,-0.030621932756900786,-0.03125964613854885
1772642692756316000,6.80431591796875,0.02121931363940239,-0.04122749792337417,-0.026852351090312
1772642692766357000,6.81435693359375,0.013214870882034302,-0.0629676205664873,-0.016709288869053124
1772642692776398800,6.82439892578125,0.014613339503109455,-0.06857435453236102,-0.01513049524500966
1772642692786440000,6.83443994140625,0.010912439158558844,-0.08292728953361511,-0.0061475628443062305
1772642692796481800,6.844481689453125,0.007919687083363533,-0.09024141193926334,0.001070259580016136
1772642692806523000,6.85452294921875,-0.0028588965624570845,-0.1004471641331911,0.009163549664616584
1772642692816564700,6.864564697265625,0.004861468556523323,-0.09747896197736262,-0.00545782701447606
1772642692826605800,6.874605712890625,-0.008204056982696056,-0.10464578486680984,-0.0177582134000957
1772642692836648000,6.88464794921875,-0.007579787604510784,-0.08881693209409713,-0.008974310702830552
1772642692846689000,6.89468896484375,-0.015463234330713747,-0.0761304690003395,0.008977379442751407
1772642692856731000,6.90473095703125,0.0006727846950292587,-0.06975976492464542,0.002556844875961542
1772642692866772000,6.91477197265625,-0.004405541482567787,-0.06879413476288318,0.01156710367500782
1772642692876813000,6.92481298828125,-0.002769464713335037,-0.07283551910817623,0.01391264388784766
1772642692886855000,6.93485498046875,-0.012263853767514227,-0.067673606300354,0.023335429010540247
1772642692896896000,6.94489599609375,-0.011897066281735896,-0.06871990048289299,0.032859920942038295
1772642692906937900,6.954937744140625,0.0036433249384164807,-0.05529226363301277,0.025684330224245787
1772642692916979000,6.96497900390625,0.012030921794474124,-0.04304477647840976,0.02281578905060887
1772642692927020800,6.975020751953125,0.03936871831417083,-0.026821371430158614,0.009146160138398408
1772642692937062000,6.985061767578125,0.054764732627570624,-0.020201076507568357,0.0016786007367074489
1772642692947104000,6.99510400390625,0.059657765366137025,-0.019707155510783194,-0.010978490132093429
1772642692957145000,7.00514501953125,0.038571722717583176,-0.024569208589196204,-0.013511661871522664
1772642692967187000,7.01518701171875,0.02462853756099939,-0.03310147461295128,-0.021478256836533545
1772642692977228000,7.02522802734375,0.016135726764798162,-0.025631284862756728,-0.020432254914939402
1772642692987268900,7.035268798828125,0.01342705232799053,-0.04757423660159111,-0.014942425327003002
1772642692997311000,7.04531103515625,0.025709318535029887,-0.04105155683457851,-0.006445084486156702
1772642693007351800,7.055351806640625,0.036977439263463016,-0.03829027542769909,-0.005391922171413898
1772642693017394000,7.065393798828125,0.023459786042571068,-0.03220949420928955,-0.005734159737825394
1772642693027434800,7.075434814453125,0.01106909102499485,-0.028175124126672745,0.011604805336892603
1772642693037476900,7.085476806640625,0.00722527507841587,-0.04615151032209396,0.027556846097856757
1772642693048772900,7.09677294921875,0.007794599398970603,-0.056285366323590276,0.031612551229447124
1772642693058815000,7.10681494140625,0.028039515048265455,-0.0635123949676752,0.040799774030596016
1772642693068856000,7.11685595703125,0.01087912141084671,-0.0833282715499401,0.02257525829300284
1772642693078898000,7.12689794921875,0.025902503019571303,-0.07014321128427982,0.02527633394524455
1772642693088939000,7.13693896484375,0.031138357846438883,-0.06333236222565174,0.024049276368319987
1772642693098979800,7.146979736328125,0.015656418815255164,-0.06058686290979385,0.022389818723499773
1772642693109022000,7.15702197265625,0.016911387312412263,-0.06393383525013924,0.008906944555044174
1772642693119062800,7.167062744140625,0.01583615929633379,-0.06756956140398979,0.021669980016350746
1772642693129105000,7.17710498046875,0.026564181798696518,-0.051667058873176575,0.003656038289517164
1772642693139145700,7.187145751953125,0.03750818513929844,-0.05756839187145233,-0.007135989359766244
1772642693149187800,7.197187744140625,0.042621582630276676,-0.050339609661698335,0.003110533235967159
1772642693159229000,7.20722900390625,0.02484218031167984,-0.05548924750983715,-0.01621609852463007
1772642693169271000,7.21727099609375,0.015467325983941554,-0.05937631807625293,-0.009245528859645127
1772642693179311900,7.227311767578125,0.035142917312681675,-0.05451835665106773,-0.010562456677109002
1772642693189354000,7.23735400390625,0.022414953164756297,-0.057924365702271455,-0.010794511867314576
1772642693199394800,7.247394775390625,0.017569851221144198,-0.04622048390507698,-0.016633008762449025
1772642693209436000,7.257435791015625,0.03633651101142168,-0.049210897892713545,-0.03417874845564365
1772642693219478000,7.26747802734375,0.04386866008192301,-0.04530161549448967,-0.044675592550635336
1772642693229518800,7.277518798828125,0.020366496202349663,-0.04190495879352092,-0.04354045104086399
1772642693239561000,7.28756103515625,0.019353227506577968,-0.05482113898992538,-0.045454467968642706
1772642693249601800,7.297601806640625,0.011207914973795413,-0.054366380959749216,-0.051164808439463375
1772642693259644000,7.307643798828125,-0.0001344400346279144,-0.042754853621125216,-0.03353752794265747
1772642693269684700,7.317684814453125,-0.0023977087914943693,-0.04998538939654827,-0.03538008706942201
1772642693279727000,7.32772705078125,0.015180033475160597,-0.04463876767158508,-0.04412658036574721
1772642693289768000,7.337767822265625,0.012856266702711582,-0.041271337065100666,-0.016771248189359902
1772642693299810000,7.34781005859375,0.017654899156093598,-0.03343465209007263,-0.006475625754892826
1772642693309851000,7.357850830078125,0.018125147016346453,-0.031176644030213353,-0.0030946050144732
1772642693319893000,7.36789306640625,0.01918459294140339,-0.039543490359187125,0.012533318358659744
1772642693329933800,7.377933837890625,-0.00022387188374996183,-0.026461890468001365,0.03241071586981416
1772642693339975000,7.387974853515625,-0.00066401686668396,-0.0446031118363142,0.032157033369690176
1772642693350016800,7.398016845703125,0.0054226095706224435,-0.06287818871736527,0.036481618570536375
1772642693360057900,7.408057861328125,0.021569442251324653,-0.08075169906020165,0.03157835669890046
1772642693370099700,7.418099609375,0.021233342164754865,-0.07098784541487693,0.042174277254194016
1772642693380140800,7.428140869140625,0.004191314209997654,-0.0862350989073515,0.028318478120118378
1772642693390183000,7.438182861328125,0.013546294793486595,-0.06915478476881981,0.022646423833072183
1772642693400224000,7.44822412109375,0.023185645276308058,-0.060301616227626795,0.026502807000279426
1772642693410265900,7.458265869140625,0.019055705864727497,-0.050506782922148705,0.022458207784593103
1772642693420307000,7.468306884765625,0.011204700103402137,-0.05083236161470413,0.018866905294358728
1772642693430348800,7.478348876953125,0.01903553985953331,-0.04572013316750526,0.01924859808832407
1772642693440390000,7.488389892578125,0.013408639888465404,-0.058116088882088655,0.02265036935582757
1772642693450431700,7.498431640625,0.012664543522894381,-0.04912438865303993,0.012239888370037078
1772642693460472800,7.508472900390625,0.021005086366832255,-0.05581131907105445,-0.0065406538151204585
1772642693470514700,7.5185146484375,0.03378478070199489,-0.06471884814798831,-0.0207744924813509
1772642693480555800,7.5285556640625,0.030086802966892718,-0.06658347297608852,-0.01968392076566815
1772642693490598000,7.538597900390625,0.032958266749978066,-0.051690439748764035,-0.024146599262952803
1772642693500639000,7.548638916015625,0.042461715893447396,-0.056307578155398365,-0.06424187828600406
1772642693510680800,7.558680908203125,0.03955810340642929,-0.031461890712380404,-0.058578153435885905
1772642693520722000,7.568721923828125,0.034303836140036584,-0.011403437545895576,-0.06705620505437254
1772642693530763000,7.578762939453125,0.038493396784365176,-0.011045710149407386,-0.0719260030478239
1772642693540804900,7.588804931640625,0.03195230457782745,-0.023089783686399457,-0.06858604497015476
1772642693550846000,7.598845947265625,0.04113222085535526,-0.022265023300051687,-0.078842212177068
1772642693560887800,7.6088876953125,0.03586304828077554,-0.009182254365086556,-0.07392711373716593
1772642693570929000,7.618928955078125,0.04153291061073541,-0.02077390795946121,-0.06727656980678438
1772642693580971000,7.628970947265625,0.05000058696568012,-0.021445523610711097,-0.0701167616687715
1772642693591012000,7.63901220703125,0.05799538511186838,-0.03899053265154361,-0.06319836058244109
1772642693601054000,7.649053955078125,0.044832828938961025,-0.03132102093696594,-0.05161839742586016
1772642693611095000,7.659094970703125,0.033680735805630684,-0.0484632943958044,-0.03902721140012145
1772642693621137000,7.669136962890625,0.018956044882535935,-0.062005497536063194,-0.042013825995475054
1772642693631178000,7.679177978515625,0.03814326817244291,-0.03995499376952648,-0.029120880544185636
1772642693641219800,7.6892197265625,0.03633884909898043,-0.0505418542355299,-0.016215075611323116
1772642693651261000,7.699260986328125,0.02559241415709257,-0.06158931795060634,-0.010936404556035995
1772642693661301800,7.7093017578125,0.02257306633591652,-0.04736263967752456,0.0010511164881289005
1772642693671343900,7.71934375,0.019169979894161224,-0.05138590384423732,0.028112288023531436
1772642693681384700,7.729384765625,0.014326923777163028,-0.03104921825826168,0.018511515985429286
1772642693691427000,7.739427001953125,0.010950725342333316,-0.04855389528870582,0.015927929233014584
1772642693701468000,7.749468017578125,0.023296996696293353,-0.03518821775913238,0.026102701766788958
1772642693711510000,7.759510009765625,0.04527268166095018,-0.03536591241359711,0.03953749900981784
1772642693721550800,7.76955078125,0.02814385220557451,-0.045531332597136494,0.019570231258124113
1772642693731593000,7.779593017578125,0.01963233670890331,-0.06270166310667992,0.018466946191340684
1772642693741633800,7.7896337890625,0.015326163947582244,-0.0596609802365303,0.01643967814743519
1772642693751676000,7.799676025390625,0.01424889010488987,-0.08190496074855327,0.019355857855081558
1772642693761716700,7.809716796875,0.004078793746232986,-0.08999649726748465,0.013290420336276292
1772642693771759000,7.819759033203125,0.007393325121700763,-0.09034019613862038,0.03843655203059315
1772642693781800000,7.829800048828125,0.0014800094246864319,-0.07546879022121429,0.01593318993002176
1772642693791841000,7.839841064453125,0.020541852769255638,-0.06862929958999156,0.008671966755390167
1772642693801883000,7.8498828125,0.035436639562249184,-0.06053308689594268,0.005884966385364532
1772642693811924000,7.859924072265625,0.035572248640656466,-0.05535480747520923,-0.0026264029808342453
1772642693821965800,7.8699658203125,0.016443769800662995,-0.0369692559570074,-0.015188070651143788
1772642693832007000,7.8800068359375,0.006178396373987197,-0.057148120632767675,-0.014456833767145872
1772642693842048800,7.890048828125,0.00800035110414028,-0.04607844508588314,-0.02336070958226919
1772642693852089900,7.90008984375,0.005439268444478512,-0.04944178403913974,-0.018776888923346995
1772642693862131700,7.910131591796875,0.007929331694543362,-0.04573299264907837,-0.020042086553573608
1772642693872172800,7.9201728515625,0.011509820529818535,-0.052963528424501416,-0.01737915095463395
1772642693882215000,7.93021484375,0.00969312649667263,-0.05612520732581615,-0.008330898232758045
1772642693892256000,7.940256103515625,0.015268880802392958,-0.0604582680940628,-0.00933642201349139
1772642693902297900,7.9502978515625,0.004205634996294975,-0.06300444544553756,0.0028143267683684824
1772642693912339000,7.9603388671875,0.0017906828090548514,-0.05612403828203678,-0.014267740935832262
1772642693922380000,7.970380126953125,0.017352993600070477,-0.05316226586699486,-0.013776596418023108
1772642693932422000,7.980421875,0.025723931582272052,-0.042429859450459476,-0.011739245371520518
1772642693942463000,7.990462890625,0.0479535913079977,-0.017901567393541335,-0.015838351253420115
1772642693952504800,8.0005048828125,0.03992985932826996,-0.004112111493945122,-0.027233459362387656
1772642693962546000,8.0105458984375,0.03806815710961819,-0.010704933887720107,-0.022377689894288778
1772642693972587800,8.020587890625,0.022169746232032776,-0.025094693768024444,-0.024251228681206702
1772642693982628900,8.03062890625,0.006249708044528961,-0.03240121738910675,-0.02840834836065769
1772642693992671000,8.0406708984375,-0.002266191366314888,-0.05469137513041496,-0.023326661182194945
1772642694002712000,8.050712158203124,-0.004565992741286755,-0.05835340476930141,-0.005797434232383966
1772642694012754000,8.06075390625,0.013588380369544028,-0.07898761199712753,-0.01162409455925226
1772642694022795000,8.070794921875,0.031332419113814826,-0.06662322046458721,-0.016934914318472147
1772642694032836900,8.0808369140625,0.053797348900139326,-0.05068798470795154,-0.02840732544735074
1772642694042878000,8.0908779296875,0.029843641860783098,-0.04851239423453808,-0.00810673408806324
1772642694052918800,8.100918701171874,0.010480185221135616,-0.03698796065747738,-0.017368191169202327
1772642694062961000,8.1109609375,-0.01027910969108343,-0.04619651850759983,-0.004391220696270465
1772642694073002000,8.121001953125,0.0010129764348268508,-0.06293021116554737,-0.012045388711243867
1772642694083043800,8.1310439453125,0.020853110675513743,-0.06301087518632412,-0.0063005614489316936
1772642694093085000,8.1410849609375,0.01768646333813667,-0.061845338538289066,-0.008408931905031204
1772642694103127000,8.151126953125,0.020778584134578705,-0.06189093124568462,-0.014077332930266856
1772642694113168100,8.161168212890624,0.004289806148409844,-0.059300330230593674,-0.0014078209713101386
1772642694123210000,8.1712099609375,0.02361117721199989,-0.04860357964932918,-0.0031616789013147353
1772642694133251000,8.1812509765625,0.011527356186509132,-0.052554363101720805,-0.006488339105993509
1772642694143293000,8.19129296875,0.03287877177298069,-0.049585576424002645,-0.028003420821577307
1772642694153334000,8.201333984375,0.0353726344153285,-0.055335518252849575,-0.024441198295354842
1772642694163375900,8.2113759765625,0.03486176228374242,-0.05168225644230842,-0.027335604562610385
1772642694173417000,8.2214169921875,0.03140197721868753,-0.03308335443437099,-0.042445495411008595
1772642694183457800,8.231457763671875,0.024995909568667412,-0.03844108207523823,-0.03432283310145139
1772642694193500200,8.241500244140624,0.03627279812544584,-0.021750644037127495,-0.02107552125453949
1772642694203541000,8.251541015625,0.035388124245405196,-0.017740239351987836,-0.012632833210378884
1772642694213583000,8.2615830078125,0.03623626550734043,-0.01841419309079647,-0.02618891874551773
1772642694223624000,8.2716240234375,0.0461935958981514,-0.030209844824671744,-0.007625088050961494
1772642694233666000,8.281666015625,0.03337561537921428,-0.023610592690110205,-0.021379764898121354
1772642694243707000,8.291706787109375,0.030152561679482458,-0.04082359329760074,-0.019430238265544176
1772642694253749000,8.3017490234375,0.04595160383582115,-0.05462473963499069,-0.0189193661339581
1772642694263789800,8.311789794921875,0.03648234922289848,-0.06691723497509956,-0.009459610001742839
1772642694273832000,8.32183203125,0.03329962753355503,-0.06526186898350715,-0.009455079957097769
1772642694283872800,8.331872802734376,0.034380700768530364,-0.0666150371581316,-0.022967180220037697
1772642694293915100,8.3419150390625,0.01881283701956272,-0.06968436160087585,-0.02148074105456471
1772642694303956000,8.3519560546875,0.01843202100843191,-0.04982581492066383,-0.02317337031662464
1772642694313997000,8.3619970703125,0.026917233020067214,-0.038841479569673536,-0.017344225771725178
1772642694324039000,8.372038818359375,0.037946868817508216,-0.04106149370670319,-0.011435293988883495
1772642694334080000,8.382080078125,0.03822305541038513,-0.032466683840751645,-0.006488485236465931
1772642694344121900,8.392121826171875,0.04278524875938892,-0.0199117381721735,-0.007159516365826129
1772642694354163000,8.402162841796875,0.03130494658499956,-0.021985621836781502,-0.008253595212846994
1772642694364204800,8.412204833984376,0.03196370275467634,-0.03206862443387508,-0.008246727080643177
1772642694374246000,8.422245849609375,0.026768179938197134,-0.04303483960628509,-0.01210953998863697
1772642694384287700,8.432287841796875,0.03510083173662424,-0.051185997357964516,-0.026306846036761998
1772642694394328800,8.442328857421876,0.03470598720014095,-0.05710077435970306,-0.0091312548302114
1772642694404371000,8.452370849609375,0.027169161954522132,-0.05399111790657043,-0.018782295750826596
1772642694414412000,8.462412109375,0.031038112342357635,-0.024924597898125646,-0.02204801954850554
1772642694424454000,8.472453857421876,0.038600072029232976,-0.029500819772481916,-0.021378888115286827
1772642694434495000,8.482494873046875,0.02960954084396362,-0.017275544449687003,-0.03521291380897164
1772642694444536800,8.492536865234374,0.02413841595649719,-0.021754151168465612,-0.04128244298100471
1772642694454578000,8.502577880859375,0.011468903997540473,-0.0342898076146841,-0.016994097159802914
1772642694464619000,8.512618896484375,0.029841303773224352,-0.06333353126943111,-0.00425312739983201
1772642694474660900,8.522660888671876,0.031020576685667035,-0.06548106469213962,0.006053162559121847
1772642694484702000,8.532701904296875,0.033599195002019404,-0.05562485658824443,0.004740910916775465
1772642694494743800,8.542743896484374,0.04093582150042057,-0.05202829340100288,0.008005027279257775
1772642694504785000,8.552784912109376,0.024165303963422775,-0.04111702328622341,-0.008863836065679788
1772642694514827000,8.562826904296875,0.006033434945344925,-0.04025076184570789,-0.004247428311407566
1772642694524868000,8.5728681640625,0.001609188762307167,-0.06841653362214564,0.005952332533150911
1772642694534910000,8.582909912109375,0.01148907000273466,-0.07017769807577133,0.0056042497478425496
1772642694544951000,8.592950927734375,0.000339022696018219,-0.06526596063673495,0.011901596326380968
1772642694554993000,8.602992919921874,0.0008127776876091957,-0.06223521463871002,0.00993555695042014
1772642694565034000,8.613033935546875,0.01990209356099367,-0.046429742741584776,-0.0028740941315889357
1772642694575075800,8.623075927734375,0.023035130889713762,-0.04948679222464561,0.007663958756625652
1772642694585117000,8.633116943359376,0.01435293500125408,-0.04798632453382015,0.012556260842829943
1772642694595158800,8.64315869140625,-0.004007482075691223,-0.051177229529619214,0.010087678772211074
1772642694605200000,8.653199951171874,-0.005087678527832031,-0.07004618065059184,0.006824439192563295
1772642694615241000,8.663240966796875,-0.001798281593620777,-0.07163081949353217,0.009609101475030184
1772642694625283000,8.673282958984375,0.0043438744232058525,-0.058576107609272,0.00029956746846437454
1772642694635324000,8.683323974609374,0.023410686203837395,-0.042514615124464035,0.009425269340723753
1772642694645366000,8.693365966796875,0.024260581031441686,-0.022992753052711486,0.014471592944860457
1772642694655406800,8.70340673828125,0.017353285861015318,-0.041432665106654165,0.007614566656947135
1772642694665449000,8.713448974609374,0.009833996272087097,-0.04590191947519779,0.01267784139588475
1772642694675489800,8.72348974609375,0.010706395192444323,-0.049181671798229215,0.020646189926564692
1772642694685532000,8.733531982421875,0.007774141132831573,-0.04161445141434669,0.015176818604767321
1772642694695572700,8.74357275390625,0.021344401323795316,-0.03689151454567909,0.012935615549236536
1772642694705615000,8.753614990234375,0.03308043182492256,-0.029595512318611142,0.00445464132130146
1772642694715656000,8.763656005859374,0.017654899156093598,-0.04787117372155189,0.005612579184770584
1772642694725697500,8.773697509765626,0.013666121780872344,-0.0588332972407341,0.016285656629502772
1772642694735738600,8.783738525390625,0.008412439036369323,-0.07209434535205364,0.008305909921973944
1772642694745780500,8.793780517578124,0.016188333734869956,-0.09483166233897208,0.019350304897129536
1772642694755821600,8.803821533203125,0.03631634500622749,-0.08004618113934993,0.01177212472781539
1772642694765862400,8.8138623046875,0.039245968717336654,-0.04636661437749862,-0.013988631733506916
1772642694775904500,8.823904541015626,0.029064766442775725,-0.04964285956919193,-0.010344283881783484
1772642694785945300,8.8339453125,0.01554682096093893,-0.04863455930948257,-0.02080678731575608
1772642694795987500,8.843987548828125,0.005491583153605461,-0.04423194043636322,-0.021527356675267218
1772642694806028300,8.8540283203125,0.02590484110713005,-0.044538814428448675,-0.025375118144601583
1772642694816070400,8.8640703125,0.04135755404382944,-0.04522387408316135,-0.027297464509308336
1772642694826111200,8.874111328125,0.049940673471987246,-0.039032033705711365,-0.03215279558598995
1772642694836153600,8.884153564453126,0.05849193645715713,-0.011332125875353812,-0.03670008362680673
1772642694846194400,8.8941943359375,0.036815818960964676,-0.011755319723486899,-0.044738282523304224
1772642694856236500,8.904236572265624,0.042320553857088085,-0.030748189485073088,-0.03410159156620502
1772642694866277400,8.91427734375,0.028601240584254263,-0.041653614380955696,-0.032170038981735705
1772642694876319500,8.924319580078125,0.0622863603040576,-0.08231120346188545,-0.034225656337291
1772642694886360300,8.9343603515625,0.06817892547398806,-0.03920505218505859,-0.008922434385120867
1772642694896402400,8.94440234375,0.04096124820262193,0.019133155015110967,-0.005171995810419321
1772642694906443300,8.954443359375,0.025708441752195357,0.025163082829117774,-0.03305646642744541
1772642694916485600,8.964485595703126,0.03294248465895652,-0.044607203489542,-0.03580693417936563
1772642694926526500,8.9745263671875,0.04143967936933041,-0.09156301593184471,-0.006835398977994918
