time,seconds_elapsed,z,y,x
1772642686008479700,0.056479736328125,-0.011236709542572498,-0.009069816209375858,-0.031756021082401276
1772642686018520800,0.066520751953125,-0.010377041064202785,-0.006768311373889446,-0.031386908143758774
1772642686028562700,0.076562744140625,-0.009917580522596836,-0.002855326049029827,-0.03124067559838295
1772642686038603800,0.086603759765625,-0.015589581802487373,0.003984470386058092,-0.025787055492401123
1772642686048645600,0.096645751953125,-0.013934776186943054,0.01013062335550785,-0.02305915392935276
1772642686058686700,0.106686767578125,-0.015916699543595314,0.013831883668899536,-0.020377883687615395
1772642686068727800,0.116727783203125,-0.015600151382386684,0.01579010672867298,-0.014321979135274887
1772642686078769700,0.126769775390625,-0.015678448602557182,0.01801304891705513,-0.0151803158223629
1772642686088810800,0.136810791015625,-0.018835589289665222,0.01793474704027176,-0.01745508424937725
1772642686098852900,0.146852783203125,-0.01731891930103302,0.01967672072350979,-0.01679675094783306
1772642686108894000,0.15689404296875,-0.016027258709073067,0.02017212100327015,-0.018174413591623306
1772642686118935800,0.166935791015625,-0.015646692365407944,0.021220341324806213,-0.01609288714826107
1772642686128977000,0.176976806640625,-0.015436855144798756,0.02134460210800171,-0.015303676947951317
1772642686139017700,0.187017822265625,-0.016295989975333214,0.021400796249508858,-0.01645576022565365
1772642686149059800,0.197059814453125,-0.011900212615728378,0.02195979654788971,-0.017587702721357346
1772642686159100700,0.2071005859375,-0.01241979468613863,0.020748857408761978,-0.018626069650053978
1772642686169142800,0.217142822265625,-0.014744468964636326,0.016887007281184196,-0.01977575570344925
1772642686179183600,0.22718359375,-0.015208868309855461,0.016707083210349083,-0.0219837985932827
1772642686189224700,0.237224609375,-0.01585632935166359,0.01270845253020525,-0.023454003036022186
1772642686199266600,0.2472666015625,-0.016385233029723167,0.01463817898184061,-0.02685859054327011
1772642686209307600,0.2573076171875,-0.016275255009531975,0.01477485429495573,-0.029757816344499588
1772642686219349800,0.267349853515625,-0.015403867699205875,0.016331739723682404,-0.028059251606464386
1772642686229390800,0.277390869140625,-0.014650587923824787,0.01947661302983761,-0.019010476768016815
1772642686239432000,0.287431884765625,-0.015449803322553635,0.02478029951453209,-0.010642291978001595
1772642686249473800,0.297473876953125,-0.015755396336317062,0.031162826344370842,-0.005516016855835915
1772642686259515000,0.307514892578125,-0.016114655882120132,0.03909851610660553,-0.006762376055121422
1772642686269556700,0.317556640625,-0.014783552847802639,0.03900434076786041,-0.0048374636098742485
1772642686279597800,0.327597900390625,-0.013493518345057964,0.03572492301464081,-0.0031447582878172398
1772642686289639700,0.3376396484375,-0.01302877813577652,0.02861892059445381,-0.006890078075230122
1772642686299680800,0.3476806640625,-0.010274803265929222,0.022259026765823364,-0.01151412446051836
1772642686309721600,0.3577216796875,-0.0075150891207158566,0.013587666675448418,-0.02033904567360878
1772642686319763700,0.367763671875,-0.005934502463787794,0.007656541187316179,-0.0247910525649786
1772642686329804500,0.377804443359375,-0.006928467191755772,-0.0010516756447032094,-0.02157381735742092
1772642686339847000,0.387846923828125,-0.008650734089314938,-0.006791053805500269,-0.02041907049715519
1772642686349887700,0.3978876953125,-0.004831843078136444,-0.01032921951264143,-0.01757878251373768
1772642686359928800,0.4079287109375,-0.004318385850638151,-0.014116235077381134,-0.01532814558595419
1772642686369970700,0.417970703125,-0.002201411407440901,-0.01950296014547348,-0.014696985483169556
1772642686380011800,0.42801171875,0.0021552536636590958,-0.02171817608177662,-0.014472747221589088
1772642686390053600,0.4380537109375,0.009293131530284882,-0.02841954119503498,-0.015108047053217888
1772642686400094700,0.4480947265625,0.01469588652253151,-0.03451045975089073,-0.01553441770374775
1772642686410135800,0.4581357421875,0.018020227551460266,-0.0412243977189064,-0.017992157489061356
1772642686420177700,0.468177734375,0.02273375540971756,-0.04673208296298981,-0.02126278541982174
1772642686430218800,0.47821875,0.02639159932732582,-0.05119361728429794,-0.025153502821922302
1772642686440260600,0.488260498046875,0.029352236539125443,-0.058128491044044495,-0.02767738327383995
1772642686450301700,0.4983017578125,0.03021625615656376,-0.0605042427778244,-0.029407091438770294
1772642686460343800,0.50834375,0.03107272833585739,-0.06649848073720932,-0.031814590096473694
1772642686470385000,0.518385009765625,0.031152796000242233,-0.06844428926706314,-0.02828066051006317
1772642686480425700,0.52842578125,0.032419394701719284,-0.07056257128715515,-0.02369416318833828
1772642686490467800,0.5384677734375,0.031067760661244392,-0.0668928399682045,-0.02105114422738552
1772642686500508700,0.5485087890625,0.029284773394465446,-0.06262059509754181,-0.01779569499194622
1772642686510550800,0.55855078125,0.028683321550488472,-0.05859166756272316,-0.014417903497815132
1772642686520591600,0.568591552734375,0.026308847591280937,-0.0515340231359005,-0.014669572934508324
1772642686530632700,0.5786328125,0.024580474942922592,-0.04119233042001724,-0.011211575008928776
1772642686540674600,0.588674560546875,0.02384411171078682,-0.03672434389591217,-0.006676211953163147
1772642686550715600,0.598715576171875,0.02137700468301773,-0.032436493784189224,-0.0037436652928590775
1772642686560757800,0.6087578125,0.019233692437410355,-0.02537778578698635,-0.003296254202723503
1772642686570798800,0.618798828125,0.014470105059444904,-0.025161325931549072,-0.004955828655511141
1772642686580840700,0.6288408203125,0.011686036363244057,-0.024330420419573784,-0.005885271355509758
1772642686590881800,0.6388818359375,0.00968377199023962,-0.027161091566085815,-0.004243021365255117
1772642686600923000,0.6489228515625,0.006160142831504345,-0.027157630771398544,-0.001673603430390358
1772642686610964700,0.65896484375,0.003867500927299261,-0.026944097131490707,0.0022411076352000237
1772642686621005800,0.669005859375,0.0007939466158859432,-0.026588033884763718,0.004456059075891972
1772642686631047700,0.679047607421875,0.00010473915608599782,-0.02110421098768711,0.0059084296226501465
1772642686641088800,0.6890888671875,-0.0020502908155322075,-0.016383225098252296,0.004084164276719093
1772642686651129600,0.699129638671875,-0.006673869211226702,-0.012729902751743793,0.00029659317806363106
1772642686661171700,0.709171630859375,-0.0075242165476083755,-0.010104293003678322,-0.004527722951024771
1772642686671212800,0.719212890625,-0.008554740808904171,-0.01175561174750328,-0.009648444131016731
1772642686681255000,0.7292548828125,-0.006327006034553051,-0.010954266414046288,-0.00931368488818407
1772642686691295700,0.739295654296875,-0.005693247076123953,-0.008082259446382523,-0.009230725467205048
1772642686701336800,0.7493369140625,-0.004076708573848009,-0.005133608356118202,-0.006110565271228552
1772642686711378700,0.759378662109375,-0.0022266749292612076,-0.0030507990159094334,-0.001106045674532652
1772642686721420000,0.769419921875,-0.0021521064918488264,-0.004211671184748411,0.0057105813175439835
1772642686731462000,0.7794619140625,-0.001332688145339489,-0.00470909895375371,0.010267221368849277
1772642686741503000,0.7895029296875,0.0011653568362817168,-0.009039132855832577,0.009240838699042797
1772642686751544800,0.799544921875,0.0030105875339359045,-0.009631899185478687,0.006783409044146538
1772642686761586000,0.8095859375,0.005030861124396324,-0.012423690408468246,0.007893946953117847
1772642686771627000,0.819626953125,0.00721809733659029,-0.01322354655712843,0.0037302118726074696
1772642686781668900,0.8296689453125,0.008136088959872723,-0.014071496203541756,0.0034066378138959408
1772642686791710000,0.8397099609375,0.006575421430170536,-0.015698792412877083,0.003843147773295641
1772642686801752000,0.849751953125,0.005533060524612665,-0.016264714300632477,0.003935559652745724
1772642686811793200,0.859793212890625,0.004795566201210022,-0.017410676926374435,0.007645852398127317
1772642686821834000,0.869833984375,0.0041825068183243275,-0.01695740595459938,0.0086424071341753
1772642686831876000,0.8798759765625,0.004279684741050005,-0.017665591090917587,0.008127361536026001
1772642686841917000,0.8899169921875,0.006787849590182304,-0.016089800745248795,0.00723253982141614
1772642686851959000,0.899958984375,0.008379988372325897,-0.015092181041836739,0.006170592270791531
1772642686861999900,0.909999755859375,0.01046790648251772,-0.014724664390087128,0.0040392642840743065
1772642686872042000,0.9200419921875,0.010671599768102169,-0.013833788223564625,0.004828589037060738
1772642686882082800,0.930082763671875,0.010488906875252724,-0.01383831538259983,0.0061628324910998344
1772642686892124000,0.9401240234375,0.01084226556122303,-0.014143985696136951,0.008181839250028133
1772642686902166000,0.950166015625,0.01348039135336876,-0.011470970697700977,0.010122218169271946
1772642686912207000,0.96020703125,0.01399119570851326,-0.01174187008291483,0.01020168885588646
1772642686922249000,0.9702490234375,0.010462506674230099,-0.008420376107096672,0.0094509432092309
1772642686932290000,0.9802900390625,0.01059497706592083,-0.00848466157913208,0.004681916907429695
1772642686942331100,0.9903310546875,0.009619460441172123,-0.0119094867259264,0.0026086464058607817
1772642686952373000,1.000373046875,0.007701819762587547,-0.01588319055736065,-0.0006820997223258018
1772642686962414000,1.0104140625,0.006947878748178482,-0.021510982885956764,-0.003497593803331256
1772642686972456000,1.0204560546875,0.006844501942396164,-0.022826744243502617,-0.0051771230064332485
1772642686982497000,1.0304970703125,0.007200566120445728,-0.02645343728363514,-0.007737752515822649
1772642686992537900,1.040537841796875,0.005386127158999443,-0.028521433472633362,-0.008289017714560032
1772642687002580000,1.050580078125,0.004798633977770805,-0.02947058528661728,-0.011140730232000351
1772642687012620800,1.060620849609375,0.0024294485338032246,-0.031431686133146286,-0.011522394604980946
1772642687022663200,1.0706630859375,0.002017457503825426,-0.03164500743150711,-0.01663459837436676
1772642687032704000,1.0807041015625,0.0016425952780991793,-0.031382787972688675,-0.017881060019135475
1772642687042746000,1.09074609375,-0.0003329375758767128,-0.032093849033117294,-0.0167622659355402
1772642687052787000,1.100786865234375,0.0005836303462274373,-0.02878093346953392,-0.013509227894246578
1772642687062828000,1.110828125,-0.0013476940803229809,-0.023166989907622337,-0.007937896065413952
1772642687072870100,1.1208701171875,0.0007251175120472908,-0.019195472821593285,-0.003281494602560997
1772642687082911000,1.130910888671875,0.0008199260919354856,-0.014726155437529087,-0.0015014377422630787
1772642687092953000,1.140953125,0.0023088445886969566,-0.012216763570904732,0.0013050201814621687
1772642687102994000,1.150993896484375,0.0035879609640687704,-0.009765323251485825,0.005208415444940329
1772642687113035000,1.161034912109375,0.003779836930334568,-0.006411287467926741,0.012151654809713364
1772642687123076900,1.171076904296875,0.006145789287984371,-0.005551352631300688,0.019671356305480003
1772642687133118000,1.181117919921875,0.007804736960679293,-0.0024269293062388897,0.02296464331448078
1772642687143160000,1.19116015625,0.007362385746091604,0.0010711327195167542,0.023215247318148613
1772642687153201200,1.201201171875,0.008282728493213654,0.003479268867522478,0.025637252256274223
1772642687163242000,1.211241943359375,0.00891842506825924,0.0018739153165370226,0.023412181064486504
1772642687173284000,1.2212841796875,0.009633086621761322,0.0026132024358958006,0.02340041473507881
1772642687183325000,1.231324951171875,0.00859631784260273,-0.0007469078409485519,0.022263776510953903
1772642687193367000,1.241366943359375,0.00981055572628975,-0.0011626731138676405,0.024526990950107574
1772642687203408100,1.251408203125,0.007359382696449757,-0.002038853242993355,0.0232289656996727
1772642687213450000,1.261449951171875,0.0071291751228272915,-0.0005865285056643188,0.020821038633584976
1772642687223491000,1.271490966796875,0.0036071443464607,0.0013067126274108887,0.015444116666913033
1772642687233532000,1.281531982421875,0.00275204936042428,0.0011635952396318316,0.011301709339022636
1772642687243574000,1.291573974609375,0.00047824252396821976,0.0002562562585808337,0.007443321403115988
1772642687253614800,1.30161474609375,0.0014708299422636628,0.0010872145649045706,0.003109017387032509
1772642687263657200,1.3116572265625,-0.0011755533050745726,0.0028190682642161846,-0.0025243673007935286
1772642687273698000,1.321697998046875,-0.0005831466987729073,0.004794175736606121,-0.006759321317076683
1772642687283739100,1.3317392578125,0.00018624053336679935,0.0039251865819096565,-0.01245342567563057
1772642687293781000,1.341781005859375,-0.0028901887126266956,0.0038161003030836582,-0.013660656288266182
1772642687303822000,1.351822021484375,-0.0023538279347121716,0.0016754516400396824,-0.011020133271813393
1772642687313864000,1.361864013671875,-0.004797626286745071,0.0009945917408913374,-0.005254358984529972
1772642687323905000,1.371905029296875,-0.004069784190505743,0.001386076444759965,0.0001766253262758255
1772642687333947000,1.38194677734375,-0.002879342995584011,0.00403426680713892,0.004765890073031187
1772642687343988000,1.391988037109375,-0.0020175441168248653,0.005468645598739386,0.004476936999708414
1772642687354029000,1.402029052734375,-0.00234788516536355,0.007406952325254679,0.0037344866432249546
1772642687364071200,1.4120712890625,-0.0016461422201246023,0.006666860077530146,0.0019754685927182436
1772642687374112300,1.4221123046875,-0.0013535069301724434,0.0035454744938760996,0.0034720255061984062
1772642687384154000,1.432154052734375,0.0005344079108908772,0.00010440405458211899,0.0044326274655759335
1772642687394195200,1.4421953125,0.0027192835696041584,-0.00176422786898911,0.003860995639115572
1772642687404236000,1.452236083984375,0.0032244855538010597,-0.002706187777221203,0.0042522139847278595
1772642687414278100,1.462278076171875,0.003518057521432638,-0.001888010185211897,0.0014244818594306707
1772642687424319000,1.472319091796875,0.0033609310630708933,-0.002976444084197283,-0.001427497249096632
1772642687434361000,1.482361083984375,0.00376035925000906,-0.0029206781182438135,-0.0018098002765327692
1772642687444402000,1.49240185546875,0.004887142684310675,-0.004160379525274038,-0.0016726471949368715
1772642687454443000,1.502443115234375,0.005722603760659695,-0.005279120989143848,-0.0015677274204790592
1772642687464484900,1.51248486328125,0.007249127607792616,-0.0055566225200891495,-0.0003397436812520027
1772642687474526000,1.52252587890625,0.007452629506587982,-0.007104236166924238,-0.0009892608504742384
1772642687484568000,1.532568115234375,0.006625451613217592,-0.009826253168284893,0.0009388678008690476
1772642687494609200,1.542609130859375,0.007872812449932098,-0.010609490796923637,-0.00019672350026667118
1772642687504651000,1.552651123046875,0.008765503764152527,-0.00912424549460411,-0.0013935479801148176
1772642687514692000,1.562692138671875,0.008195357397198677,-0.009288566187024117,-0.0013713445514440536
1772642687524733200,1.572733154296875,0.008097886107861996,-0.009165794588625431,-0.001783069223165512
1772642687534775000,1.582775146484375,0.005694852210581303,-0.009775441139936447,0.000008081784471869469
1772642687544816000,1.592816162109375,0.004944905638694763,-0.012118224054574966,-0.0007455928716808558
1772642687554858000,1.60285791015625,0.003547489643096924,-0.01325065828859806,-0.003128236625343561
1772642687564899000,1.612899169921875,0.003628449747338891,-0.009224224835634232,-0.002044063527137041
1772642687574940000,1.62293994140625,0.0018228264525532722,-0.007775465026497841,-0.0036046761088073254
1772642687584982000,1.63298193359375,-0.0012430045753717422,-0.006140018347650766,-0.0073062037117779255
1772642687595022800,1.64302294921875,-0.0027560009621083736,-0.004436764866113663,-0.011646337807178497
1772642687605065200,1.653065185546875,-0.003195688594132662,-0.0052897753193974495,-0.014902318827807903
1772642687615106000,1.66310595703125,-0.004918800201267004,-0.005945339798927307,-0.013550905510783195
1772642687625148200,1.673148193359375,-0.0050535560585558414,-0.010015981271862984,-0.010408641770482063
1772642687635189000,1.68318896484375,-0.008289774879813194,-0.008511723950505257,-0.006107655353844166
1772642687645230000,1.69322998046875,-0.009629610925912857,-0.007874430157244205,-0.004555565305054188
1772642687655272000,1.70327197265625,-0.011039882898330688,-0.004756717476993799,-0.006006300449371338
1772642687665313000,1.71331298828125,-0.011839363723993301,-0.0030823880806565285,-0.006675818935036659
1772642687675355000,1.72335498046875,-0.013062132522463799,-0.0034348880872130394,-0.008139125071465969
1772642687685396000,1.73339599609375,-0.013004342094063759,-0.001289445674046874,-0.011099494993686676
1772642687695437000,1.74343701171875,-0.011618440970778465,-0.002729892497882247,-0.012642369605600834
1772642687705479000,1.75347900390625,-0.008080165833234787,-0.003154932986944914,-0.008628453128039837
1772642687715520000,1.76352001953125,-0.008768060244619846,-0.0017226850613951683,-0.0023716227151453495
1772642687725561000,1.77356103515625,-0.005873662885278463,-0.0014534930232912302,-0.0011866521090269089
1772642687735602200,1.783602294921875,-0.00620994670316577,0.002495122142136097,-0.003143944311887026
1772642687745643300,1.793643310546875,-0.005054933484643698,0.00549117848277092,-0.0037452862598001957
1772642687755685000,1.80368505859375,-0.032091978937387466,0.002758776769042015,-0.0038069263100624084
1772642687765726200,1.813726318359375,-0.02808099053800106,-0.020361723378300667,-0.002652978990226984
1772642687775768000,1.82376806640625,0.011753322556614876,-0.016449429094791412,0.0062557305209338665
1772642687785809200,1.83380908203125,-0.007109314668923616,0.00586093682795763,0.011152485385537148
1772642687795851300,1.843851318359375,-0.00406545028090477,0.001143142580986023,0.0077438619919121265
1772642687805892400,1.853892333984375,-0.00604923814535141,0.000714639900252223,0.009682909585535526
1772642687815933200,1.86393310546875,0.007042051292955875,0.0022164967376738787,0.008555280975997448
1772642687825975300,1.873975341796875,-0.059836313128471375,-0.005221978295594454,0.004771461710333824
1772642687836016000,1.88401611328125,0.047654710710048676,0.006296307314187288,0.005975532345473766
1772642687846058200,1.894058349609375,-0.06539514660835266,-0.000855079444590956,0.00011045252904295921
1772642687856099000,1.90409912109375,0.0524459108710289,0.009127458557486534,0.00003294041380286217
1772642687866140200,1.91414013671875,-0.07148535549640656,0.000776584492996335,-0.0038134632632136345
1772642687876182000,1.92418212890625,0.05454249680042267,0.013805460184812546,0.001716319820843637
1772642687886223000,1.93422314453125,-0.07411933690309525,0.004246043507009745,-0.004122128244489431
1772642687896265000,1.944264892578125,0.05853305011987686,0.01959431916475296,-0.002852734876796603
1772642687906306000,1.95430615234375,-0.07648974657058716,0.005467315670102835,-0.008457357063889503
1772642687916347100,1.96434716796875,0.06343422085046768,0.02046469785273075,-0.003331001615151763
1772642687926389200,1.97438916015625,-0.07703713327646255,0.003979464992880821,-0.005933176726102829
1772642687936430300,1.984430419921875,0.06749984622001648,0.021887829527258873,-0.0010591221507638693
1772642687946472200,1.99447216796875,-0.07866295427083969,0.003531726775690913,-0.004610979929566383
1772642687956513300,2.00451318359375,0.06558269262313843,0.023686587810516357,-0.0014661343302577734
1772642687966555100,2.01455517578125,-0.0782112255692482,0.002530970610678196,-0.01041488815099001
1772642687976596200,2.02459619140625,0.06788437068462372,0.020998340100049973,-0.0069541241973638535
1772642687986637000,2.034636962890625,-0.07708799839019775,-0.00047286355402320623,-0.011749411933124065
1772642687996679200,2.04467919921875,0.07107854634523392,0.022856272757053375,-0.004315150901675224
1772642688006720000,2.054719970703125,-0.07541235536336899,0.0004937088233418763,-0.009471829980611801
1772642688016762400,2.064762451171875,0.07192739099264145,0.023041995242238045,-0.008886116556823254
1772642688026803200,2.07480322265625,-0.07078448683023453,-0.003501464147120714,-0.014845739118754864
1772642688036844300,2.08484423828125,0.06505799293518066,0.018960749730467796,-0.005697017069905996
1772642688046886100,2.09488623046875,-0.060619503259658813,-0.008054088801145554,-0.003886600024998188
1772642688056927200,2.10492724609375,0.05730535089969635,0.013477946631610394,0.00235948758199811
1772642688066969000,2.114968994140625,-0.049595266580581665,-0.008886747993528843,-0.00039235688745975494
1772642688077010200,2.12501025390625,0.050494059920310974,0.012756971642374992,0.0011995206587016582
1772642688087052000,2.135052001953125,-0.037762563675642014,-0.005181815009564161,-0.0038351851981133223
1772642688097093000,2.145093017578125,0.04325944557785988,0.010952419601380825,-0.0009187106043100357
1772642688107134200,2.15513427734375,-0.03460365906357765,-0.006353866308927536,-0.005692159757018089
1772642688117176000,2.165176025390625,0.0402761735022068,0.009443472139537334,-0.004128884524106979
1772642688127217200,2.175217041015625,-0.032571401447057724,-0.00688996072858572,-0.005954215303063393
1772642688137259300,2.18525927734375,0.03161359578371048,0.008934912271797657,-0.0013369896914809942
1772642688147300400,2.19530029296875,-0.03390868753194809,-0.005298085976392031,-0.0010815926361829042
1772642688157341200,2.205341064453125,0.02297237515449524,0.01015250664204359,0.003582642413675785
1772642688167383300,2.21538330078125,-0.034334056079387665,-0.0025268038734793663,0.002984230173751712
1772642688177424100,2.225424072265625,0.014399669133126736,0.012415825389325619,0.003497198922559619
1772642688187466200,2.23546630859375,-0.0324099138379097,-0.0007005090592429042,-0.0011750508565455675
1772642688197507000,2.245507080078125,0.013924098573625088,0.013107703998684883,0.0013018781319260597
1772642688207549200,2.255549072265625,-0.025368979200720787,-0.002061661100015044,-0.005576001480221748
1772642688217590000,2.265590087890625,0.012135523371398449,0.011160624213516712,-0.006340120919048786
1772642688227631000,2.275631103515625,-0.021964922547340393,0.0005756242899224162,-0.0083854291588068
1772642688237673000,2.2856728515625,0.006734972354024649,0.011566170491278172,-0.005492838099598885
1772642688247714000,2.295714111328125,-0.023366738110780716,0.002174266381189227,-0.0044701844453811646
1772642688257756200,2.305756103515625,0.0017736501758918166,0.014215109869837761,-0.0034525953233242035
1772642688267797200,2.31579736328125,-0.021607305854558945,0.0068069943226873875,-0.005496039055287838
1772642688277838300,2.32583837890625,-0.000746417383197695,0.013275968842208385,-0.005712317302823067
1772642688287880200,2.335880126953125,-0.016175707802176476,0.005318176932632923,-0.006190087646245956
1772642688297921300,2.34592138671875,-0.00033213861752301455,0.010718060657382011,-0.005913613364100456
1772642688307963100,2.355963134765625,-0.010944569483399391,0.004576544743031263,-0.00476499181240797
1772642688318004200,2.366004150390625,-0.00027868268080055714,0.008990254253149033,-0.003368028672412038
1772642688328046000,2.376046142578125,-0.008716908283531666,0.006302592810243368,-0.005800826475024223
1772642688338087200,2.386087158203125,-0.001398900174535811,0.01087891310453415,-0.00700378930196166
1772642688348128000,2.3961279296875,-0.007346537429839373,0.005856192205101252,-0.009188646450638771
1772642688358170000,2.406170166015625,-0.0021517022978514433,0.008152049966156483,-0.007083287462592125
1772642688368211000,2.4162109375,-0.005897171795368195,0.0037032393738627434,-0.004487237893044949
1772642688378253300,2.42625341796875,-0.0017619350692257285,0.002820027992129326,-0.0035535385832190514
1772642688388294100,2.436294189453125,-0.0037606372497975826,-0.0002748315455392003,-0.0019447230733931065
1772642688398335200,2.446335205078125,-0.0034950373228639364,-0.0005378411151468754,-0.0031056900043040514
1772642688408377000,2.456377197265625,-0.0006806087330915034,-0.0010968386195600033,-0.0059278421103954315
1772642688418418200,2.466418212890625,0.0007873621652834117,-0.001403904752805829,-0.007086482830345631
1772642688428460000,2.4764599609375,-0.0007317048730328679,-0.0026241650339215994,-0.007026296108961105
1772642688438501000,2.486501220703125,-0.0014971246710047126,-0.00542639521881938,-0.006363159045577049
1772642688448542200,2.496542236328125,-0.002367445733398199,-0.005031981039792299,-0.005859289318323135
1772642688458584000,2.506583984375,-0.0035106127616018057,-0.00295439874753356,-0.005529211834073067
1772642688468625200,2.516625244140625,-0.0041660163551568985,-0.002297663129866123,-0.0074592046439647675
1772642688478667300,2.526667236328125,-0.004466560203582048,-0.0009399333503097296,-0.010694303549826145
1772642688488708400,2.536708251953125,-0.0044399285688996315,-0.0012288863072171807,-0.011188053525984287
1772642688498749200,2.546749267578125,-0.005809296853840351,-0.00018252292647957802,-0.011735404841601849
1772642688508791300,2.556791259765625,-0.005756299942731857,-0.0012017147382721305,-0.011053103022277355
1772642688518832000,2.56683203125,-0.005086992867290974,-0.0005715062143281102,-0.009438181295990944
1772642688528874200,2.576874267578125,-0.004035842604935169,-0.0011496786028146744,-0.009817946702241898
1772642688538915000,2.5869150390625,-0.003382414346560836,-0.003177307080477476,-0.008426077663898468
1772642688548957200,2.596957275390625,-0.0044412873685359955,-0.0028388192877173424,-0.006538695655763149
1772642688558998000,2.606998046875,-0.0030661122873425484,-0.004273353610187769,-0.008426581509411335
1772642688569039000,2.6170390625,-0.0016101624350994825,-0.003161217551678419,-0.009609824046492577
1772642688579081000,2.6270810546875,-0.0019270875491201878,-0.0026479705702513456,-0.009773184545338154
1772642688589122000,2.6371220703125,-0.000264476053416729,-0.0027121526654809713,-0.009505004622042179
1772642688599164200,2.6471640625,0.00008580309804528952,-0.00031189905712381005,-0.00831230916082859
1772642688609205200,2.657205322265625,-0.0011104888981208205,0.0014172913506627083,-0.007521617226302624
1772642688619246300,2.667246337890625,0.00024513358948752284,-0.0015615076990798116,-0.00654064305126667
1772642688629288200,2.6772880859375,0.0008001363603398204,-0.0017884090775623918,-0.0039565786719322205
1772642688639329300,2.687329345703125,0.0002911328338086605,-0.00449705682694912,-0.002467203652486205
1772642688649371100,2.69737109375,0.0014599942369386554,-0.0028549516573548317,0.001519548473879695
1772642688659412200,2.707412109375,-0.0006053977413102984,-0.006375547498464584,0.004159111063927412
1772642688669454000,2.7174541015625,-0.0011103330180048943,-0.008292491547763348,0.003103966824710369
1772642688679495200,2.7274951171875,0.0013265054440125823,-0.009394878521561623,-0.0001308342907577753
1772642688689536000,2.737535888671875,0.0023837804328650236,-0.010089164599776268,-0.0017577596008777618
1772642688699578000,2.747578125,0.0018345171120017767,-0.011156933382153511,-0.0009822517167776823
1772642688709619000,2.757618896484375,0.002174336463212967,-0.010480756871402264,-0.0006336439400911331
1772642688719661600,2.76766162109375,0.0018690647557377815,-0.007812215480953455,-0.00142846186645329
1772642688729702400,2.777702392578125,0.003342058975249529,-0.0063844951801002026,-0.0005613367538899183
1772642688739743500,2.787743408203125,0.0010043446673080325,-0.006377627607434988,0.00016927416436374187
1772642688749785600,2.79778564453125,0.000012317206710577011,-0.0041267238557338715,0.0006310661556199193
1772642688759826700,2.80782666015625,-0.0002417021314613521,-0.0053396327421069145,-0.0011270118411630392
1772642688769868500,2.81786865234375,-0.0005365140386857092,-0.003966507036238909,-0.004849045537412167
1772642688779909600,2.82790966796875,-0.002863263711333275,-0.00333283725194633,-0.006995574105530977
1772642688789951500,2.837951416015625,-0.0030342387035489082,-0.002743479795753956,-0.009881641715765
1772642688799992600,2.84799267578125,-0.003323832992464304,-0.0012986562214791775,-0.008594762533903122
1772642688810033700,2.85803369140625,-0.0018468439811840653,-0.0010589718585833907,-0.005824542138725519
1772642688820075500,2.868075439453125,-0.002438112162053585,-0.0015974044799804688,-0.005678281188011169
1772642688830116600,2.87811669921875,-0.00262559880502522,-0.0025758498813956976,-0.0045680096372962
1772642688840158500,2.888158447265625,-0.0026040354277938604,-0.0012486933264881372,-0.004599736072123051
1772642688850199600,2.898199462890625,-0.0031941919587552547,0.0006552005070261657,-0.0024913116358220577
1772642688860240400,2.908240478515625,-0.002565796719864011,0.0002915156655944884,-0.003414792474359274
1772642688870282800,2.91828271484375,-0.00413439841940999,0.0007181540713645518,-0.003669124562293291
1772642688880323600,2.928323486328125,-0.002766552846878767,0.0005766345420852304,-0.0063774194568395615
1772642688890365700,2.93836572265625,-0.00394207239151001,-0.0007022154168225825,-0.008610479533672333
1772642688900406500,2.948406494140625,-0.006222187541425228,-0.00246218778192997,-0.010104608722031116
1772642688910447600,2.958447509765625,-0.0061316401697695255,-0.0018517912831157446,-0.009843085892498493
1772642688920489500,2.968489501953125,-0.006382813211530447,-0.0015414829831570387,-0.0062976498156785965
1772642688930530600,2.978530517578125,-0.006724496837705374,-0.00024399091489613056,-0.0023231487721204758
1772642688940572400,2.988572509765625,-0.006546377204358578,-0.00017597473924979568,-0.003748879302293062
1772642688950613500,2.998613525390625,-0.004990292247384787,0.0019188676960766315,-0.0025240913964807987
1772642688960655400,3.0086552734375,-0.005105083808302879,0.002148488536477089,-0.0031124919187277555
1772642688970696400,3.018696533203125,-0.0032547195442020893,0.0036220154725015163,-0.003544989274814725
1772642688980737500,3.028737548828125,-0.004102733917534351,0.004628421738743782,-0.0035439464263617992
1772642688990779600,3.038779541015625,-0.0032566480804234743,0.006623661611229181,-0.0037511400878429413
1772642689000820700,3.04882080078125,-0.0005510046612471342,0.00515248067677021,-0.002744578290730715
1772642689010862600,3.058862548828125,-0.0029651601798832417,0.007729621604084969,-0.0026151486672461033
1772642689020903700,3.068903564453125,-0.004629194736480713,0.00814475305378437,-0.0012212633155286312
1772642689030944500,3.078944580078125,-0.0058119045570492744,0.007919450290501118,-0.0015373807400465012
1772642689040986600,3.088986572265625,-0.005656146910041571,0.007578302640467882,-0.00003252970054745674
1772642689051027500,3.09902734375,-0.0064668129198253155,0.007746880874037743,-0.00023839203640818596
1772642689061069600,3.109069580078125,-0.0050965710543096066,0.007084979210048914,0.0004696153337135911
1772642689071110400,3.1191103515625,-0.005925080273300409,0.008148645982146263,-0.00022120866924524307
1772642689081152500,3.129152587890625,-0.007044131401926279,0.007071874104440212,-0.00028075254522264004
1772642689091193600,3.139193603515625,-0.00658154021948576,0.010463942773640156,0.0000332340132445097
1772642689101234700,3.149234619140625,-0.005193059798330069,0.011833817698061466,-0.0003231100272387266
1772642689111276500,3.159276611328125,-0.004334989003837109,0.013133173808455467,-0.002543121110647917
1772642689121317600,3.169317626953125,-0.005613013170659542,0.012713778764009476,-0.0044922977685928345
1772642689131359500,3.179359375,-0.0034151060972362757,0.012486077845096588,-0.0037175845354795456
1772642689141400600,3.189400634765625,-0.00482929078862071,0.012426529079675674,-0.0016013109125196934
1772642689151441700,3.199441650390625,-0.0035325977951288223,0.012058746069669724,-0.0025355475954711437
1772642689161483500,3.2094833984375,-0.003074763109907508,0.009111110121011734,0.001314616296440363
1772642689171524600,3.219524658203125,0.000022759661078453064,0.008080466650426388,0.004322124179452658
1772642689181566500,3.22956640625,0.0007196629885584116,0.005902639590203762,0.0035667116753757
1772642689191607600,3.239607666015625,0.000560139655135572,0.00606908742338419,0.0016732043586671352
1772642689201648400,3.2496484375,-0.0008527045138180256,0.0010197365190833807,0.0008163624443113804
1772642689211690800,3.259690673828125,0.001674635335803032,-0.0002694997237995267,0.00004457822069525719
1772642689221731600,3.269731689453125,0.0032188743352890015,-0.004405925516039133,-0.002354172058403492
1772642689231773700,3.279773681640625,0.002062796149402857,-0.007726621348410845,-0.004942764528095722
1772642689241814500,3.289814453125,0.0023037386126816273,-0.0142550403252244,-0.0036848182789981365
1772642689251856600,3.299856689453125,0.0032931030727922916,-0.018183203414082527,-0.0013460302725434303
1772642689261897500,3.3098974609375,0.004395449534058571,-0.021661289036273956,0.0007570898160338402
1772642689271938600,3.3199384765625,0.00811934843659401,-0.021960895508527756,0.004014934878796339
1772642689281980400,3.32998046875,0.012062231078743935,-0.02350904420018196,0.003854210954159498
1772642689292021500,3.340021484375,0.01449822448194027,-0.022192377597093582,0.0033034691587090492
1772642689302063400,3.3500634765625,0.015302563086152077,-0.01970365270972252,-0.000830536475405097
1772642689312104400,3.3601044921875,0.014417861588299274,-0.019177677109837532,-0.00533713772892952
1772642689322145500,3.3701455078125,0.013982691802084446,-0.018865717574954033,-0.006835202686488628
1772642689332187600,3.380187744140625,0.010899550281465054,-0.01799699477851391,-0.006235991604626179
1772642689342228700,3.390228759765625,0.011166056618094444,-0.015478173270821571,-0.004946697503328323
1772642689352270600,3.4002705078125,0.009125277400016785,-0.010513507761061192,-0.002178341383114457
1772642689362311700,3.410311767578125,0.010315041057765484,-0.009060434065759182,0.0014985366724431515
1772642689372352500,3.4203525390625,0.010051388293504715,-0.007970668375492096,0.004270354751497507
1772642689382394600,3.43039453125,0.010474830865859985,-0.006173301488161087,0.008017156273126602
1772642689392435500,3.440435546875,0.008478791452944279,-0.0031964201480150223,0.007711958140134811
1772642689402477600,3.4504775390625,0.00984574668109417,-0.002703362610191107,0.007915550842881203
1772642689412518400,3.460518310546875,0.00924333930015564,-0.0011720451293513179,0.003504557069391012
1772642689422560500,3.470560546875,0.008034172467887402,0.000254289829172194,-0.0006577086169272661
1772642689432601300,3.480601318359375,0.006585945840924978,0.0008974432712420821,-0.0020121922716498375
1772642689442642400,3.490642333984375,0.0048608966171741486,0.0005884097190573812,-0.005912661552429199
1772642689452684500,3.5006845703125,0.003607080550864339,-0.0011277312878519297,-0.00326281669549644
1772642689462725600,3.5107255859375,0.0038961435202509165,-0.0003027412458322942,0.00022881804034113884
1772642689472767500,3.520767578125,0.001742977648973465,-0.0004779772716574371,0.002704758895561099
1772642689482808600,3.53080859375,0.0023889229632914066,-0.001206613378599286,0.0032153301872313023
1772642689492849700,3.540849609375,0.002624879125505686,-0.0014007578138262033,0.0017623095773160458
1772642689502891500,3.5508916015625,-0.0005088348989374936,-0.0004273199010640383,0.0018760189414024353
1772642689512932600,3.5609326171875,0.002378830686211586,-0.0016710162162780762,-0.0008854127954691648
1772642689522974500,3.570974365234375,0.0037890381645411253,-0.0011066908482462168,-0.0008947148453444242
1772642689533015600,3.581015625,0.0033168597146868706,-0.001029991777613759,-0.001520025311037898
1772642689543057400,3.591057373046875,0.002420383505523205,0.0002404966508038342,-0.0003082733601331711
1772642689553098500,3.601098388671875,0.002516257343813777,0.0006785866571590304,0.0015817721141502261
1772642689563139300,3.611139404296875,0.0014440860832110047,0.0008155800169333816,0.0022796643897891045
1772642689573181700,3.621181640625,0.002429455518722534,-0.0014544985024258494,0.005410476587712765
1772642689583222500,3.631222412109375,0.0012245983816683292,-0.0011715153232216835,0.006281537935137749
1772642689593264600,3.6412646484375,0.002392128109931946,-0.0031145575921982527,0.005171266384422779
1772642689603305500,3.651305419921875,0.003062215633690357,-0.005044334568083286,0.0039664809592068195
1772642689613346600,3.6613466796875,0.003713358659297228,-0.005328760016709566,0.0032229262869805098
1772642689623388400,3.671388427734375,0.002951603149995208,-0.005600190721452236,0.0011190172517672181
1772642689633429500,3.681429443359375,0.0035457543563097715,-0.006547743454575539,-0.0009942010510712862
1772642689643471400,3.691471435546875,0.002369775902479887,-0.006222357973456383,-0.0011615825351327658
1772642689653512400,3.701512451171875,0.0013836073921993375,-0.004102216102182865,0.000768410274758935
1772642689663553500,3.711553466796875,0.0015708092832937837,-0.0017659326549619436,0.004750220570713282
1772642689673595600,3.721595703125,0.0005446933209896088,-0.0023220006842166185,0.007273299153894186
1772642689683636700,3.73163671875,0.0023868659045547247,0.00009961362229660153,0.010670182295143604
1772642689693678600,3.7416787109375,0.004269987344741821,-0.0005723019130527973,0.011999099515378475
1772642689703719700,3.7517197265625,0.0059751905500888824,-0.0010539093054831028,0.013023736886680126
1772642689713761500,3.761761474609375,0.00845326203852892,-0.0012595053995028138,0.012381115928292274
1772642689723802600,3.771802734375,0.008016245439648628,-0.00019913824507966638,0.009954744018614292
1772642689733843500,3.781843505859375,0.009434912353754044,0.002152166562154889,0.005573844071477652
1772642689743885800,3.7918857421875,0.00871123094111681,0.0027415731456130743,0.003440071828663349
1772642689753926700,3.8019267578125,0.006198804825544357,0.0024715287145227194,0.004352470859885216
1772642689763968800,3.81196875,0.004993770271539688,0.0017361240461468697,0.00265724235214293
1772642689774009600,3.822009521484375,0.0037964130751788616,-0.0015044102910906076,0.0010316488333046436
1772642689784050700,3.83205078125,0.004266433417797089,-0.003998246509581804,0.002423957921564579
1772642689794092500,3.842092529296875,0.0069639491848647594,-0.00594501756131649,0.0026010582223534584
1772642689804133600,3.852133544921875,0.008042464032769203,-0.008305693976581097,0.002145027508959174
1772642689814175500,3.862175537109375,0.007906110025942326,-0.012514553964138031,0.0019085387466475368
1772642689824216600,3.872216552734375,0.0102004399523139,-0.013317123055458069,-0.00018829014152288437
1772642689834258400,3.882258544921875,0.011065434664487839,-0.014268937520682812,-0.0024762116372585297
1772642689844299500,3.892299560546875,0.009565608575940132,-0.015591944567859173,-0.0040463111363351345
1772642689854340600,3.902340576171875,0.013151821680366993,-0.01811848394572735,-0.007757958956062794
1772642689864382700,3.9123828125,0.012818082235753536,-0.021816976368427277,-0.008268625475466251
1772642689874423800,3.922423828125,0.01166919432580471,-0.02833453007042408,-0.0067879073321819305
1772642689884465700,3.932465576171875,0.01340110320597887,-0.029561078175902367,-0.003361235372722149
1772642689894506800,3.9425068359375,0.01705309748649597,-0.027877693995833397,-0.003885878250002861
1772642689904547600,3.952547607421875,0.01946464367210865,-0.02462219074368477,-0.00648308452218771
1772642689914589700,3.962589599609375,0.024066053330898285,-0.02138698287308216,-0.009481271728873253
1772642689924630500,3.972630615234375,0.0243624709546566,-0.020159851759672165,-0.012886276468634605
1772642689934672600,3.982672607421875,0.02171875163912773,-0.020299667492508888,-0.011454827152192593
1772642689944713500,3.99271337890625,0.023964356631040573,-0.018338996917009354,-0.011364022269845009
1772642689954755600,4.002755615234375,0.023420540615916252,-0.016297683119773865,-0.009837230667471886
1772642689964796400,4.01279638671875,0.020595403388142586,-0.012892670929431915,-0.0069434246979653835
1772642689974837500,4.02283740234375,0.020573830232024193,-0.011444710195064545,-0.004692520946264267
1772642689984879600,4.032879638671875,0.017999133095145226,-0.009084722958505154,-0.0031900934409350157
1772642689994920700,4.042920654296875,0.01700790412724018,-0.00945357047021389,-0.0032284429762512445
1772642690004962600,4.052962646484375,0.016333380714058876,-0.008516831323504448,0.0006847910117357969
1772642690015003600,4.063003662109375,0.014500860124826431,-0.007608160842210054,0.000033381860703229904
1772642690025044700,4.073044677734375,0.010317916050553322,-0.008184045553207397,0.002736997324973345
1772642690035086600,4.083086669921875,0.011468401178717613,-0.008494037203490734,0.003814246039837599
1772642690045127700,4.093127685546875,0.011247395537793636,-0.006861036643385887,0.0029538078233599663
1772642690055169500,4.10316943359375,0.009383448399603367,-0.0059664808213710785,0.005379148758947849
1772642690065210600,4.113210693359375,0.009662538766860962,-0.004726192448288202,0.00469806557521224
1772642690075252500,4.12325244140625,0.008483290672302246,-0.005624209996312857,0.006032841745764017
1772642690085293600,4.13329345703125,0.0077071539126336575,-0.00631988188251853,0.0038620885461568832
1772642690095334700,4.143334716796875,0.008928214199841022,-0.004476175643503666,0.0010074463207274675
1772642690105376800,4.153376708984375,0.0070408666506409645,-0.005001402925699949,-0.0005994820967316628
1772642690115417600,4.16341748046875,0.00696629798039794,-0.00524747883901,0.0014149328926578164
1772642690125459700,4.173459716796875,0.0064872512593865395,-0.005212751682847738,0.0030354540795087814
1772642690135500500,4.18350048828125,0.007928553968667984,-0.006431680638343096,0.004880758002400398
1772642690145542700,4.193542724609375,0.006121157668530941,-0.0053312089294195175,0.0034376007970422506
1772642690155583700,4.203583740234375,0.006255114916712046,-0.004085115622729063,0.0010359621373936534
1772642690165624600,4.21362451171875,0.005715789273381233,-0.004082933068275452,-0.0024831625632941723
1772642690175666700,4.223666748046875,0.005069972947239876,-0.0021662565413862467,-0.0059394133277237415
1772642690185707500,4.23370751953125,0.0051180524751544,-0.006512160878628492,-0.00887510646134615
1772642690195749600,4.24374951171875,0.0031510419212281704,-0.007059174589812756,-0.013095151633024216
1772642690205790700,4.253790771484375,0.000060842838138341904,-0.008507031947374344,-0.01075269840657711
1772642690215831800,4.263831787109375,-0.00017884164117276669,-0.009671898558735847,-0.007842396385967731
1772642690225873700,4.273873779296875,-0.002031034091487527,-0.009083124808967113,-0.005520359613001347
1772642690235914800,4.283914794921875,-0.0015005322638899088,-0.005776543635874987,-0.004622873850166798
1772642690245956600,4.29395654296875,-0.0033188466913998127,-0.0020533425267785788,-0.0014648118522018194
1772642690255997700,4.303997802734375,-0.0007275906973518431,0.0019893357530236244,0.0004188420716673136
1772642690266039600,4.31403955078125,-0.002683462807908654,0.002811778336763382,0.00039173057302832603
1772642690276080600,4.32408056640625,-0.0013814433477818966,0.0021792775951325893,-0.0005968348123133183
1772642690286121700,4.334121826171875,-0.00032678619027137756,0.0015256316401064396,-0.001015612157061696
1772642690296163600,4.34416357421875,-0.001740924664773047,0.001675034873187542,-0.0023024515248835087
1772642690306204700,4.35420458984375,-0.0009400777635164559,0.00412029679864645,-0.0007167847361415625
1772642690316246800,4.364246826171875,-0.002389369998127222,0.007199177052825689,0.0005876315990462899
1772642690326288000,4.374287841796875,-0.001830655732192099,0.008106942288577557,0.0016378394793719053
1772642690336329700,4.384329833984375,-0.0031760847195982933,0.010288070887327194,0.004801941104233265
1772642690346370800,4.394370849609375,-0.003979788161814213,0.008565537631511688,0.0039612893015146255
1772642690356411600,4.40441162109375,-0.003502283710986376,0.011391418054699898,0.004091251641511917
1772642690366453800,4.414453857421875,-0.0025261156260967255,0.009234629571437836,0.006128573790192604
1772642690376494600,4.42449462890625,0.0010047032264992595,0.008172028698027134,0.007119269110262394
1772642690386536700,4.43453662109375,0.0007753209210932255,0.006736958399415016,0.006264947354793549
1772642690396577500,4.44457763671875,0.0017561630811542273,0.005061564035713673,0.003950660116970539
1772642690406618600,4.45461865234375,-0.0017482168041169643,0.005809326656162739,0.001570192165672779
1772642690416660500,4.464660400390625,-0.0013301006983965635,0.005166439339518547,-0.0008543496951460838
1772642690426701600,4.47470166015625,-0.0038177594542503357,0.004352311138063669,-0.001726002199575305
1772642690436743700,4.48474365234375,-0.00662686163559556,0.00434432178735733,-0.003528429428115487
1772642690446784800,4.49478466796875,-0.0052223000675439835,0.004779694136232138,-0.005551518872380257
1772642690456826600,4.50482666015625,-0.005498203448951244,0.006550962571054697,-0.008810162544250488
1772642690466867700,4.51486767578125,-0.006371811497956514,0.004098403267562389,-0.009233083575963974
1772642690476908800,4.52490869140625,-0.00807224027812481,0.004951946437358856,-0.009258383885025978
1772642690486950700,4.53495068359375,-0.007574102375656366,0.002771085826680064,-0.009468472562730312
1772642690496991700,4.54499169921875,-0.006598853040486574,0.001577457063831389,-0.009447167627513409
1772642690507033600,4.55503369140625,-0.004908709321171045,0.000444548117229715,-0.009828939102590084
1772642690517074700,4.56507470703125,-0.005287677049636841,0.00006371608469635248,-0.01025744155049324
1772642690527116500,4.575116455078125,-0.0049624573439359665,-0.0006010661018081009,-0.01188202016055584
1772642690537157600,4.58515771484375,-0.0050745764747262,-0.0012173214927315712,-0.010533394291996956
1772642690547198500,4.595198486328125,-0.0063084946013987064,-0.0047079226933419704,-0.009072596207261086
1772642690557240800,4.60524072265625,-0.006744454149156809,-0.006567075382918119,-0.009657958522439003
1772642690567281700,4.61528173828125,-0.007086439523845911,-0.007262906990945339,-0.008231325075030327
1772642690577323800,4.62532373046875,-0.005480553023517132,-0.009103151969611645,-0.00873040221631527
1772642690587364600,4.635364501953125,-0.003990212921053171,-0.009742362424731255,-0.008423050865530968
1772642690597406700,4.64540673828125,-0.002773148473352194,-0.009828914888203144,-0.005424065049737692
1772642690607447600,4.655447509765625,-0.0015400033444166183,-0.009714133106172085,-0.0030989996157586575
1772642690617488600,4.665488525390625,-0.0010443890932947397,-0.010753031820058823,-0.0011335869785398245
1772642690627530500,4.675530517578125,0.001457384554669261,-0.011330405250191689,-0.0010888457763940096
1772642690637571600,4.685571533203125,0.0018627176759764552,-0.009300810284912586,-0.002493663225322962
1772642690647613400,4.695613525390625,-0.000213409133721143,-0.010224981233477592,-0.004419796168804169
1772642690657654500,4.705654541015625,-0.00018890801584348083,-0.010683311149477959,-0.005926080048084259
1772642690667696600,4.715696533203125,-0.0029904169496148825,-0.010328629985451698,-0.007406650576740503
1772642690677737700,4.72573779296875,-0.0022942665964365005,-0.010723843239247799,-0.003243330866098404
1772642690687778800,4.73577880859375,-0.003610695479437709,-0.010485810227692127,0.0011865764390677214
1772642690697820700,4.745820556640625,-0.005039748270064592,-0.00963359884917736,0.0020105584990233183
1772642690707861800,4.75586181640625,-0.00420417869463563,-0.004359262064099312,0.0019824733026325703
1772642690717903600,4.765903564453125,-0.0053251031786203384,0.000941760023124516,0.0024264224339276552
1772642690727944400,4.7759443359375,-0.005601709242910147,0.005522237159311771,0.0022078780457377434
1772642690737986300,4.785986328125,-0.005103964824229479,0.012683210894465446,-0.00014768796972930431
1772642690748027400,4.79602734375,-0.003401178866624832,0.01782471127808094,-0.0008655209094285965
1772642690758068200,4.806068115234375,-0.006802035495638847,0.021569382399320602,-0.000337416073307395
1772642690768110300,4.8161103515625,-0.007659964729100466,0.021934498101472855,0.00010969815775752068
1772642690778151200,4.826151123046875,-0.007991261780261993,0.021349668502807617,0.002244488103315234
1772642690788193500,4.836193603515625,-0.007332553621381521,0.022525349631905556,0.0046801031567156315
1772642690798234400,4.846234375,-0.009733127430081367,0.019075490534305573,0.003702989313751459
1772642690808276500,4.8562763671875,-0.007924864999949932,0.02100825123488903,0.0030872926581650972
1772642690818317300,4.8663173828125,-0.0071557434275746346,0.02089426852762699,0.0007788646034896374
1772642690828358400,4.8763583984375,-0.007881845347583294,0.01878398098051548,-0.001187370391562581
1772642690838400300,4.886400146484375,-0.007510334253311157,0.015500569716095924,-0.004870522301644087
1772642690848441300,4.89644140625,-0.008980766870081425,0.016532812267541885,-0.007352714892476797
1772642690858483200,4.906483154296875,-0.006437715142965317,0.01746145635843277,-0.007274950388818979
1772642690868524300,4.916524169921875,-0.007666293065994978,0.01632801443338394,-0.010512303560972214
1772642690878566400,4.92656640625,-0.005776514299213886,0.015041174367070198,-0.009704300202429295
1772642690888607500,4.936607421875,-0.0027517976704984903,0.01283155009150505,-0.006899318192154169
1772642690898648600,4.946648681640625,-0.0055438559502363205,0.01050634402781725,-0.005590107757598162
1772642690908690400,4.9566904296875,-0.0029206706676632166,0.005485166795551777,-0.002298702485859394
1772642690918731500,4.9667314453125,-0.0008998640696518123,0.005074773449450731,-0.0016401028260588646
1772642690928773400,4.9767734375,0.000564981484785676,0.0018418548861518502,-0.0006412691436707973
1772642690938814500,4.986814453125,0.002959429519250989,-0.0010676486417651176,0.0010793993715196848
1772642690948856300,4.996856201171875,0.004231457598507404,-0.005064786411821842,-0.0007596518844366074
1772642690958897400,5.0068974609375,0.002713722176849842,-0.011654246598482132,-0.0035274752881377935
1772642690968938200,5.016938232421875,0.0006862410227768123,-0.0148299066349864,-0.005836311262100935
1772642690978980400,5.02698046875,0.0005773177254013717,-0.018304264172911644,-0.009381510317325592
1772642690989021200,5.037021240234375,0.0016576824709773064,-0.021933728829026222,-0.009431736543774605
1772642690999063600,5.0470634765625,0.0001013310975395143,-0.023289810866117477,-0.009447982534766197
1772642691009104400,5.0571044921875,0.0005460566026158631,-0.02315947413444519,-0.011794994585216045
1772642691019146500,5.067146484375,0.0007114389445632696,-0.0202715415507555,-0.014659756794571877
1772642691029187300,5.077187255859375,0.0007456295425072312,-0.019088832661509514,-0.01333816908299923
1772642691039228400,5.087228515625,0.0020345994271337986,-0.01931147277355194,-0.014974681660532951
1772642691049270300,5.097270263671875,0.001282358542084694,-0.01756390556693077,-0.011620037257671356
1772642691059311400,5.107311279296875,0.0025873074773699045,-0.014894885942339897,-0.010404303669929504
1772642691069353200,5.117353271484375,0.003726403461769223,-0.011914810165762901,-0.009920928627252579
1772642691079394300,5.127394287109375,0.001935427775606513,-0.00808198843151331,-0.011511102318763733
1772642691089436400,5.1374365234375,0.0035679570864886045,-0.009337722323834896,-0.0075213005766272545
1772642691099477200,5.147477294921875,0.0027639486361294985,-0.008494565263390541,-0.00560036301612854
1772642691109519400,5.157519287109375,0.004141970071941614,-0.0061856042593717575,-0.006847395561635494
1772642691119560400,5.167560546875,0.0036434263456612825,-0.007172838784754276,-0.0021301384549587965
1772642691129601500,5.1776015625,0.0024272683076560497,-0.006439509801566601,0.004457874223589897
1772642691139643400,5.187643310546875,-0.00045160879381000996,-0.0037324067670851946,0.0025553121231496334
1772642691149684500,5.1976845703125,-0.00016755162505432963,-0.0011816314654424787,0.002532281680032611
1772642691159726300,5.207726318359375,-0.002964403247460723,-0.00140001077670604,-0.0005809536669403315
1772642691169767400,5.217767333984375,-0.004078830126672983,0.0018220397178083658,-0.0035102854017168283
1772642691179809300,5.227809326171875,-0.004190682899206877,0.0050015877932310104,-0.003621871815994382
1772642691189850400,5.237850341796875,-0.0037441484164446592,0.008396481163799763,0.0006797822425141931
1772642691199891500,5.247891357421875,-0.002681280951946974,0.012867395766079426,0.000887508736923337
1772642691209933300,5.257933349609375,-0.004486621357500553,0.017015641555190086,0.0017486496362835169
1772642691219974400,5.267974365234375,-0.0044048624113202095,0.01776452176272869,0.0016106979455798864
1772642691230016500,5.2780166015625,-0.009705261327326298,0.015115794725716114,0.0006650153081864119
1772642691240057300,5.288057373046875,-0.00823919102549553,0.014012712985277176,0.0003582192584872246
1772642691250099500,5.298099365234375,-0.009291796013712883,0.012999914586544037,0.0001794982235878706
1772642691260140500,5.308140625,-0.008028659038245678,0.011950896121561527,0.0004141228273510933
1772642691270181400,5.318181396484375,-0.006977673154324293,0.010508794337511063,0.0036601093597710133
1772642691280223500,5.328223388671875,-0.007071150932461023,0.007315929979085922,0.002951974980533123
1772642691290264300,5.338264404296875,-0.007563692517578602,0.007095147855579853,0.004613164346665144
1772642691300306400,5.348306396484375,-0.00669869827106595,0.004168866667896509,0.005294933449476957
1772642691310347300,5.35834716796875,-0.004159851465374231,0.0020526708103716373,0.006658453494310379
1772642691320389600,5.3683896484375,-0.005203277803957462,-0.0013740183785557747,0.005108759738504887
1772642691330430500,5.378430419921875,0.0010643077548593283,-0.0012973189586773515,0.0010861828923225403
1772642691340472600,5.38847265625,0.00044272595550864935,-0.0013524465030059218,-0.001893361797556281
1772642691350513400,5.398513427734375,0.0014616390690207481,-0.003556426614522934,-0.003348901169374585
1772642691360554500,5.408554443359375,0.0012933273101225495,-0.003493309486657381,-0.0031819206196814775
1772642691370596400,5.418596435546875,-0.0007368293590843678,-0.003776723984628916,-0.002818396082147956
1772642691380637400,5.428637451171875,-0.00225509749725461,-0.0021780282258987427,-0.0043702200055122375
1772642691390679300,5.43867919921875,-0.00019110634457319975,-0.0019239607499912381,-0.0038957924116402864
1772642691400720400,5.448720458984375,0.003402563277631998,0.0001290700165554881,-0.003911239095032215
1772642691410762200,5.45876220703125,0.0028370267245918512,-0.001343818032182753,-0.002880060812458396
1772642691420803300,5.46880322265625,0.006271172780543566,-0.001744623645208776,-0.003985006362199783
1772642691430844400,5.478844482421875,0.007141423411667347,-0.0033417772501707077,-0.006138821132481098
1772642691440886500,5.488886474609375,0.006981367710977793,-0.005476833786815405,-0.006710335612297058
1772642691450927600,5.498927734375,0.006839317735284567,-0.008313100785017014,-0.0074454983696341515
1772642691460969500,5.508969482421875,0.006833192426711321,-0.009515251964330673,-0.007221526466310024
1772642691471010600,5.519010498046875,0.004248328506946564,-0.009030556306242943,-0.010064184665679932
1772642691481052400,5.529052490234375,0.004264041315764189,-0.009277165867388248,-0.01279126200824976
1772642691491093500,5.539093505859375,0.002960052341222763,-0.010782541707158089,-0.015295572578907013
1772642691501134300,5.54913427734375,-0.00048261601477861404,-0.01298604067414999,-0.01811399683356285
1772642691511176400,5.559176513671875,-0.0029715371783822775,-0.017769023776054382,-0.01952536031603813
1772642691521217300,5.56921728515625,-0.003360891016200185,-0.018458515405654907,-0.018503505736589432
1772642691531259400,5.57925927734375,-0.0035810405388474464,-0.015413247048854828,-0.014723389409482479
1772642691541300200,5.58930029296875,-0.00409742770716548,-0.009175058454275131,-0.013740948401391506
1772642691551342600,5.599342529296875,-0.004851146601140499,-0.0043887184001505375,-0.008358837105333805
1772642691561383400,5.609383544921875,-0.005475657992064953,-0.000938326702453196,-0.007520739920437336
1772642691571425500,5.619425537109375,-0.006588253192603588,0.0019966899417340755,-0.0056577264331281185
1772642691581466400,5.62946630859375,-0.007896930910646915,0.002975667826831341,-0.0056089903227984905
1772642691591507500,5.639507568359375,-0.0053640143014490604,0.002507112454622984,-0.00509247649461031
1772642691601549300,5.64954931640625,-0.004526982549577951,0.007085086312144995,-0.0034932480193674564
1772642691611590400,5.65959033203125,-0.002629432827234268,0.008190346881747246,-0.0033817796502262354
1772642691621632300,5.66963232421875,-0.0028107939288020134,0.011300386860966682,-0.006224704906344414
1772642691631673300,5.67967333984375,-0.001495371456257999,0.012313349172472954,-0.005120564717799425
1772642691641715200,5.689715087890625,-0.005436583422124386,0.012011880055069923,-0.005715248640626669
1772642691651756300,5.69975634765625,-0.007666714955121279,0.012014276348054409,-0.0025833710096776485
1772642691661798400,5.70979833984375,-0.006758044008165598,0.0113578075543046,-0.0044363983906805515
1772642691671839500,5.719839599609375,-0.008224024437367916,0.00848350953310728,-0.004186590202152729
1772642691681880600,5.729880615234375,-0.008064767345786095,0.006694397889077663,-0.003168996423482895
1772642691691922400,5.73992236328125,-0.006222957279533148,0.007861184887588024,-0.0017849626019597054
1772642691701963500,5.749963623046875,-0.006614441983401775,0.0052169319242239,-0.0013420789036899805
1772642691712005400,5.76000537109375,-0.008285588584840298,0.002808953169733286,-0.004359830636531115
1772642691722046500,5.77004638671875,-0.00905684009194374,-0.001873416593298316,-0.004530273377895355
1772642691732088300,5.78008837890625,-0.008376847952604294,-0.0063614798709750175,-0.006750827189534903
1772642691742129400,5.79012939453125,-0.007984830997884274,-0.007845127023756504,-0.007776143494993448
1772642691752170200,5.800170166015625,-0.00800970010459423,-0.010010810568928719,-0.011919617652893066
1772642691762212400,5.81021240234375,-0.0047164359129965305,-0.0063092829659581184,-0.01277901977300644
1772642691772253200,5.820253173828125,-0.005443626549094915,-0.002888612449169159,-0.010862873867154121
1772642691782295600,5.830295654296875,-0.0046316287480294704,-0.0011985705932602286,-0.0091741643846035
1772642691792336400,5.84033642578125,-0.0030463389120996,0.0024533697869628668,-0.0079248808324337
1772642691802378500,5.85037841796875,-0.002054577460512519,0.0023090264294296503,-0.010441301390528679
1772642691812419300,5.86041943359375,-0.0018500307342037559,0.0031570824794471264,-0.009292807430028915
1772642691822460400,5.87046044921875,-0.0019405781058594584,0.0012585148215293884,-0.007735390216112137
1772642691832502300,5.880502197265625,-0.0010077913757413626,0.002097570803016424,-0.002061260864138603
1772642691842543400,5.89054345703125,-0.0032893214374780655,0.004296010360121727,0.0005449083400890231
1772642691852585200,5.900585205078125,-0.0030047036707401276,0.0058891661465168,0.003164261346682906
1772642691862626300,5.910626220703125,-0.003609773702919483,0.007653510197997093,0.0017519870307296515
1772642691872668400,5.92066845703125,-0.005128943361341953,0.009611997753381729,0.000493247527629137
1772642691882709500,5.93070947265625,-0.005797130521386862,0.008123558014631271,-0.004066616762429476
1772642691892751400,5.94075146484375,-0.0037419400177896023,0.00816196110099554,-0.0020458132494241
1772642691902792400,5.95079248046875,-0.0011890340829268098,0.008525216020643711,-0.0013930723071098328
1772642691912833500,5.96083349609375,0.0018830085173249245,0.0059751346707344055,-0.0005738949403166771
1772642691922875400,5.97087548828125,0.0017527799354866147,0.006829476449638605,0.0010184090351685882
1772642691932916500,5.98091650390625,0.003102531423792243,0.007124819792807102,0.001285533420741558
1772642691942958300,5.990958251953125,0.0033270358107984066,0.0052014850080013275,0.0020088478922843933
1772642691952999400,6.00099951171875,0.004238712135702372,0.0019197743386030197,0.0021738416980952024
1772642691963041300,6.011041259765625,0.004946846514940262,-0.004704039543867111,0.001841745455749333
1772642691973082400,6.021082275390625,0.006131729576736689,-0.009650858119130135,0.000453297165222466
1772642691983124500,6.03112451171875,0.007060640025883913,-0.011360075324773788,-0.001170698320493102
1772642691993165600,6.04116552734375,0.007361903786659241,-0.013197657652199268,-0.0006076993886381388
1772642692003206400,6.051206298828125,0.008512922562658787,-0.014156661927700043,-0.0007381942123174667
1772642692013248500,6.06124853515625,0.007332385051995516,-0.01492231898009777,-0.0012440725695341825
1772642692023289300,6.071289306640625,0.006788034923374653,-0.018628107383847237,-0.003986596129834652
1772642692033331500,6.08133154296875,0.005251657217741013,-0.014948682859539986,-0.0023367677349597216
1772642692043372300,6.091372314453125,0.004480139818042517,-0.013000847771763802,-0.0033303929958492517
1772642692053414400,6.101414306640625,0.0018723881803452969,-0.00915300752967596,-0.0013145075645297766
1772642692063455200,6.111455322265625,0.0013892909046262503,-0.008065106347203255,-0.0005291413981467485
1772642692073497300,6.121497314453125,0.0016365372575819492,-0.008803443983197212,0.0010097739286720753
1772642692083538200,6.1315380859375,0.0013662263518199325,-0.008808770217001438,-0.000004357891157269478
1772642692093579300,6.141579345703125,0.00390827190130949,-0.008557259105145931,-0.005339473020285368
1772642692103621400,6.151621337890625,0.003458464052528143,-0.00996234267950058,-0.009368302300572395
1772642692113662500,6.161662353515625,0.0035210326313972473,-0.008347241207957268,-0.010491229593753815
1772642692123704300,6.171704345703125,0.003085605800151825,-0.00775948166847229,-0.009879767894744873
1772642692133745400,6.181745361328125,0.0024755806662142277,-0.004487364552915096,-0.005587410181760788
1772642692143787300,6.191787353515625,-0.0012621658388525248,-0.003250326029956341,0.00030217086896300316
1772642692153828400,6.201828369140625,-0.0010750216897577047,-0.0008072452037595212,0.0017614387907087803
1772642692163870200,6.2118701171875,-0.00022760400315746665,0.0015395323280245066,0.002054652664810419
1772642692173911300,6.221911376953125,-0.0009585361112840474,0.005198606755584478,0.003068394260481
1772642692183952400,6.231952392578125,0.00013788725482299924,0.009690027683973312,0.0030681281350553036
1772642692193994200,6.241994140625,0.0014684025663882494,0.011001101695001125,0.0035767918452620506
1772642692204035300,6.252035400390625,0.004862601403146982,0.011224540881812572,0.004705705679953098
1772642692214077400,6.262077392578125,0.004421402234584093,0.01178849395364523,0.004402097314596176
1772642692224118500,6.272118408203125,0.005025673657655716,0.00830694381147623,0.0029080635868012905
1772642692234160400,6.282160400390625,0.004699926823377609,0.008470192551612854,0.002537494758144021
1772642692244201500,6.292201416015625,0.004257309250533581,0.008198283612728119,0.0011398678179830313
1772642692254243300,6.302243408203125,0.006219523958861828,0.009249810129404068,0.0011917868396267295
1772642692264284400,6.312284423828125,0.0030106808990240097,0.009968064725399017,-0.0007336786948144436
1772642692274325200,6.3223251953125,0.0023589637130498886,0.012425626628100872,-0.00044964137487113476
1772642692284367400,6.332367431640625,-0.0028389941435307264,0.010837583802640438,-0.0008400608785450459
1772642692294408400,6.342408447265625,-0.0042444923892617226,0.008898110128939152,0.00009470968507230282
1772642692304450300,6.3524501953125,-0.007408061530441046,0.008210481144487858,-0.0013846762012690306
1772642692314491400,6.362491455078125,-0.006533152889460325,0.010150857269763947,-0.002182022435590625
1772642692324533500,6.372533447265625,-0.005236193537712097,0.01041024923324585,-0.004070470109581947
1772642692334574300,6.38257421875,-0.005755954422056675,0.010757689364254475,-0.004344248212873936
1772642692344616400,6.392616455078125,-0.006896586623042822,0.007018344476819038,-0.0028379643335938454
1772642692354657500,6.402657470703125,-0.005695737898349762,0.007590978406369686,-0.0031436977442353964
1772642692364698400,6.412698486328125,-0.005586814600974321,0.007657557260245085,-0.0007950558792799711
1772642692374740500,6.422740478515625,-0.004350058734416962,0.007853993214666843,0.00229700212366879
1772642692384781300,6.43278125,-0.004559915512800217,0.008669985458254814,0.002543078036978841
1772642692394823400,6.442823486328125,-0.0018784799613058567,0.0103774918243289,0.004517691675573587
1772642692404864300,6.4528642578125,-0.0012441151775419712,0.010313309729099274,0.0034891788382083178
1772642692414906600,6.46290673828125,0.0015880074352025986,0.007545171771198511,0.0055461968295276165
1772642692424947500,6.472947509765625,0.003944105934351683,0.0077611543238162994,0.004542451351881027
1772642692434989600,6.482989501953125,0.005052559543401003,0.0032404852099716663,0.005323964636772871
1772642692445030400,6.493030517578125,0.005999579560011625,0.0042982930317521095,0.006159664131700993
1772642692455072500,6.503072509765625,0.006011030171066523,0.0017881093081086874,0.005777228157967329
1772642692465113300,6.51311328125,0.005341777577996254,0.001388635253533721,0.0034725284203886986
1772642692475154400,6.523154541015625,0.004856092389672995,0.0022798303980380297,0.004376810975372791
1772642692485196300,6.5331962890625,0.004174056462943554,0.002331495750695467,0.00729004293680191
1772642692495237400,6.5432373046875,0.003327659796923399,0.0022104294039309025,0.0027207238599658012
1772642692505279200,6.553279296875,0.001259182463400066,0.0012466313783079386,0.002057064324617386
1772642692515320300,6.5633203125,0.0037180932704359293,-0.002102077007293701,0.0029229868669062853
1772642692525362400,6.573362548828125,0.0021015543024986982,-0.00493701221421361,0.004344049841165543
1772642692535403500,6.583403564453125,0.002689255401492119,-0.0052609615959227085,0.0068183960393071175
1772642692545445400,6.5934453125,-0.0006402285071089864,-0.004096627701073885,0.007897509261965752
1772642692555486500,6.603486572265625,0.0008207059581764042,-0.0036213553976267576,0.007737044245004654
1772642692565528300,6.6135283203125,0.0025355154648423195,-0.005520455539226532,0.008896318264305592
1772642692575569400,6.6235693359375,0.00163962971419096,-0.005572498310357332,0.006672321818768978
1772642692585610500,6.633610595703125,0.0017632003873586655,-0.005596733186393976,0.0010463939979672432
1772642692595652400,6.64365234375,0.002857315819710493,-0.007173006888478994,0.00021575530990958214
1772642692605693400,6.653693359375,0.002112695947289467,-0.00915226899087429,-0.003386968979611993
1772642692615735300,6.6637353515625,0.0020222964230924845,-0.009663168340921402,-0.0013584396801888943
1772642692625776400,6.6737763671875,0.0022334852255880833,-0.006757126655429602,0.003411548212170601
1772642692635818500,6.683818603515625,0.005896736867725849,-0.00574864074587822,0.006148612126708031
1772642692645859600,6.693859619140625,0.004794454667717218,-0.0030617774464190006,0.00518321618437767
1772642692655901400,6.7039013671875,0.0060493191704154015,-0.002107560634613037,0.005411036312580109
1772642692665942500,6.713942626953125,0.005448243580758572,-0.0013648049207404256,0.00406427588313818
1772642692675983400,6.7239833984375,0.006335152313113213,-0.0042502377182245255,0.003330186242237687
1772642692686025500,6.734025390625,0.005949792917817831,-0.007153881713747978,0.006091351620852947
1772642692696066300,6.74406640625,0.006602781359106302,-0.009210103191435337,0.008220396935939789
1772642692706108400,6.7541083984375,0.009485387243330479,-0.01007270161062479,0.011515526100993156
1772642692716149200,6.764149169921875,0.008800218813121319,-0.004714267328381538,0.012397585436701775
1772642692726191900,6.77419189453125,0.0070902034640312195,-0.0016207394655793905,0.00938608217984438
1772642692736233000,6.78423291015625,0.005747938994318247,-0.001331729581579566,0.013078548014163971
1772642692746275000,6.794275146484375,0.004546320531517267,-0.0014065646100789309,0.012731270864605904
1772642692756316000,6.80431591796875,0.0059646908193826675,-0.00028249836759641767,0.012183727696537971
1772642692766357000,6.81435693359375,0.006152976304292679,-0.0008625347982160747,0.010681971907615662
1772642692776398800,6.82439892578125,0.004178582690656185,-0.0007027981919236481,0.010845089331269264
1772642692786440000,6.83443994140625,0.002739676972851157,-0.002576065482571721,0.00931883230805397
1772642692796481800,6.844481689453125,0.0034071544650942087,-0.00351531058549881,0.008896990679204464
1772642692806523000,6.85452294921875,0.003200226929038763,-0.003760854247957468,0.004114486277103424
1772642692816564700,6.864564697265625,0.002988165710121393,-0.0029646288603544235,0.0012040546862408519
1772642692826605800,6.874605712890625,0.0003708109725266695,-0.0034495904110372066,-0.003303611883893609
1772642692836648000,6.88464794921875,0.003121338551864028,-0.006520530674606562,-0.0022539279889315367
1772642692846689000,6.89468896484375,0.0016211799811571836,-0.009737895801663399,-0.002463252516463399
1772642692856731000,6.90473095703125,0.00011171435471624136,-0.013401390053331852,-0.0025251752231270075
1772642692866772000,6.91477197265625,0.00038388941902667284,-0.016085058450698853,-0.002877777675166726
1772642692876813000,6.92481298828125,-0.0016085398383438587,-0.016287032514810562,-0.007064268458634615
1772642692886855000,6.93485498046875,-0.0018484906759113073,-0.012513598427176476,-0.007516206707805395
1772642692896896000,6.94489599609375,-0.006989811081439257,-0.008768824860453606,-0.008485060185194016
1772642692906937900,6.954937744140625,-0.006364500615745783,-0.007058276329189539,-0.011833718046545982
1772642692916979000,6.96497900390625,-0.006100078113377094,-0.007239159196615219,-0.006853340193629265
1772642692927020800,6.975020751953125,-0.005962392780929804,-0.008182450197637081,-0.0027099938597530127
1772642692937062000,6.985061767578125,-0.00455374363809824,-0.008020528592169285,-0.0007926521357148886
1772642692947104000,6.99510400390625,-0.002150240819901228,-0.003983975853770971,-0.0020371475256979465
1772642692957145000,7.00514501953125,-0.0009250834700651467,-0.0001879043411463499,-0.001868438208475709
1772642692967187000,7.01518701171875,-0.0007559727528132498,0.002283775480464101,0.001080746529623866
1772642692977228000,7.02522802734375,-0.00007233896758407354,0.005009940359741449,0.004411566071212292
1772642692987268900,7.035268798828125,0.001303449971601367,0.006476543378084898,0.006803084164857864
1772642692997311000,7.04531103515625,0.0033548681531101465,0.007671399973332882,0.005307585932314396
1772642693007351800,7.055351806640625,0.003445948241278529,0.008180863223969936,0.0062074679881334305
1772642693017394000,7.065393798828125,0.0053034438751637936,0.010609935037791729,0.00749244075268507
1772642693027434800,7.075434814453125,0.004380126018077135,0.00991884432733059,0.007524132262915373
1772642693037476900,7.085476806640625,0.003442930057644844,0.010948368348181248,0.008853317238390446
1772642693048772900,7.09677294921875,0.0023052277974784374,0.009067644365131855,0.009586751461029053
1772642693058815000,7.10681494140625,-0.0014474918134510517,0.006228072103112936,0.00900298822671175
1772642693068856000,7.11685595703125,-0.0000927417422644794,0.004108728840947151,0.006843164563179016
1772642693078898000,7.12689794921875,-0.0017196969129145145,0.0014858393697068095,0.005130481906235218
1772642693088939000,7.13693896484375,-0.0014073080383241177,-0.000009259267244488001,0.0026585357263684273
1772642693098979800,7.146979736328125,0.0009277076460421085,-0.0014130163472145796,0.0027436278760433197
1772642693109022000,7.15702197265625,-0.0023232130333781242,-0.0009826496243476868,0.003993449732661247
1772642693119062800,7.167062744140625,-0.003221187274903059,-0.0021853281650692225,0.0025349650532007217
1772642693129105000,7.17710498046875,-0.0026771032717078924,-0.0033704349771142006,0.0012079119915142655
1772642693139145700,7.187145751953125,-0.0015387790044769645,-0.002696603536605835,-0.002460057381540537
1772642693149187800,7.197187744140625,-0.0028333417139947414,-0.0018220215570181608,-0.005953858606517315
1772642693159229000,7.20722900390625,-0.001829167129471898,-0.0032737122382968664,-0.006252530962228775
1772642693169271000,7.21727099609375,-0.0006808119942434132,-0.004557355772703886,-0.002343276748433709
1772642693179311900,7.227311767578125,-0.0008108186884783208,-0.0014828952262178063,-0.0033732547890394926
1772642693189354000,7.23735400390625,-0.0023567837197333574,0.0004521576047409326,-0.004612157121300697
1772642693199394800,7.247394775390625,-0.0008221964235417545,0.00004490732681006193,-0.0030942887533456087
1772642693209436000,7.257435791015625,-0.002099714707583189,0.0010827411897480488,-0.004984866827726364
1772642693219478000,7.26747802734375,-0.00248587504029274,0.00010254286462441087,0.0007060327334329486
1772642693229518800,7.277518798828125,-0.004945303779095411,0.0035135196521878242,0.0011880649253726006
1772642693239561000,7.28756103515625,-0.005840982776135206,0.009255873039364815,0.002300744177773595
1772642693249601800,7.297601806640625,-0.00640370836481452,0.014498305507004261,0.002965203020721674
1772642693259644000,7.307643798828125,-0.006977900862693787,0.020838389173150063,0.001811919966712594
1772642693269684700,7.317684814453125,-0.00883412454277277,0.022423235699534416,0.000982079072855413
1772642693279727000,7.32772705078125,-0.008387289941310883,0.02258526347577572,0.0049370052292943
1772642693289768000,7.337767822265625,-0.00762030016630888,0.02073330245912075,0.0030067460611462593
1772642693299810000,7.34781005859375,-0.009498686529695988,0.01817202940583229,0.0025050085969269276
1772642693309851000,7.357850830078125,-0.009017985314130783,0.016172530129551888,0.0007790138479322195
1772642693319893000,7.36789306640625,-0.011135539971292019,0.013501165434718132,0.003119000233709812
1772642693329933800,7.377933837890625,-0.00876213051378727,0.011628430336713791,0.002223112853243947
1772642693339975000,7.387974853515625,-0.009557675570249557,0.008981138467788696,0.004014887847006321
1772642693350016800,7.398016845703125,-0.008481758646667004,0.0067406208254396915,0.003642844036221504
1772642693360057900,7.408057861328125,-0.005625962745398283,0.0007552168099209666,0.0009405335877090693
1772642693370099700,7.418099609375,-0.004920757841318846,-0.0022584162652492523,-0.0011644288897514343
1772642693380140800,7.428140869140625,-0.002682636259123683,-0.004178441129624844,-0.0021740326192229986
1772642693390183000,7.438182861328125,-0.00013212690828368068,-0.008091423660516739,-0.0041780611500144005
1772642693400224000,7.44822412109375,0.00016340910224243999,-0.01042095199227333,-0.004869818687438965
1772642693410265900,7.458265869140625,0.000603895983658731,-0.01474965363740921,-0.002009849762544036
1772642693420307000,7.468306884765625,0.0021558981388807297,-0.014029205776751041,-0.0014764191582798958
1772642693430348800,7.478348876953125,0.0006767785525880754,-0.01609155721962452,-0.0018159723840653896
1772642693440390000,7.488389892578125,0.0008977174293249846,-0.018182141706347466,-0.00159639329649508
1772642693450431700,7.498431640625,0.002264984417706728,-0.01965167373418808,-0.0006536340806633234
1772642693460472800,7.508472900390625,0.0008439216180704534,-0.01946498639881611,-0.003105872543528676
1772642693470514700,7.5185146484375,0.002782702911645174,-0.018300916999578476,-0.004590052179992199
1772642693480555800,7.5285556640625,0.003464250359684229,-0.01811300590634346,-0.004396040923893452
1772642693490598000,7.538597900390625,0.0019622272811830044,-0.015866363421082497,-0.005048248916864395
1772642693500639000,7.548638916015625,0.0012164239306002855,-0.014597206376492977,-0.005096718668937683
1772642693510680800,7.558680908203125,-0.0003614989691413939,-0.013550051487982273,-0.004132920876145363
1772642693520722000,7.568721923828125,-0.0016960101202130318,-0.010100306943058968,-0.0037454317789524794
1772642693530763000,7.578762939453125,-0.004465165082365274,-0.004453607369214296,-0.000126994913443923
1772642693540804900,7.588804931640625,-0.005205404479056597,0.00028597452910616994,-0.00021967152133584023
1772642693550846000,7.598845947265625,-0.007081867195665836,0.0045414394699037075,0.0007768833311274648
1772642693560887800,7.6088876953125,-0.008636162616312504,0.009947443380951881,0.001426561502739787
1772642693570929000,7.618928955078125,-0.008095274679362774,0.012299280613660812,0.000834008096717298
1772642693580971000,7.628970947265625,-0.00834756437689066,0.014169453643262386,0.0018798307282850146
1772642693591012000,7.63901220703125,-0.008318004198372364,0.015763355419039726,0.004748587496578693
1772642693601054000,7.649053955078125,-0.009208697825670242,0.019103283062577248,0.0070574162527918816
1772642693611095000,7.659094970703125,-0.009328806772828102,0.020655905827879906,0.008736539632081985
1772642693621137000,7.669136962890625,-0.010845017619431019,0.023438962176442146,0.00821629073470831
1772642693631178000,7.679177978515625,-0.00829663872718811,0.023610468953847885,0.00855397991836071
1772642693641219800,7.6892197265625,-0.00943681225180626,0.022423816844820976,0.007313080132007599
1772642693651261000,7.699260986328125,-0.006445549428462982,0.01907995156943798,0.006136761512607336
1772642693661301800,7.7093017578125,-0.008147560991346836,0.019078724086284637,0.004259098786860704
1772642693671343900,7.71934375,-0.005780278239399195,0.01673753932118416,0.003288909327238798
1772642693681384700,7.729384765625,-0.005095711909234524,0.01472531259059906,0.003022194840013981
1772642693691427000,7.739427001953125,-0.0046610841527581215,0.013054179027676582,0.004204105585813522
1772642693701468000,7.749468017578125,-0.0045187827199697495,0.010838213376700878,0.005254189483821392
1772642693711510000,7.759510009765625,-0.004644750151783228,0.008549226447939873,0.007195900660008192
1772642693721550800,7.76955078125,-0.002960492856800556,0.006317558232694864,0.007638382725417614
1772642693731593000,7.779593017578125,-0.0031072329729795456,0.003002188866958022,0.007402426563203335
1772642693741633800,7.7896337890625,-0.0005136395920999348,0.003124318551272154,0.006525183096528053
1772642693751676000,7.799676025390625,-0.000594066979829222,0.0008158906712196767,0.006200544070452452
1772642693761716700,7.809716796875,-0.0012356818187981844,-0.0008921042317524552,0.004042584449052811
1772642693771759000,7.819759033203125,0.000854100682772696,-0.004095887299627066,0.0018952778773382306
1772642693781800000,7.829800048828125,0.0005796768236905336,-0.007082994095981121,0.000930148409679532
1772642693791841000,7.839841064453125,-0.0009441839647479355,-0.008199657313525677,-0.0021801572293043137
1772642693801883000,7.8498828125,-0.001540791243314743,-0.009158392436802387,-0.004685659892857075
1772642693811924000,7.859924072265625,-0.0024462658911943436,-0.00788140669465065,-0.009708115831017494
1772642693821965800,7.8699658203125,-0.0026582241989672184,-0.007210615091025829,-0.008954972960054874
1772642693832007000,7.8800068359375,-0.0005737681640312076,-0.0036198743619024754,-0.007787975482642651
1772642693842048800,7.890048828125,-0.0009659478673711419,-0.0032092127948999405,-0.004797378554940224
1772642693852089900,7.90008984375,-0.00160963402595371,-0.0029391683638095856,-0.0024023980367928743
1772642693862131700,7.910131591796875,-0.000257976062130183,-0.0015380773693323135,-0.0007449800614267588
1772642693872172800,7.9201728515625,0.00023657293058931828,-0.0016019933391362429,-0.0009132919367402792
1772642693882215000,7.93021484375,-0.0005177395651116967,-0.0018274140311405063,0.0000663483515381813
1772642693892256000,7.940256103515625,0.0011107833124697208,-0.002887884620577097,0.0006570375990122557
1772642693902297900,7.9502978515625,0.0014076977968215942,-0.0033383178524672985,-0.0006812000647187233
1772642693912339000,7.9603388671875,0.0013813325203955173,-0.0019137930357828736,-0.0011179584544152021
1772642693922380000,7.970380126953125,0.003137923777103424,-0.004176583141088486,-0.0038658056873828173
1772642693932422000,7.980421875,0.002634586300700903,-0.005505234468728304,-0.0032303754705935717
1772642693942463000,7.990462890625,0.0045277089811861515,-0.005743958987295628,-0.0011973180808126926
1772642693952504800,8.0005048828125,0.002420349745079875,-0.008691545575857162,0.0010940658394247293
1772642693962546000,8.0105458984375,0.005320428404957056,-0.00988251343369484,0.0038540316745638847
1772642693972587800,8.020587890625,0.005886083468794823,-0.0089219119399786,0.005959792993962765
1772642693982628900,8.03062890625,0.004887532442808151,-0.0070267487317323685,0.00764890480786562
1772642693992671000,8.0406708984375,0.005047055892646313,-0.004383561201393604,0.006643560715019703
1772642694002712000,8.050712158203124,0.004654047079384327,-0.0051061296835541725,0.004666563123464584
1772642694012754000,8.06075390625,0.005573902744799852,-0.005835303571075201,0.0010055158054456115
1772642694022795000,8.070794921875,0.0057571278885006905,-0.008442537859082222,0.0007858050521463156
1772642694032836900,8.0808369140625,0.005898808129131794,-0.011725150048732758,0.0005322720389813185
1772642694042878000,8.0908779296875,0.004370213020592928,-0.009107152931392193,0.0014758295146748424
1772642694052918800,8.100918701171874,0.004086853004992008,-0.007393143139779568,0.0045645637437701225
1772642694062961000,8.1109609375,0.001860450254753232,-0.0036340910010039806,0.005699602887034416
1772642694073002000,8.121001953125,0.0022332926746457815,-0.004438365343958139,0.0034361823927611113
1772642694083043800,8.1310439453125,-0.0006496540154330432,-0.0024772752076387405,0.0004019089974462986
1772642694093085000,8.1410849609375,-0.0006211581057868898,-0.00459502125158906,-0.0016537851188331842
1772642694103127000,8.151126953125,0.0006399804260581732,-0.004413984250277281,-0.0022246374282985926
1772642694113168100,8.161168212890624,0.00036088109482079744,-0.007356777787208557,-0.002434494672343135
1772642694123210000,8.1712099609375,0.0002626845962367952,-0.009642088785767555,-0.0013818794395774603
1772642694133251000,8.1812509765625,-0.000922155799344182,-0.010968608781695366,-0.0019062557257711887
1772642694143293000,8.19129296875,-0.00044414616422727704,-0.010994380339980125,-0.002471640706062317
1772642694153334000,8.201333984375,0.0011905020801350474,-0.008741612546145916,-0.003728918731212616
1772642694163375900,8.2113759765625,0.0015948438085615635,-0.006562933791428804,-0.0027620582841336727
1772642694173417000,8.2214169921875,0.0012757971417158842,-0.0038246717303991318,-0.0057916706427931786
1772642694183457800,8.231457763671875,0.0024921786971390247,-0.0018262462690472603,-0.005008175503462553
1772642694193500200,8.241500244140624,0.0001001273631118238,-0.0014198480639606714,-0.0025969496928155422
1772642694203541000,8.251541015625,0.0012535890564322472,0.0006781987613067031,0.00023466278798878193
1772642694213583000,8.2615830078125,0.00025516992900520563,0.0025525314267724752,0.0015760969836264849
1772642694223624000,8.2716240234375,-0.00025923451175913215,0.0037140415515750647,0.0018804960418492556
1772642694233666000,8.281666015625,-0.0018792354967445135,0.004708732012659311,0.002387029118835926
1772642694243707000,8.291706787109375,-0.0011186510091647506,0.0017940655816346407,0.003015403402969241
1772642694253749000,8.3017490234375,-0.003084063995629549,0.003550153924152255,0.003354157553985715
1772642694263789800,8.311789794921875,-0.002480961848050356,0.0017969927284866571,0.0019734406378120184
1772642694273832000,8.32183203125,0.0006581061752513051,0.002460386138409376,0.004199577029794455
1772642694283872800,8.331872802734376,-0.002931065857410431,0.003277654992416501,-0.0001951723825186491
1772642694293915100,8.3419150390625,-0.0015550104435533285,0.0031535516027361155,-0.001999996602535248
1772642694303956000,8.3519560546875,-0.0021341880783438683,0.005729204975068569,-0.00398005498573184
1772642694313997000,8.3619970703125,-0.0021389818284660578,0.00666637159883976,-0.006035216152667999
1772642694324039000,8.372038818359375,-0.00288126477971673,0.006614595651626587,-0.00631405133754015
1772642694334080000,8.382080078125,-0.00530287716537714,0.006593024358153343,-0.0037334482185542583
1772642694344121900,8.392121826171875,-0.004600972402840853,0.004993526730686426,-0.001753256656229496
1772642694354163000,8.402162841796875,-0.003203345462679863,0.0049085719510912895,-0.0007385925855487585
1772642694364204800,8.412204833984376,-0.0036538178101181984,0.001555710332468152,0.0004541071830317378
1772642694374246000,8.422245849609375,-0.002456726972013712,0.0033690568525344133,-0.0003171442076563835
1772642694384287700,8.432287841796875,-0.002921166829764843,0.0005468566087074578,-0.0005321933422237635
1772642694394328800,8.442328857421876,-0.0033406144939363003,-0.00018311577150598168,-0.0024930788204073906
1772642694404371000,8.452370849609375,-0.0036791041493415833,-0.0005773788434453309,-0.0019348838832229376
1772642694414412000,8.462412109375,-0.004212535452097654,-0.0014780599158257246,0.0006638289196416736
1772642694424454000,8.472453857421876,-0.004091331269592047,0.001776644610799849,0.0009557130979374051
1772642694434495000,8.482494873046875,-0.003935003653168678,0.0037961197085678577,0.0036010309122502804
1772642694444536800,8.492536865234374,-0.0019050543196499348,0.0084045035764575,0.00300581194460392
1772642694454578000,8.502577880859375,-0.002173234475776553,0.00869851652532816,0.002357065910473466
1772642694464619000,8.512618896484375,-0.0013909025583416224,0.00865963101387024,0.00248795747756958
1772642694474660900,8.522660888671876,-0.004136088769882917,0.008322741836309433,-0.0024175853468477726
1772642694484702000,8.532701904296875,-0.0031277856323868036,0.006917446851730347,-0.0016537881456315517
1772642694494743800,8.542743896484374,-0.005026619881391525,0.006346997804939747,-0.0009762800764292479
1772642694504785000,8.552784912109376,-0.005431019235402346,0.007150265388190746,0.000014286022633314133
1772642694514827000,8.562826904296875,-0.005373228807002306,0.009306360967457294,-0.001559908501803875
1772642694524868000,8.5728681640625,-0.006003953516483307,0.011219524778425694,-0.0007183484267443419
1772642694534910000,8.582909912109375,-0.003881947137415409,0.012637126259505749,-0.001376415602862835
1772642694544951000,8.592950927734375,-0.005044579040259123,0.010644816793501377,-0.003492429619655013
1772642694554993000,8.602992919921874,-0.005578276701271534,0.008549974299967289,-0.006625639274716377
1772642694565034000,8.613033935546875,-0.005054107867181301,0.007418393157422543,-0.0016300827264785767
1772642694575075800,8.623075927734375,-0.0030721835792064667,0.004925407934933901,0.001528426306322217
1772642694585117000,8.633116943359376,-0.005094143562018871,0.0060287052765488625,0.003701566718518734
1772642694595158800,8.64315869140625,-0.0014184487517923117,0.006665733642876148,0.004683740437030792
1772642694605200000,8.653199951171874,-0.0018903466407209635,0.009013412520289421,0.0027586736250668764
1772642694615241000,8.663240966796875,-0.0009542455081827939,0.012329847551882267,-0.00001580757088959217
1772642694625283000,8.673282958984375,-0.00040986802196130157,0.009124139323830605,-0.0012291502207517624
1772642694635324000,8.683323974609374,0.0011376949260011315,0.00777098722755909,0.00015196530148386955
1772642694645366000,8.693365966796875,0.0027476060204207897,0.006067684851586819,0.0021621212363243103
1772642694655406800,8.70340673828125,0.0013925896491855383,0.002335797529667616,0.0035203336738049984
1772642694665449000,8.713448974609374,0.002438311232253909,0.0016722511500120163,0.0021436172537505627
1772642694675489800,8.72348974609375,0.002902233973145485,0.0007332206005230546,0.002948957262560725
1772642694685532000,8.733531982421875,0.003249729983508587,-0.0018399336840957403,0.003679056651890278
1772642694695572700,8.74357275390625,0.0035855546593666077,-0.00509351771324873,0.0033629394602030516
1772642694705615000,8.753614990234375,0.006211862433701754,-0.008833814412355423,0.006240623537451029
1772642694715656000,8.763656005859374,0.007243038155138493,-0.00920266192406416,0.006004135124385357
1772642694725697500,8.773697509765626,0.007903411984443665,-0.008596692234277725,0.0047053066082298756
1772642694735738600,8.783738525390625,0.009159091860055923,-0.008299749344587326,0.00005516107194125652
1772642694745780500,8.793780517578124,0.008803512901067734,-0.008967414498329163,-0.0003026460763067007
1772642694755821600,8.803821533203125,0.009723101742565632,-0.009270215407013893,-0.0004078410565853119
1772642694765862400,8.8138623046875,0.0083677489310503,-0.010536644607782364,0.00193269073497504
1772642694775904500,8.823904541015626,0.007449757307767868,-0.010263137519359589,0.0015073840040713549
1772642694785945300,8.8339453125,0.006242414470762014,-0.00683266157284379,0.0004968509310856462
1772642694795987500,8.843987548828125,0.005925498437136412,-0.003945795353502035,-0.0019455342553555965
1772642694806028300,8.8540283203125,0.0038363668136298656,-0.001549909939058125,-0.004558362066745758
1772642694816070400,8.8640703125,0.0029162445571273565,-0.002698531374335289,-0.006105924490839243
1772642694826111200,8.874111328125,0.0027400311082601547,-0.004359494894742966,-0.005190598778426647
1772642694836153600,8.884153564453126,0.0019410829991102219,-0.0055432696826756,0.00380289601162076
1772642694846194400,8.8941943359375,0.002057301113381982,-0.0020228344947099686,0.007821740582585335
1772642694856236500,8.904236572265624,-0.00010252260835841298,-0.00013039226178079844,0.009285148233175278
1772642694866277400,8.91427734375,0.005347147583961487,0.005159336607903242,0.02653510682284832
1772642694876319500,8.924319580078125,0.0005097821122035384,-0.00294013530947268,0.04663904383778572
1772642694886360300,8.9343603515625,0.001327446661889553,-0.004955668468028307,0.028416497632861137
1772642694896402400,8.94440234375,0.004712324123829603,-0.003268555970862508,-0.012973818928003311
1772642694906443300,8.954443359375,0.006350184325128794,0.0007333285175263882,-0.035823870450258255
1772642694916485600,8.964485595703126,0.003954138141125441,0.0025546643882989883,-0.024691324681043625
1772642694926526500,8.9745263671875,0.006862546317279339,-0.0009415886597707868,0.0026124664582312107
