time,seconds_elapsed,z,y,x
1772649754390795000,0.345794921875,0.2508910298347473,0.5135259628295898,0.13975048065185547
1772649754410804000,0.365803955078125,0.2684754431247711,0.1979379653930664,0.2352292537689209
1772649754430813000,0.38581298828125,-0.1786426156759262,-0.2826499938964844,0.21783447265625
1772649754450822000,0.40582177734375,-0.05938473343849182,-0.22265625,0.2715928554534912
1772649754470830600,0.42583056640625,0.17738623917102814,-0.01928997039794922,0.49579858779907227
1772649754490839600,0.445839599609375,0.19554130733013153,-0.024477005004882812,0.6440219879150391
1772649754510848300,0.46584814453125,0.22668343782424927,0.021711349487304688,0.6574327945709229
1772649754530857200,0.485857177734375,0.040797919034957886,0.13692569732666016,0.6230440139770508
1772649754550866200,0.5058662109375,0.0643942654132843,0.09879684448242188,0.6057229042053223
1772649754570875000,0.525875,0.03835156559944153,-0.2238168716430664,0.3487100601196289
1772649754590883800,0.5458837890625,-0.11438953876495361,-0.4391593933105469,0.04851269721984863
1772649754610892800,0.565892822265625,-0.21020278334617615,-0.520777702331543,-0.25812840461730957
1772649754630901500,0.585901611328125,-0.539925754070282,-0.3788871765136719,-0.561968207359314
1772649754650910500,0.605910400390625,-1.0883921384811401,0.041840553283691406,-0.5269089937210083
1772649754670919200,0.625919189453125,-1.9620920419692993,1.290053367614746,-0.8744169473648071
1772649754690928000,0.64592822265625,-2.255176067352295,3.1770620346069336,-1.270378828048706
1772649754710937000,0.66593701171875,-0.6110869646072388,4.99151086807251,-1.2297372817993164
1772649754730945800,0.68594580078125,0.8083451986312866,6.777383804321289,-1.0912574529647827
1772649754750954800,0.705954833984375,0.9370734095573425,8.2330322265625,-1.5531432628631592
1772649754770963500,0.72596337890625,-0.08118382096290588,6.883117198944092,-1.5516901016235352
1772649754790972400,0.745972412109375,2.1741299629211426,2.1818127632141113,-0.4237356185913086
1772649754810981000,0.765981201171875,1.1837527751922607,-2.915133476257324,-0.06711339950561523
1772649754830990000,0.785989990234375,-2.673473358154297,-4.145730972290039,0.37566590309143066
1772649754850999000,0.8059990234375,-1.1368746757507324,-2.2012720108032227,2.929025650024414
1772649754871007700,0.8260078125,1.87186861038208,-4.089156150817871,1.7432198524475098
1772649754891016700,0.8460166015625,1.3521740436553955,-7.753989219665527,3.2338171005249023
1772649754911025400,0.866025390625,1.333595871925354,-8.639527320861816,3.981525182723999
1772649754931034400,0.886034423828125,0.4735431671142578,-9.119153022766113,2.26816725730896
1772649754951043300,0.906043212890625,0.42081117630004883,-9.353649139404297,1.6420445442199707
1772649754971052000,0.926052001953125,1.289929747581482,-9.382871627807617,2.842862367630005
1772649754991061000,0.94606103515625,1.5112413167953491,-8.678766250610352,3.765113115310669
1772649755011069700,0.966069580078125,0.8637579679489136,-7.182873725891113,3.254971742630005
1772649755031078700,0.98607861328125,0.3793638348579407,-6.063802719116211,1.7533514499664307
1772649755051087400,1.00608740234375,-0.46584397554397583,-4.994227409362793,0.9570252895355225
1772649755071096600,1.0260966796875,-1.2214648723602295,-3.0999069213867188,0.45321178436279297
1772649755091105800,1.046105712890625,-1.310631275177002,-0.20531749725341797,-0.5167183876037598
1772649755111114800,1.06611474609375,-1.5304880142211914,2.6466450691223145,-1.4302748441696167
1772649755131124000,1.0861240234375,-1.4899187088012695,5.004024982452393,-2.3409602642059326
1772649755151133200,1.10613330078125,-2.0078723430633545,6.955540657043457,-3.1828582286834717
1772649755171142400,1.126142333984375,-2.261258125305176,9.0996675491333,-4.2705841064453125
1772649755191151400,1.1461513671875,-0.7713485956192017,11.215683937072754,-5.447360992431641
1772649755211160600,1.16616064453125,0.8525222539901733,12.596192359924316,-6.069275856018066
1772649755231169800,1.186169677734375,0.05996397137641907,13.320658683776855,-5.497560024261475
1772649755251179000,1.206178955078125,-1.6984167098999023,11.935027122497559,-3.7486801147460938
1772649755271188000,1.22618798828125,-0.5721562504768372,9.545989990234375,-2.5528130531311035
1772649755291197200,1.246197265625,0.3379537761211395,8.395854949951172,-1.421898603439331
1772649755311206400,1.266206298828125,1.2450881004333496,7.709432601928711,-1.4429683685302734
1772649755331215600,1.286215576171875,1.2202115058898926,7.71725606918335,-1.911428689956665
1772649755351224600,1.306224609375,0.19346436858177185,8.170222282409668,-2.897244691848755
1772649755371233800,1.32623388671875,-0.374849408864975,7.311323165893555,-2.883999824523926
1772649755391243000,1.346242919921875,-0.9959381818771362,3.934365749359131,-2.822518825531006
1772649755411252200,1.366252197265625,4.250988483428955,-10.301319122314453,0.015947580337524414
1772649755431261200,1.38626123046875,0.993992269039154,-24.551023483276367,10.875040054321289
1772649755451270400,1.4062705078125,-6.04184627532959,-16.14194107055664,3.0589687824249268
1772649755471279600,1.426279541015625,6.2551960945129395,-12.984724044799805,5.470346927642822
1772649755491288600,1.44628857421875,1.7897568941116333,-13.495854377746582,6.585841178894043
1772649755511297800,1.4662978515625,1.8114049434661865,-8.977217674255371,4.03056526184082
1772649755531307000,1.48630712890625,2.138700246810913,-8.97852611541748,4.51091194152832
1772649755551316200,1.506316162109375,3.858025074005127,-11.127144813537598,7.865276336669922
1772649755571324400,1.526324462890625,0.9295220375061035,-11.3092622756958,6.260333061218262
1772649755591332900,1.546332763671875,-1.0514920949935913,-9.032173156738281,3.043776273727417
1772649755611341000,1.566341064453125,-0.9761597514152527,-7.967304229736328,2.307129144668579
1772649755631349200,1.586349365234375,-0.08010120689868927,-5.146286964416504,0.7959768772125244
1772649755651357400,1.606357421875,-1.3087233304977417,0.034064292907714844,-1.1196460723876953
1772649755671366000,1.626365966796875,-1.9447128772735596,5.049887657165527,-3.2495787143707275
1772649755691374000,1.6463740234375,-1.9529333114624023,7.523431301116943,-4.306769371032715
1772649755711382300,1.66638232421875,-1.7880659103393555,9.447920799255371,-5.489863395690918
1772649755731390500,1.686390380859375,-1.1679439544677734,11.311774253845215,-6.523341655731201
1772649755751399000,1.70639892578125,-0.17238175868988037,12.226385116577148,-7.044795036315918
1772649755771407000,1.726406982421875,-0.7253703474998474,13.228658676147461,-6.946735382080078
1772649755791415300,1.746415283203125,-2.5836362838745117,13.838935852050781,-5.599928855895996
1772649755811423500,1.766423583984375,-1.181610107421875,10.735684394836426,-4.144644260406494
1772649755831431700,1.786431640625,0.4220253527164459,7.82671594619751,-2.046110153198242
1772649755851439900,1.80643994140625,0.44321408867836,6.89821195602417,-1.1581891775131226
1772649755871448300,1.8264482421875,0.2127077281475067,7.3062028884887695,-1.663536548614502
1772649755891456500,1.84645654296875,-0.08631858229637146,8.331123352050781,-2.379940986633301
1772649755911464700,1.866464599609375,-0.19868339598178864,9.314677238464355,-3.1700727939605713
1772649755931473000,1.886472900390625,-0.8553267121315002,8.92332649230957,-4.015908241271973
1772649755951481300,1.9064814453125,-2.101625442504883,5.972602844238281,-5.731996536254883
1772649755971489500,1.926489501953125,1.239332914352417,-2.7940244674682617,-4.662750244140625
1772649755991497700,1.946497802734375,10.2217378616333,-22.79763412475586,2.588695764541626
1772649756011506000,1.966505859375,-8.928455352783203,-21.947805404663086,13.532175064086914
1772649756031514400,1.986514404296875,2.491544723510742,-11.871766090393066,10.229599952697754
1772649756051522600,2.0065224609375,2.9483015537261963,-7.2322492599487305,8.258133888244629
1772649756071530800,2.02653076171875,4.111001491546631,-8.355597496032715,5.141801834106445
1772649756091539000,2.0465390625,-0.7390950918197632,-11.311022758483887,5.211640357971191
1772649756111547100,2.066547119140625,1.7649627923965454,-10.844513893127441,6.385405540466309
1772649756131555300,2.086555419921875,3.5283453464508057,-12.872925758361816,6.607831001281738
1772649756151563500,2.1065634765625,1.3411338329315186,-11.636716842651367,4.697543144226074
1772649756171571700,2.12657177734375,-0.9400776624679565,-8.0912446975708,2.670241117477417
1772649756191580000,2.146579833984375,-1.3899734020233154,-5.378216743469238,2.345158100128174
1772649756211588000,2.166588134765625,-0.38844263553619385,-1.3487939834594727,1.5693492889404297
1772649756231596300,2.18659619140625,-0.008549608290195465,2.502811908721924,-0.7170567512512207
1772649756251604500,2.2066044921875,-0.6984046697616577,5.431985855102539,-2.6601805686950684
1772649756271613000,2.226613037109375,-1.0907100439071655,7.2350263595581055,-4.002298831939697
1772649756291621000,2.24662109375,-1.4686261415481567,8.860191345214844,-5.217538833618164
1772649756311629300,2.26662939453125,-0.8864772915840149,11.242387771606445,-7.4060869216918945
1772649756331637500,2.286637451171875,-0.4014262855052948,13.199335098266602,-8.814279556274414
1772649756351645700,2.306645751953125,-1.144392490386963,14.387060165405273,-8.354135513305664
1772649756371654000,2.32665380859375,-1.5537419319152832,13.327518463134766,-5.997344970703125
1772649756391662000,2.346662109375,-0.009462535381317139,8.669316291809082,-3.0075714588165283
1772649756411670300,2.366670166015625,1.5854756832122803,7.4945526123046875,-1.3551770448684692
1772649756431678500,2.386678466796875,1.3630166053771973,7.16013765335083,-1.29369056224823
1772649756451686700,2.406686767578125,0.012110233306884766,7.341796398162842,-2.1122710704803467
1772649756471694800,2.42669482421875,-0.29100167751312256,7.98337984085083,-2.9088852405548096
1772649756491703300,2.446703369140625,-0.8823214769363403,8.652541160583496,-3.761401891708374
1772649756511711200,2.466711181640625,-0.9339345097541809,7.77605676651001,-4.289554595947266
1772649756531719700,2.4867197265625,-0.7831919193267822,4.171024799346924,-4.882033348083496
1772649756551727900,2.506727783203125,5.155706405639648,-9.89783000946045,-0.5582325458526611
1772649756571736600,2.526736572265625,0.906927227973938,-27.245071411132812,6.066396713256836
1772649756591745500,2.54674560546875,-7.133998394012451,-13.10413932800293,8.140830993652344
1772649756611754500,2.56675439453125,5.903571128845215,-8.620678901672363,8.076008796691895
1772649756631763500,2.586763427734375,2.273794174194336,-14.146992683410645,9.437254905700684
1772649756651772200,2.606772216796875,0.7898612022399902,-11.64712142944336,6.7187180519104
1772649756671781000,2.626781005859375,-0.2618033289909363,-10.598958015441895,7.5007243156433105
1772649756691790000,2.6467900390625,1.7798643112182617,-11.429671287536621,9.377022743225098
1772649756711799000,2.666799072265625,-0.21983063220977783,-11.561334609985352,7.08060884475708
1772649756731808000,2.68680810546875,-1.0316816568374634,-8.954545021057129,3.468269109725952
1772649756751816700,2.706816650390625,-1.4905612468719482,-6.519488334655762,1.1234488487243652
1772649756771825700,2.72682568359375,-0.11113245785236359,-3.9200611114501953,0.1308577060699463
1772649756791834600,2.746834716796875,1.1229108572006226,-0.18100547790527344,-2.283398151397705
1772649756811843600,2.766843505859375,0.1912759244441986,3.975708484649658,-4.024988174438477
1772649756831852500,2.7868525390625,-0.575701117515564,7.397501468658447,-5.132357120513916
1772649756851861500,2.806861572265625,-1.1012871265411377,9.874531745910645,-6.035297870635986
1772649756871870200,2.8268701171875,-1.0005040168762207,11.885397911071777,-7.220890998840332
1772649756891879200,2.846879150390625,0.3680190145969391,13.395830154418945,-8.135069847106934
1772649756911888100,2.86688818359375,-0.4279400706291199,14.37594985961914,-6.887355804443359
1772649756931897000,2.88689697265625,-2.1037039756774902,13.992792129516602,-3.632115364074707
1772649756951906000,2.906906005859375,-0.46723586320877075,9.790699005126953,-3.7428908348083496
1772649756971914800,2.926914794921875,1.139931321144104,6.134955406188965,-3.1346426010131836
1772649756991923700,2.946923828125,1.8439604043960571,5.4159321784973145,-2.6969168186187744
1772649757011932700,2.9669326171875,0.7173506021499634,6.444234371185303,-3.4688937664031982
1772649757031941600,2.986941650390625,0.5225661993026733,7.952500343322754,-4.031811237335205
1772649757051950600,3.00695068359375,0.19530132412910461,9.027935981750488,-4.209921360015869
1772649757071958800,3.026958740234375,-0.4879750609397888,9.156567573547363,-3.9546852111816406
1772649757091966700,3.046966796875,-1.8386950492858887,6.730898857116699,-4.139420032501221
1772649757111975000,3.066974853515625,-0.5672399997711182,-3.3127641677856445,-1.2814178466796875
1772649757131982800,3.08698291015625,0.6579222679138184,-23.88288116455078,5.8517351150512695
1772649757151991000,3.106990966796875,-7.1893181800842285,-24.45897102355957,12.06863784790039
1772649757171999200,3.126999267578125,5.678693771362305,-9.983269691467285,4.9835662841796875
1772649757192007200,3.147007080078125,3.937196969985962,-5.41079044342041,6.1200103759765625
1772649757212015400,3.167015380859375,2.5177061557769775,-6.9803314208984375,7.955299377441406
1772649757232023600,3.1870234375,3.3911871910095215,-9.969033241271973,9.656713485717773
1772649757252031500,3.207031494140625,3.8921005725860596,-10.887073516845703,11.512560844421387
1772649757272039700,3.227039794921875,1.4475072622299194,-11.152732849121094,9.077934265136719
1772649757292048000,3.2470478515625,1.0763251781463623,-9.574104309082031,6.317341327667236
1772649757312055800,3.267055908203125,1.4574666023254395,-8.37415599822998,4.586557388305664
1772649757332064000,3.28706396484375,0.8317508697509766,-5.61246395111084,2.884185314178467
1772649757352072200,3.307072265625,0.09946383535861969,-2.4798126220703125,2.027078151702881
1772649757372080000,3.327080078125,0.51701819896698,0.3585472106933594,0.4260213375091553
1772649757392088300,3.34708837890625,1.2648900747299194,2.5466208457946777,-1.7661935091018677
1772649757412096500,3.367096435546875,-0.15026381611824036,4.979743003845215,-4.73459005355835
1772649757432104400,3.3871044921875,-1.2690694332122803,7.118471145629883,-6.987654685974121
1772649757452112600,3.407112548828125,-2.203876495361328,9.65517520904541,-8.896546363830566
1772649757472120800,3.427120849609375,-2.6164302825927734,11.926962852478027,-10.654886245727539
1772649757492128800,3.447128662109375,-2.6637425422668457,13.022049903869629,-9.840349197387695
1772649757512137000,3.467136962890625,-2.0658392906188965,12.282833099365234,-5.9101243019104
1772649757532145200,3.487145263671875,0.12537100911140442,11.237210273742676,-3.1226956844329834
1772649757552153000,3.507153076171875,1.5880837440490723,10.066201210021973,-2.8502135276794434
1772649757572161300,3.527161376953125,-0.246637761592865,7.7755126953125,-2.517526626586914
1772649757592169200,3.547169189453125,-1.6215193271636963,7.193094253540039,-3.0645508766174316
1772649757612177400,3.567177490234375,-2.040303945541382,7.508923053741455,-3.537818431854248
1772649757632185300,3.587185302734375,-1.339318037033081,8.789934158325195,-3.32304048538208
1772649757652193500,3.607193603515625,-0.61956787109375,9.545614242553711,-4.010428428649902
1772649757672201500,3.627201416015625,-1.394704818725586,7.788997650146484,-3.4504072666168213
1772649757692209700,3.647209716796875,-1.4721211194992065,2.800813674926758,-3.2766692638397217
1772649757712217600,3.667217529296875,7.139585971832275,-15.87117862701416,6.232891082763672
1772649757732225800,3.687225830078125,0.44910863041877747,-24.642993927001953,8.254861831665039
1772649757752233700,3.707233642578125,-3.1192879676818848,-12.55341911315918,6.763876914978027
1772649757772242000,3.727241943359375,2.559159755706787,-8.967203140258789,9.49746322631836
1772649757792249900,3.747249755859375,0.8989334106445312,-11.180359840393066,10.201241493225098
1772649757812258000,3.767258056640625,2.026280641555786,-10.674310684204102,7.38815975189209
1772649757832266000,3.787265869140625,2.913015365600586,-10.36921215057373,8.852843284606934
1772649757852274200,3.807274169921875,2.308244228363037,-10.05501651763916,8.741950988769531
1772649757872282000,3.8272822265625,1.312227487564087,-10.3652925491333,6.224035263061523
1772649757892290300,3.847290283203125,0.09045771509408951,-8.456146240234375,4.33915901184082
1772649757912298500,3.867298583984375,-0.22542119026184082,-6.319108009338379,3.6814136505126953
1772649757932306400,3.887306396484375,-0.19777795672416687,-2.8814306259155273,2.160139799118042
1772649757952314400,3.907314453125,0.021980971097946167,1.2482762336730957,-0.37581324577331543
1772649757972322600,3.927322509765625,1.5705857276916504,4.589235782623291,-2.8451244831085205
1772649757992330500,3.94733056640625,-3.1222190856933594,7.250150680541992,-6.037238121032715
1772649758012338700,3.967338623046875,-2.1154866218566895,8.6319580078125,-7.426881790161133
1772649758032347000,3.987346923828125,0.13120055198669434,10.623001098632812,-8.981979370117188
1772649758052354800,4.007354736328125,-0.16251474618911743,12.325241088867188,-9.853798866271973
1772649758072363800,4.02736376953125,-1.3285061120986938,12.817493438720703,-8.998845100402832
1772649758092373200,4.047373291015625,-1.824676752090454,12.231553077697754,-6.5206403732299805
1772649758112382500,4.067382568359375,-0.4409472942352295,9.96312427520752,-4.785514831542969
1772649758132391700,4.0873916015625,0.9271117448806763,7.642965316772461,-2.297027111053467
1772649758152401000,4.10740087890625,1.9983948469161987,6.565063953399658,-1.5313446521759033
1772649758172410000,4.12741015625,1.7178583145141602,6.77385139465332,-2.472937822341919
1772649758192419300,4.14741943359375,0.4845135807991028,7.612272262573242,-3.243161916732788
1772649758212428500,4.167428466796875,-0.39639127254486084,8.426684379577637,-4.108314514160156
1772649758232437800,4.187437744140625,-0.8129229545593262,7.724781036376953,-3.9231834411621094
1772649758252447000,4.207447021484375,-1.0635573863983154,4.241760730743408,-3.0641236305236816
1772649758272456200,4.227456298828125,3.9925966262817383,-10.043118476867676,2.0067861080169678
1772649758292465400,4.24746533203125,2.538703680038452,-26.194110870361328,12.782062530517578
1772649758312474600,4.267474609375,-7.474875450134277,-11.709875106811523,7.842652320861816
1772649758332483800,4.28748388671875,7.57009220123291,-10.914752960205078,7.9043989181518555
1772649758352493000,4.3074931640625,2.2048451900482178,-12.146832466125488,10.224960327148438
1772649758372502300,4.327502197265625,0.6832488179206848,-11.454584121704102,7.540847301483154
1772649758392511500,4.347511474609375,0.4987591803073883,-9.480382919311523,5.849760055541992
1772649758412520700,4.367520751953125,3.157144784927368,-10.009798049926758,8.328383445739746
1772649758432530000,4.387530029296875,1.4309417009353638,-11.823346138000488,8.8881254196167
1772649758452539100,4.4075390625,-0.31125593185424805,-10.768324851989746,6.213191509246826
1772649758472548400,4.42754833984375,-1.3895878791809082,-8.32766342163086,5.411159515380859
1772649758492557600,4.4475576171875,0.7598287463188171,-3.820317268371582,3.445563793182373
1772649758512566800,4.46756689453125,2.3195292949676514,1.5526680946350098,-1.7030696868896484
1772649758532576000,4.487575927734375,1.238022804260254,5.5577874183654785,-5.424610614776611
1772649758552585200,4.507585205078125,-0.09700563549995422,7.759298801422119,-7.062020301818848
1772649758572594200,4.52759423828125,-0.9220601916313171,9.253789901733398,-8.721293449401855
1772649758592603100,4.54760302734375,-1.2408188581466675,10.811164855957031,-10.567184448242188
1772649758612612000,4.567612060546875,-1.9898645877838135,12.64955997467041,-10.92566967010498
1772649758632621000,4.58762109375,-3.5005788803100586,12.622876167297363,-7.960010528564453
1772649758652630000,4.607630126953125,-1.138697862625122,11.574922561645508,-4.057305335998535
1772649758672639000,4.627638916015625,1.2484670877456665,10.195669174194336,-2.5087954998016357
1772649758692647700,4.647647705078125,1.2058218717575073,7.646686553955078,-2.275346279144287
1772649758712656600,4.66765673828125,0.23372021317481995,5.652846336364746,-3.4225285053253174
1772649758732665600,4.68766552734375,-0.8865090012550354,5.79369592666626,-5.172097206115723
1772649758752674600,4.707674560546875,-0.9086108803749084,7.151882171630859,-5.669809341430664
1772649758772683500,4.72768359375,0.21601277589797974,9.054859161376953,-5.342124938964844
1772649758792692500,4.7476923828125,0.4427192211151123,9.212455749511719,-5.28359317779541
1772649758812701200,4.767701171875,0.13668698072433472,7.251247882843018,-4.53632116317749
1772649758832710100,4.787710205078125,-1.855759620666504,2.8583521842956543,-3.377673625946045
1772649758852719000,4.807718994140625,7.586118698120117,-14.90644359588623,8.262678146362305
1772649758872728000,4.82772802734375,-4.4220967292785645,-20.385478973388672,8.807045936584473
1772649758892737000,4.847737060546875,-2.342801570892334,-15.3114013671875,13.830160140991211
1772649758912746000,4.86774609375,3.759521007537842,-11.005240440368652,9.1033935546875
1772649758932755000,4.8877548828125,2.1579062938690186,-12.491002082824707,10.373662948608398
1772649758952763600,4.907763671875,0.04440690577030182,-11.220993995666504,7.465440273284912
1772649758972772600,4.927772705078125,3.050096273422241,-8.870503425598145,8.284307479858398
1772649758992781600,4.947781494140625,2.600250244140625,-8.10537052154541,9.415718078613281
1772649759012790500,4.96779052734375,0.7067058682441711,-7.838166236877441,6.269799709320068
1772649759032799500,4.987799560546875,-0.4777016043663025,-7.140734672546387,3.743313789367676
1772649759052808400,5.007808349609375,-0.5923212170600891,-5.657919883728027,2.9287514686584473
1772649759072816000,5.027816162109375,0.6048687696456909,-2.480388641357422,1.348076343536377
1772649759092823600,5.047823486328125,0.24301622807979584,1.8821921348571777,-1.6259815692901611
1772649759112831200,5.067831298828125,-0.49757683277130127,5.033942699432373,-4.389595985412598
1772649759132838700,5.087838623046875,-0.3229266405105591,7.576986789703369,-6.976213455200195
1772649759152846300,5.107846435546875,0.4586668610572815,9.333229064941406,-8.280599594116211
1772649759172854000,5.12785400390625,0.12846696376800537,10.395830154418945,-8.603675842285156
1772649759192861400,5.147861328125,-0.31026774644851685,11.185432434082031,-9.67680549621582
1772649759212869000,5.167869140625,-0.8624579906463623,11.833059310913086,-9.671408653259277
1772649759232876500,5.18787646484375,-1.293044924736023,11.805647850036621,-7.101889610290527
1772649759252884200,5.20788427734375,0.18406498432159424,9.605072021484375,-3.4191884994506836
1772649759272891600,5.2278916015625,1.4317214488983154,7.559609413146973,-2.4720983505249023
1772649759292899300,5.2478994140625,2.070316791534424,6.489095687866211,-2.8284690380096436
1772649759312907000,5.267906982421875,2.3937673568725586,6.1044697761535645,-3.0805211067199707
1772649759332914400,5.28791455078125,2.07627010345459,6.445992946624756,-4.309251308441162
1772649759352922000,5.307922119140625,0.10196614265441895,6.905550003051758,-5.008352279663086
1772649759372929500,5.327929443359375,-1.2063913345336914,5.670411109924316,-5.093568325042725
1772649759392937200,5.347937255859375,0.34975123405456543,-0.9145574569702148,-2.118880033493042
1772649759412945000,5.36794482421875,8.826705932617188,-23.173095703125,17.018644332885742
1772649759432952300,5.387952392578125,-13.507806777954102,-12.905546188354492,6.527297019958496
1772649759452960000,5.4079599609375,1.4705268144607544,-6.227262496948242,10.860967636108398
1772649759472967400,5.427967529296875,4.334327697753906,-9.57802963256836,12.34994125366211
1772649759492975000,5.44797509765625,1.2203245162963867,-12.06643295288086,10.659341812133789
1772649759512982500,5.467982421875,-0.5336208939552307,-11.727178573608398,9.381828308105469
1772649759532990200,5.487990234375,0.5748575925827026,-8.364373207092285,8.26324462890625
1772649759552998000,5.507997802734375,-0.1718052625656128,-9.468894958496094,8.82652473449707
1772649759573005800,5.528005859375,-1.6228106021881104,-8.217206001281738,6.1352057456970215
1772649759593013800,5.548013671875,-1.004258394241333,-6.398603439331055,3.5343308448791504
1772649759613021400,5.568021484375,-1.0538243055343628,-3.97747802734375,2.5444107055664062
1772649759633029400,5.588029296875,-0.0433657169342041,-1.6721172332763672,1.1587896347045898
1772649759653037300,5.608037353515625,0.6754993796348572,2.9109930992126465,-3.1241583824157715
1772649759673045200,5.628045166015625,0.4790959358215332,5.606497764587402,-5.4499430656433105
1772649759693053200,5.64805322265625,0.12688207626342773,7.589183330535889,-7.006280899047852
1772649759713061000,5.66806103515625,0.18368399143218994,9.091226577758789,-8.451794624328613
1772649759733069000,5.688069091796875,1.290885090827942,10.38935661315918,-10.017671585083008
1772649759753077000,5.708076904296875,1.2550686597824097,11.948461532592773,-11.737504005432129
1772649759773085000,5.7280849609375,-0.1782822608947754,12.372312545776367,-9.64694881439209
1772649759793092900,5.7480927734375,-1.3735358715057373,10.917764663696289,-4.762400150299072
1772649759813100800,5.768100830078125,0.2656651735305786,8.523242950439453,-2.7220780849456787
1772649759833108700,5.788108642578125,1.2665461301803589,7.717082977294922,-2.792424201965332
1772649759853116700,5.80811669921875,1.1234327554702759,7.390568256378174,-2.772303581237793
1772649759873124400,5.828124267578125,1.7968851327896118,7.016812801361084,-2.9697461128234863
1772649759893132500,5.848132568359375,1.4760228395462036,7.926311016082764,-4.03567361831665
1772649759913140500,5.868140380859375,0.2864990234375,8.177035331726074,-4.933305740356445
1772649759933148200,5.888148193359375,-1.212609052658081,6.058589458465576,-5.164104461669922
1772649759953156000,5.908156005859375,-0.43909430503845215,-1.1827707290649414,-2.517535448074341
1772649759973164000,5.9281640625,8.118172645568848,-22.209049224853516,15.879627227783203
1772649759993172000,5.948171875,-10.56887149810791,-13.605183601379395,8.386618614196777
1772649760013180000,5.968179931640625,7.338826656341553,-9.98299789428711,13.098871231079102
1772649760033187800,5.988187744140625,1.561794400215149,-10.043255805969238,10.849457740783691
1772649760053195800,6.00819580078125,1.4963854551315308,-8.478277206420898,11.324577331542969
1772649760073205500,6.02820556640625,0.47086238861083984,-8.126808166503906,10.026001930236816
1772649760093215200,6.04821533203125,2.983142852783203,-8.763824462890625,10.625753402709961
1772649760113225200,6.06822509765625,2.8009209632873535,-9.918559074401855,11.35619831085205
1772649760133235000,6.08823486328125,1.2332099676132202,-8.803686141967773,7.925151348114014
1772649760153245000,6.108244873046875,-0.14600840210914612,-6.764317512512207,4.6566162109375
1772649760173254700,6.128254638671875,-1.7206529378890991,-3.782825469970703,2.6874094009399414
1772649760193264600,6.1482646484375,-1.0087041854858398,0.437166690826416,-0.07838726043701172
1772649760213274400,6.1682744140625,0.23777565360069275,3.1429991722106934,-2.1638715267181396
1772649760233284000,6.1882841796875,-0.2648077607154846,4.597079753875732,-4.199724197387695
1772649760253294000,6.208294189453125,-0.8639912605285645,5.746590614318848,-6.044806957244873
1772649760273303800,6.2283037109375,-0.5051910877227783,6.785798072814941,-7.670659065246582
1772649760293313800,6.248313720703125,0.582189679145813,8.47147274017334,-9.679788589477539
1772649760313323500,6.268323486328125,1.58827805519104,10.399104118347168,-12.16305923461914
1772649760333333500,6.28833349609375,1.675864577293396,12.545890808105469,-12.996576309204102
1772649760353343200,6.30834326171875,-0.6982691287994385,11.283756256103516,-7.876816749572754
1772649760373353200,6.328353271484375,-0.35570359230041504,7.532320976257324,-3.6653366088867188
1772649760393363000,6.348363037109375,1.1988317966461182,6.549757957458496,-3.200122356414795
1772649760413373000,6.368373046875,1.1248693466186523,6.5265212059021,-2.1772871017456055
1772649760433382700,6.388382568359375,1.1054449081420898,6.930042266845703,-2.4961342811584473
1772649760453392600,6.408392578125,1.7033199071884155,7.813629150390625,-4.139538764953613
1772649760473402400,6.42840234375,0.9251896142959595,8.284871101379395,-4.968250751495361
1772649760493412400,6.448412353515625,0.34677958488464355,7.574161529541016,-5.209648609161377
1772649760513422000,6.468422119140625,-0.6966965198516846,4.010001182556152,-4.9734978675842285
1772649760533438000,6.48843798828125,1.3585597276687622,-6.634929656982422,1.0413191318511963
1772649760553447700,6.50844775390625,3.154334545135498,-22.37210464477539,19.721603393554688
1772649760573457000,6.528456787109375,-4.384675979614258,-13.511716842651367,8.631454467773438
1772649760593466000,6.548466064453125,2.8059334754943848,-8.739930152893066,10.83242416381836
1772649760613475300,6.568475341796875,2.356236696243286,-9.990083694458008,13.297218322753906
1772649760633484500,6.588484619140625,-0.4044818878173828,-9.146334648132324,10.528447151184082
1772649760653493800,6.60849365234375,-0.07051146030426025,-8.190815925598145,10.050284385681152
1772649760673503000,6.6285029296875,3.8024988174438477,-8.251941680908203,11.987884521484375
1772649760693512200,6.64851220703125,0.633884072303772,-9.900161743164062,10.102294921875
1772649760713521400,6.668521484375,-0.376808762550354,-8.758472442626953,6.519854545593262
1772649760733530400,6.6885302734375,-0.9257664680480957,-6.973272323608398,4.021793365478516
1772649760753539800,6.708539794921875,0.0879356861114502,-3.909287452697754,2.766415596008301
1772649760773549000,6.728549072265625,0.40769410133361816,0.6944270133972168,-0.9790248870849609
1772649760793558000,6.74855810546875,-0.33047616481781006,4.558006763458252,-4.226315498352051
1772649760813567200,6.768567138671875,-0.26516735553741455,6.543311595916748,-6.874762535095215
1772649760833576400,6.788576416015625,1.1005518436431885,7.5532708168029785,-9.228795051574707
1772649760853585700,6.808585693359375,1.7210545539855957,8.760588645935059,-10.492908477783203
1772649760873595000,6.828594970703125,1.0534626245498657,10.486455917358398,-11.871971130371094
1772649760893604000,6.84860400390625,0.5182225704193115,11.596756935119629,-11.927191734313965
1772649760913613300,6.86861328125,-1.2570178508758545,11.142816543579102,-8.828550338745117
1772649760933622500,6.88862255859375,-0.5792412757873535,9.18078327178955,-4.160195827484131
1772649760953631700,6.9086318359375,1.7451808452606201,6.8009514808654785,-1.7527008056640625
1772649760973641000,6.928640869140625,1.0932568311691284,6.80283784866333,-3.707822322845459
1772649760993650700,6.948650634765625,0.36299145221710205,6.383000373840332,-3.6680545806884766
1772649761013660000,6.968659912109375,0.7490547895431519,6.8770856857299805,-4.280196666717529
1772649761033669000,6.988669189453125,0.7084348201751709,7.956977367401123,-4.866822719573975
1772649761053678300,7.00867822265625,0.2792259454727173,8.629461288452148,-5.408737659454346
1772649761073686000,7.02868603515625,-0.9132351875305176,5.960833549499512,-5.115983486175537
1772649761093693400,7.048693359375,3.2343411445617676,-5.303370475769043,2.020812511444092
1772649761113701000,7.068701171875,2.885869264602661,-22.55142593383789,19.10284423828125
1772649761133708500,7.08870849609375,-11.403656005859375,-7.919111251831055,7.9896345138549805
1772649761153716200,7.10871630859375,5.022510528564453,-12.599321365356445,13.70925521850586
1772649761173724000,7.128723876953125,3.7345688343048096,-10.552942276000977,11.110176086425781
1772649761193731300,7.1487314453125,1.625800371170044,-9.254137992858887,12.52981948852539
1772649761213739000,7.168739013671875,-0.19567382335662842,-7.635713577270508,12.50757122039795
1772649761233746400,7.188746337890625,2.3736863136291504,-5.300148963928223,13.637866020202637
1772649761253754000,7.208754150390625,0.04764074087142944,-8.005855560302734,12.600252151489258
1772649761273761500,7.228761474609375,0.18346142768859863,-7.56502628326416,8.520063400268555
1772649761293769200,7.248769287109375,0.1435232162475586,-6.988422393798828,5.986517429351807
1772649761313776600,7.268776611328125,1.019029140472412,-4.786923408508301,3.478527545928955
1772649761333784300,7.288784423828125,1.2328964471817017,-0.3889751434326172,-1.120063304901123
1772649761353791700,7.308791748046875,-0.4044085741043091,2.787592887878418,-4.270788192749023
1772649761373799400,7.32879931640625,-0.00983881950378418,4.744662761688232,-7.305931091308594
1772649761393806800,7.348806884765625,1.0362333059310913,6.4579949378967285,-9.828856468200684
1772649761413814500,7.368814453125,0.7976268529891968,8.804661750793457,-12.129207611083984
1772649761433822000,7.388822021484375,0.3671835660934448,11.489036560058594,-14.710042953491211
1772649761453829600,7.40882958984375,-1.2289586067199707,12.912492752075195,-13.681122779846191
1772649761473837000,7.428837158203125,-0.2529470920562744,11.780817985534668,-8.105239868164062
1772649761493844700,7.4488447265625,1.5907537937164307,8.055022239685059,-3.044991970062256
1772649761513852200,7.46885205078125,2.7725300788879395,5.625250339508057,-0.40895724296569824
1772649761533859800,7.48885986328125,1.2365247011184692,5.543917655944824,-3.1067657470703125
1772649761553867300,7.5088671875,0.061228156089782715,5.7341485023498535,-3.4764344692230225
1772649761573876200,7.528876220703125,1.6744698286056519,6.973981857299805,-4.444434642791748
1772649761593885700,7.5488857421875,1.7753859758377075,8.704489707946777,-5.215709686279297
1772649761613895000,7.56889501953125,0.8949277400970459,9.097708702087402,-5.792229652404785
1772649761673922600,7.628922607421875,0.9755018949508667,-7.3970136642456055,4.695394515991211
1772649761693931800,7.648931884765625,5.3020429611206055,-27.38359832763672,23.856706619262695
1772649761713941200,7.668941162109375,-5.046810150146484,-17.53684425354004,8.664360046386719
1772649761733950500,7.688950439453125,2.9371373653411865,-8.337434768676758,8.454686164855957
1772649761753959700,7.708959716796875,0.3258248567581177,-3.3497257232666016,11.50760555267334
1772649761773969000,7.728968994140625,-0.6389100551605225,-4.440662384033203,12.077997207641602
1772649761793978000,7.74897802734375,0.303652286529541,-6.105530738830566,10.66413688659668
1772649761813987600,7.768987548828125,3.513984203338623,-9.129155158996582,13.623821258544922
1772649761833996800,7.788996826171875,-0.46902787685394287,-11.749699592590332,12.30546760559082
1772649761854006000,7.809006103515625,-0.965004563331604,-9.390992164611816,7.858684062957764
1772649761874015200,7.82901513671875,0.4231675863265991,-6.180961608886719,5.645866870880127
1772649761894024400,7.8490244140625,0.6489185094833374,-2.982511520385742,4.494523525238037
1772649761914033700,7.86903369140625,0.3791249990463257,2.113314151763916,-1.945784568786621
1772649761934043100,7.889043212890625,-0.7751009464263916,5.258187770843506,-5.999208927154541
1772649761954052400,7.90905224609375,0.5616364479064941,7.338660717010498,-9.253886222839355
1772649761974061600,7.9290615234375,1.594205379486084,8.362702369689941,-10.913763999938965
1772649761994070800,7.94907080078125,1.241791009902954,10.011600494384766,-12.599323272705078
1772649762014080000,7.969080078125,1.488548994064331,11.148397445678711,-14.578742980957031
1772649762034089500,7.98908935546875,-1.5506575107574463,11.91080093383789,-11.329500198364258
1772649762054098700,8.0090986328125,0.9152464866638184,9.423051834106445,-5.494983196258545
1772649762074107600,8.029107666015625,2.2438442707061768,6.502366542816162,-1.4504621028900146
1772649762094116600,8.04911669921875,1.308613657951355,4.7043023109436035,-2.8678019046783447
1772649762114125600,8.06912548828125,0.038763999938964844,5.172115802764893,-3.514493703842163
1772649762134134500,8.089134521484375,1.3449326753616333,7.335635662078857,-5.371241569519043
1772649762154143500,8.1091435546875,1.6165759563446045,8.750807762145996,-6.584641456604004
1772649762174152400,8.12915234375,1.7430893182754517,9.244728088378906,-6.414718151092529
1772649762194161400,8.149161376953124,0.8382754325866699,7.993015766143799,-6.083543300628662
1772649762214170400,8.16917041015625,-1.2802693843841553,5.409298896789551,-5.929924964904785
1772649762234179300,8.189179443359375,-1.5093923807144165,-1.2228765487670898,-2.528390645980835
1772649762254188300,8.209188232421875,7.827698230743408,-25.932720184326172,26.192607879638672
1772649762274197200,8.229197265625,-6.558183193206787,-22.610578536987305,14.82667350769043
1772649762294206200,8.249206298828126,2.6371679306030273,-2.8692874908447266,9.255043029785156
1772649762314215200,8.269215087890625,2.168290853500366,-5.0659332275390625,9.243695259094238
1772649762334224100,8.28922412109375,0.27157437801361084,-5.412472724914551,12.051718711853027
1772649762354233300,8.3092333984375,-0.1669769287109375,-7.341350555419922,10.570610046386719
1772649762374242300,8.3292421875,2.418508529663086,-6.480189323425293,11.175048828125
1772649762394251300,8.349251220703126,1.1839275360107422,-8.688779830932617,12.749006271362305
1772649762414260200,8.36926025390625,0.0773690938949585,-7.859768867492676,9.897041320800781
1772649762434269200,8.389269287109375,0.7037911415100098,-6.66650390625,7.399959564208984
1772649762454278100,8.409278076171875,0.4796212911605835,-5.007808685302734,5.356889724731445
1772649762474287000,8.429287109375,0.17794132232666016,0.2979569435119629,0.13204431533813477
1772649762494296000,8.449296142578126,-0.5002466440200806,3.8552513122558594,-2.9808082580566406
1772649762514305000,8.469304931640625,-0.7218079566955566,5.536778450012207,-5.364462375640869
1772649762534314000,8.48931396484375,-0.12177622318267822,6.596575736999512,-7.038510322570801
1772649762554323000,8.509322998046875,1.6286976337432861,7.2572526931762695,-8.578068733215332
1772649762574330400,8.529330322265626,0.7340691089630127,8.742937088012695,-12.05180549621582
1772649762594337800,8.549337890625,-0.7404170036315918,10.561873435974121,-14.946060180664062
1772649762614345500,8.569345458984374,-0.49626481533050537,9.53492259979248,-11.827603340148926
1772649762634353000,8.589352783203125,1.2766984701156616,8.407567024230957,-7.991955757141113
1772649762654360300,8.6093603515625,1.4423556327819824,6.72050666809082,-5.180864334106445
1772649762674367700,8.62936767578125,0.46596992015838623,6.330456733703613,-4.150221824645996
1772649762694375200,8.649375244140625,-0.33447158336639404,6.303872585296631,-4.003456115722656
1772649762714382800,8.6693828125,0.8500649929046631,6.384939193725586,-4.315018653869629
1772649762734390300,8.689390380859376,1.6403703689575195,7.354637145996094,-4.9312238693237305
1772649762754397700,8.709397705078125,0.7994507551193237,7.795377731323242,-6.085325717926025
1772649762774405000,8.729405029296874,0.42267560958862305,6.133450508117676,-6.246161937713623
1772649762794412500,8.74941259765625,-2.8527865409851074,1.7141661643981934,-6.174041748046875
1772649762814420200,8.769420166015625,2.711414337158203,-18.066699981689453,16.65830421447754
1772649762834427600,8.789427734375,-4.814452171325684,-20.286222457885742,15.808822631835938
1772649762854435000,8.80943505859375,1.7039138078689575,-4.866357803344727,9.113147735595703
1772649762874442500,8.8294423828125,3.923772096633911,-6.622209548950195,8.967388153076172
1772649762894450000,8.849449951171875,1.9962224960327148,-1.8298020362854004,5.916657447814941
1772649762914457300,8.869457275390625,-1.271864652633667,-2.0838160514831543,8.572837829589844
1772649762934465000,8.889465087890626,-0.6819686889648438,-0.23123931884765625,8.926599502563477
1772649762954472400,8.909472412109375,-0.12899959087371826,-0.4289999008178711,9.033012390136719
1772649762974480000,8.92947998046875,-0.7642762660980225,-4.0021891593933105,8.203397750854492
1772649762994487300,8.9494873046875,-0.6066486835479736,-6.27744197845459,5.6410088539123535
1772649763014494700,8.96949462890625,0.02127063274383545,-5.418334007263184,2.7467284202575684
1772649763034502400,8.98950244140625,1.9793387651443481,-3.204507827758789,2.371738910675049
1772649763054509800,9.009509765625,3.004910945892334,0.19273614883422852,0.9502382278442383
1772649763074518500,9.0295185546875,2.001018762588501,2.4952449798583984,0.3660125732421875
1772649763094527200,9.04952734375,1.632460594177246,3.533006191253662,-0.912022590637207
1772649763114535700,9.06953564453125,1.3545194864273071,3.7192540168762207,-1.2479443550109863
1772649763134544400,9.08954443359375,0.5290802717208862,3.871534824371338,-2.890011787414551
1772649763154553000,9.109552978515625,0.3679729700088501,3.4416284561157227,-3.683137893676758
1772649763174561800,9.129561767578124,0.13850927352905273,3.230175495147705,-4.083187103271484
1772649763194570500,9.149570556640626,-0.4316612482070923,3.6224417686462402,-4.572912216186523
1772649763214579200,9.1695791015625,0.21725821495056152,3.8161215782165527,-4.349997520446777
1772649763234588000,9.189587890625,1.4643303155899048,3.2087531089782715,-3.872509241104126
1772649763254596600,9.2095966796875,0.5372439622879028,2.8419723510742188,-4.435101509094238
1772649763274605300,9.229605224609376,1.1274213790893555,1.2187504768371582,-3.3984832763671875
1772649763294614000,9.249614013671875,1.3720545768737793,-0.7059612274169922,-1.648904800415039
1772649763314622500,9.26962255859375,0.4592519998550415,-3.795027732849121,2.1277174949645996
1772649763334631200,9.289631103515624,-1.8254119157791138,-5.76256799697876,5.573789596557617
1772649763354640000,9.309639892578126,-4.159748077392578,-2.0556039810180664,5.788947582244873
1772649763374648600,9.329648681640625,-2.0353591442108154,0.5068883895874023,3.552448272705078
1772649763394657300,9.3496572265625,-0.9547559022903442,1.4648504257202148,2.0902371406555176
1772649763414666000,9.369666015625,0.40114474296569824,2.6829915046691895,-0.2711763381958008
1772649763434674700,9.3896748046875,0.18775278329849243,2.6114845275878906,-1.6739625930786133
1772649763454683400,9.409683349609375,0.8319275379180908,2.3837227821350098,-1.3998260498046875
1772649763474692000,9.429692138671875,1.573564052581787,2.5688157081604004,-0.744257926940918
1772649763494700800,9.44970068359375,1.1988800764083862,2.3664088249206543,-0.036443233489990234
1772649763514709500,9.46970947265625,0.8003852367401123,1.489302635192871,0.9207615852355957
1772649763534718000,9.489718017578125,0.5205081701278687,0.5860376358032227,2.201446056365967
1772649763554726700,9.5097265625,0.33117079734802246,0.42427492141723633,2.760972023010254
1772649763574734800,9.52973486328125,0.34968191385269165,0.529576301574707,2.1486802101135254
1772649763594742800,9.54974267578125,0.2398473620414734,0.8267102241516113,1.3858771324157715
1772649763614751000,9.5697509765625,0.019002318382263184,1.0839385986328125,0.6853451728820801
1772649763634759000,9.589759033203125,-0.29298263788223267,1.2866253852844238,0.4188528060913086
1772649763654767000,9.60976708984375,-0.20117932558059692,1.4204421043395996,0.10696077346801758
1772649763674775000,9.629775146484375,0.04704940319061279,1.2153043746948242,0.3616328239440918
1772649763694783200,9.649783203125,0.10759949684143066,0.5036935806274414,0.8498616218566895
1772649763714791200,9.669791259765624,0.16084951162338257,0.2306041717529297,1.183727741241455
1772649763734799400,9.68979931640625,0.24616408348083496,0.22128868103027344,1.2460064888000488
1772649763754807300,9.709807373046875,0.35105252265930176,0.3334512710571289,1.111454963684082
1772649763774815500,9.7298154296875,0.27043116092681885,0.38708972930908203,0.6736774444580078
1772649763794823700,9.74982373046875,0.20088297128677368,0.5798263549804688,0.3194904327392578
1772649763814831600,9.76983154296875,0.07114893198013306,0.7690801620483398,0.24694585800170898
1772649763834839800,9.78983984375,0.04966580867767334,0.9661149978637695,0.2990398406982422
1772649763854847700,9.80984765625,0.015747129917144775,0.8656597137451172,0.550635814666748
1772649763874856000,9.82985595703125,-0.18720531463623047,0.8721437454223633,0.742375373840332
1772649763894864000,9.84986376953125,-0.14810127019882202,0.7233729362487793,0.9710721969604492
1772649763914872000,9.8698720703125,-0.16784018278121948,0.8055558204650879,0.7908391952514648
1772649763934880000,9.8898798828125,-0.1438056230545044,0.7016925811767578,0.7756228446960449
1772649763954888200,9.90988818359375,-0.10004174709320068,0.7377796173095703,0.4658389091491699
1772649763974896000,9.929896240234376,-0.049315571784973145,0.6569890975952148,0.386929988861084
1772649763994904300,9.949904296875,0.15866577625274658,0.5468411445617676,0.36366844177246094
1772649764014912300,9.969912353515625,-0.02239358425140381,0.6730809211730957,0.4020700454711914
1772649764034920400,9.98992041015625,0.10760831832885742,0.45974016189575195,0.6894760131835938
1772649764054928400,10.009928466796875,0.030954718589782715,0.565274715423584,0.6637187004089355
1772649764074937600,10.0299375,0.1035381555557251,0.6478757858276367,0.6680784225463867
1772649764094946800,10.04994677734375,0.03775179386138916,0.6060976982116699,0.605712890625
1772649764114956000,10.0699560546875,0.1439523696899414,0.6463189125061035,0.6308116912841797
1772649764134965200,10.08996533203125,-0.09388017654418945,0.6503329277038574,0.5162577629089355
1772649764154974500,10.109974365234375,0.18664813041687012,0.614565372467041,0.5727400779724121
1772649764174983700,10.129983642578125,0.1772516965866089,0.7165627479553223,0.515810489654541
1772649764194993000,10.149992919921875,0.09288513660430908,0.6802659034729004,0.5809922218322754
1772649764215002000,10.170002197265624,0.039887070655822754,0.6118111610412598,0.653111457824707
1772649764235011300,10.19001123046875,0.12222051620483398,0.6249451637268066,0.6645865440368652
1772649764255020500,10.2100205078125,0.05779743194580078,0.7134065628051758,0.6029558181762695
1772649764275029800,10.23002978515625,0.022762298583984375,0.7404665946960449,0.5645527839660645
1772649764295039000,10.2500390625,0.00907599925994873,0.6891450881958008,0.5820727348327637
1772649764315048200,10.270048095703125,-0.08154666423797607,0.5675249099731445,0.5010910034179688
1772649764335057400,10.290057373046874,0.07433247566223145,0.5718655586242676,0.4444141387939453
1772649764355066400,10.31006640625,0.1062004566192627,0.5810918807983398,0.3613014221191406
1772649764375075600,10.33007568359375,0.13870584964752197,0.599062442779541,0.519467830657959
1772649764395084800,10.350084716796875,0.09282684326171875,0.6386513710021973,0.5276436805725098
1772649764415094000,10.370093994140625,0.105660080909729,0.6451840400695801,0.484832763671875
1772649764435103200,10.390103271484374,0.1391596794128418,0.6874361038208008,0.4725155830383301
1772649764455112400,10.410112548828126,0.08609986305236816,0.6285905838012695,0.5009322166442871
1772649764475121700,10.43012158203125,0.07368552684783936,0.6159720420837402,0.5876069068908691
1772649764495131000,10.450130859375,0.019310593605041504,0.5980134010314941,0.6491127014160156
1772649764515140000,10.47014013671875,-0.056897521018981934,0.6296148300170898,0.6299142837524414
1772649764535149300,10.4901494140625,-0.07229292392730713,0.6061849594116211,0.5294804573059082
1772649764555158500,10.510158447265624,-0.04818999767303467,0.5732488632202148,0.609525203704834
1772649764575168500,10.53016845703125,0.02664482593536377,0.6105189323425293,0.5589227676391602
1772649764595178200,10.55017822265625,0.19301187992095947,0.6413226127624512,0.4324016571044922
1772649764615188000,10.57018798828125,0.22273719310760498,0.6757040023803711,0.3546943664550781
1772649764635198000,10.590197998046875,0.23222434520721436,0.692413330078125,0.42459774017333984
1772649764655208000,10.6102080078125,0.15093350410461426,0.7117929458618164,0.5324974060058594
1772649764675217700,10.6302177734375,0.15533649921417236,0.6248793601989746,0.648444652557373
1772649764695227600,10.6502275390625,0.18271493911743164,0.6072020530700684,0.7069802284240723
1772649764715237400,10.6702373046875,0.08172428607940674,0.75,0.597374439239502
1772649764735247400,10.690247314453124,0.09581446647644043,0.5326042175292969,0.6768064498901367
1772649764755257000,10.710257080078126,0.24233853816986084,0.49324893951416016,0.612886905670166
1772649764775267000,10.73026708984375,0.11632609367370605,0.42713356018066406,0.5679364204406738
1772649764795276800,10.75027685546875,0.12729215621948242,0.35396575927734375,0.5367617607116699
1772649764815286800,10.770286865234375,0.13369488716125488,0.34516048431396484,0.5096874237060547
1772649764835296500,10.790296630859375,0.18362629413604736,0.2834792137145996,0.48375558853149414
1772649764855306500,10.810306396484375,0.09511053562164307,0.3176255226135254,0.5231781005859375
1772649764875316200,10.830316162109375,0.05829024314880371,0.4588747024536133,0.5462756156921387
1772649764895326200,10.850326171875,0.03183567523956299,0.36559104919433594,0.6580662727355957
1772649764915336000,10.8703359375,0.11818087100982666,0.46896886825561523,0.43164682388305664
1772649764935346000,10.890345947265626,0.052181363105773926,0.4847550392150879,0.4673619270324707
