time,seconds_elapsed,z,y,x
1772649754238226200,0.19322607421875,0.0768321305513382,0.026098955422639847,-0.09414266049861908
1772649754258235100,0.213235107421875,0.06564686447381973,0.013315794058144093,-0.10532793402671814
1772649754268239600,0.223239501953125,0.06191844120621681,0.00852210819721222,-0.09893634915351868
1772649754278244000,0.233244140625,0.06564686447381973,0.0026631588116288185,-0.07283739000558853
1772649754288248600,0.24324853515625,0.05446159839630127,-0.051665280014276505,-0.04087948799133301
1772649754298252800,0.253252685546875,0.08748476952314377,-0.019707374274730682,-0.03874896094202995
1772649754308257300,0.26325732421875,0.11837740987539291,-0.04900212213397026,-0.030759483575820923
1772649754318261800,0.27326171875,0.14500899612903595,-0.07829686999320984,-0.004127896390855312
1772649754328266200,0.283266357421875,0.17377111315727234,-0.09800424426794052,0.012383688241243362
1772649754338270700,0.293270751953125,0.15033531188964844,-0.15925689041614532,0.022503692656755447
1772649754348275200,0.303275146484375,0.19188059866428375,-0.2162484973669052,0.02090579643845558
1772649754358279700,0.31327978515625,0.2510027289390564,-0.17630110681056976,-0.03608580306172371
1772649754368284000,0.323283935546875,0.254731148481369,-0.20399796962738037,-0.06058686226606369
1772649754378288400,0.333288330078125,0.24993745982646942,-0.20026955008506775,-0.07230476289987564
1772649754388292900,0.34329296875,0.24461114406585693,-0.18269269168376923,-0.09414266049861908
1772649754398297300,0.35329736328125,0.2552637755870819,-0.2167811244726181,-0.13888372480869293
1772649754408301800,0.3633017578125,0.26378586888313293,-0.26525062322616577,-0.1729721575975418
1772649754418306300,0.373306396484375,0.26218798756599426,-0.2583264112472534,-0.1633847951889038
1772649754428310800,0.383310791015625,0.2600574493408203,-0.25726112723350525,-0.14847110211849213
1772649754438315000,0.39331494140625,0.2600574493408203,-0.24820640683174133,-0.1399489939212799
1772649754448319500,0.403319580078125,0.26804694533348083,-0.24341271817684174,-0.13462267816066742
1772649754458324000,0.413323974609375,0.2755037844181061,-0.24660851061344147,-0.12450267374515533
1772649754468328400,0.423328369140625,0.27603641152381897,-0.24394534528255463,-0.11331740766763687
1772649754478333000,0.4333330078125,0.2707100808620453,-0.2311621904373169,-0.1074584573507309
1772649754488337400,0.44333740234375,0.26165536046028137,-0.21305270493030548,-0.1026647686958313
1772649754498341600,0.453341552734375,0.24887219071388245,-0.18748638033866882,-0.10799109190702438
1772649754508346000,0.46334619140625,0.23981745541095734,-0.15286532044410706,-0.11385004222393036
1772649754518350600,0.4733505859375,0.2419479787349701,-0.13209268450737,-0.11917635798454285
1772649754528355000,0.48335498046875,0.24301324784755707,-0.11132004112005234,-0.1266331970691681
1772649754538359600,0.493359619140625,0.24887219071388245,-0.07776423543691635,-0.12183951586484909
1772649754548364000,0.503364013671875,0.24514377117156982,-0.04420843720436096,-0.10053424537181854
1772649754558368300,0.5133681640625,0.24514377117156982,-0.012250530533492565,-0.06697844713926315
1772649754568372700,0.523372802734375,0.2414153516292572,0.01704421639442444,-0.033955276012420654
1772649754578377200,0.533377197265625,0.23928481340408325,0.03834948688745499,0.005992107093334198
1772649754588381700,0.543381591796875,0.23555639386177063,0.0564589649438858,0.043808963149785995
1772649754598386200,0.55338623046875,0.22543638944625854,0.07243791967630386,0.10665950924158096
1772649754608390400,0.563390380859375,0.20679427683353424,0.07723160833120346,0.1705753207206726
1772649754618395000,0.573394775390625,0.1849563866853714,0.0894821360707283,0.2419479787349701
1772649754628399400,0.5833994140625,0.16684690117835999,0.08149266242980957,0.3026680052280426
1772649754638403800,0.59340380859375,0.13968268036842346,0.054861072450876236,0.3420827388763428
1772649754648408300,0.603408203125,0.09707213938236237,0.018642112612724304,0.3820301294326782
1772649754658412500,0.61341259765625,0.03741738200187683,-0.03249053657054901,0.4150533080101013
1772649754668417000,0.6234169921875,-0.022770008072257042,-0.08735160529613495,0.4102596044540405
1772649754678421500,0.63342138671875,-0.08402266353368759,-0.1411474198102951,0.37670382857322693
1772649754688426000,0.643426025390625,-0.1596563756465912,-0.17150743305683136,0.33302801847457886
1772649754698430500,0.653430419921875,-0.24541008472442627,-0.24181482195854187,0.353268027305603
1772649754708434700,0.6634345703125,-0.3567301332950592,-0.33662328124046326,0.43369540572166443
1772649754718439200,0.673439208984375,-0.4808333218097687,-0.4330296218395233,0.5508744120597839
1772649754728443600,0.683443603515625,-0.6246439218521118,-0.5166528224945068,0.6659228801727295
1772649754738448100,0.6934482421875,-0.7657912969589233,-0.5949496626853943,0.7287734150886536
1772649754748452400,0.703452392578125,-0.8648608326911926,-0.6050696969032288,0.7053375840187073
1772649754758456800,0.713456787109375,-0.8808397650718689,-0.3866906464099884,0.5934849381446838
1772649754768461300,0.72346142578125,-0.8376966118812561,0.0378168560564518,0.36125749349594116
1772649754778465800,0.7334658203125,-0.7689871191978455,0.23648850619792938,0.17004269361495972
1772649754788470300,0.74347021484375,-0.708267092704773,0.28016430139541626,0.23608903586864471
1772649754798474500,0.753474609375,-0.6853639483451843,0.3163832724094391,0.5556681156158447
1772649754808479000,0.76347900390625,-0.5426186323165894,0.4159854054450989,0.9849692583084106
1772649754818483500,0.7734833984375,-0.25979113578796387,0.4676506817340851,1.3210599422454834
1772649754828488000,0.783488037109375,0.024101587012410164,0.28549063205718994,1.3519525527954102
1772649754838492200,0.7934921875,0.052331071346998215,0.14860425889492035,1.05527663230896
1772649754848496600,0.80349658203125,-0.06538055092096329,0.4063980281352997,0.6376934051513672
1772649754858501000,0.813501220703125,-0.10799109190702438,0.42237699031829834,0.4304996132850647
1772649754868505600,0.823505615234375,-0.19001637399196625,0.3121222257614136,0.37510591745376587
1772649754878510000,0.833510009765625,-0.35886064171791077,0.28975167870521545,0.2840258777141571
1772649754888514300,0.843514404296875,-0.510660707950592,0.3536674976348877,0.13382373750209808
1772649754898518800,0.853518798828125,-0.5101280808448792,0.4090611934661865,-0.07123950123786926
1772649754908523300,0.863523193359375,-0.3609911799430847,0.32330748438835144,-0.20759323239326477
1772649754918527700,0.87352783203125,-0.22144165635108948,0.1933453232049942,-0.15699321031570435
1772649754928532200,0.8835322265625,-0.12183951586484909,0.11558109521865845,0.02516685053706169
1772649754938536400,0.893536376953125,0.00013315794058144093,0.20026955008506775,0.18282584846019745
1772649754948541000,0.903541015625,0.09227845072746277,0.28549063205718994,0.23449113965034485
1772649754958545400,0.91354541015625,0.13062794506549835,0.3051980137825012,0.1940111219882965
1772649754968550000,0.9235498046875,0.1284974068403244,0.25619587302207947,0.0858868733048439
1772649754978554400,0.933554443359375,0.1050616130232811,0.20879164338111877,-0.07177212834358215
1772649754988558600,0.94355859375,0.06884265691041946,0.15286532044410706,-0.271509051322937
1772649754998563000,0.95356298828125,0.06671212613582611,0.07616633921861649,-0.46272385120391846
1772649755008567600,0.963567626953125,0.1141163557767868,0.04900212213397026,-0.6273070573806763
1772649755018572000,0.973572021484375,0.2137184888124466,0.04527369886636734,-0.7279744744300842
1772649755028576500,0.983576416015625,0.3255711793899536,0.0282294824719429,-0.7215828895568848
1772649755038580700,0.993580810546875,0.4251733124256134,-0.001597895286977291,-0.6347638964653015
1772649755048585200,1.003585205078125,0.481632262468338,-0.034621063619852066,-0.540488064289093
1772649755058589700,1.013589599609375,0.5061333179473877,-0.014913689345121384,-0.5117259621620178
1772649755068594200,1.02359423828125,0.48429542779922485,-0.004793685860931873,-0.5484775304794312
1772649755078599000,1.033598876953125,0.4390217363834381,-0.0612526535987854,-0.6012080907821655
1772649755088603400,1.043603271484375,0.38948696851730347,-0.12836425006389618,-0.6241112947463989
1772649755098608000,1.053608154296875,0.33728906512260437,-0.15765899419784546,-0.6225133538246155
1772649755108612600,1.063612548828125,0.2786995768547058,-0.1507347822189331,-0.5948165059089661
1772649755118617000,1.0736171875,0.231827974319458,-0.10013477504253387,-0.5692501664161682
1772649755128621800,1.083621826171875,0.20306585729122162,-0.0005326317623257637,-0.528237521648407
1772649755138626300,1.093626220703125,0.15832479298114777,0.051132649183273315,-0.5117259621620178
1772649755148630800,1.103630859375,0.12263846397399902,0.030892642214894295,-0.5660544037818909
1772649755158635500,1.113635498046875,0.12423636019229889,0.066046342253685,-0.6864292025566101
1772649755168640000,1.123639892578125,0.1801626980304718,0.17150743305683136,-0.8190544843673706
1772649755178644500,1.13364453125,0.2691121995449066,0.2599242925643921,-0.9282439947128296
1772649755188649200,1.143649169921875,0.3649859130382538,0.2775011360645294,-0.9825724363327026
1772649755198653700,1.15365380859375,0.4629901647567749,0.18642111122608185,-0.9708545207977295
1772649755208658400,1.163658447265625,0.5418196320533752,0.02024000696837902,-0.8957534432411194
1772649755218663000,1.173662841796875,0.6030722856521606,-0.19068217277526855,-0.7860313057899475
1772649755228667400,1.18366748046875,0.6568681001663208,-0.32863378524780273,-0.6853639483451843
1772649755238672100,1.193672119140625,0.7303712964057922,-0.2876211404800415,-0.6342312693595886
1772649755248676600,1.203676513671875,0.7554050087928772,-0.16298532485961914,-0.6400902271270752
1772649755258681000,1.21368115234375,0.6605965495109558,-0.23435798287391663,-0.6203828454017639
1772649755268685800,1.223685791015625,0.5311670303344727,-0.2876211404800415,-0.49255120754241943
1772649755278690300,1.233690185546875,0.3932153880596161,-0.2029327005147934,-0.2901511490345001
1772649755288695000,1.243695068359375,0.23555639386177063,-0.09587371349334717,-0.08295739442110062
1772649755298699500,1.253699462890625,0.0810931846499443,-0.029827378690242767,0.08908266574144363
1772649755308704000,1.2637041015625,-0.030759483575820923,-0.02077263966202736,0.22437113523483276
1772649755318708700,1.273708740234375,-0.12450267374515533,-0.07190528512001038,0.3159838020801544
1772649755328713200,1.283713134765625,-0.21185427904129028,-0.13741900026798248,0.36232274770736694
1772649755338717700,1.2937177734375,-0.28429219126701355,-0.17789900302886963,0.36125749349594116
1772649755348722400,1.303722412109375,-0.32104378938674927,-0.1597895324230194,0.3543332815170288
1772649755358727000,1.313726806640625,-0.32637012004852295,-0.09747160971164703,0.36232274770736694
1772649755368731400,1.3237314453125,-0.36471959948539734,-0.013315794058144093,0.37137749791145325
1772649755378736000,1.333736083984375,-0.4744417369365692,0.08202528953552246,0.4123901426792145
1772649755388740600,1.34374072265625,-0.5628586411476135,0.33715590834617615,0.4864259660243988
1772649755398745300,1.353745361328125,-0.5596628189086914,0.7233139276504517,0.6302365064620972
1772649755408749800,1.363749755859375,-0.3524690568447113,1.480183720588684,1.1772493124008179
1772649755418754300,1.37375439453125,-0.3865574896335602,2.3329272270202637,2.4662182331085205
1772649755428759000,1.383759033203125,-0.4659196436405182,0.44155174493789673,2.2132182121276855
1772649755438763500,1.393763427734375,-0.1687111109495163,-1.410408854484558,0.14927005767822266
1772649755448768000,1.40376806640625,0.3117227256298065,-0.5619264841079712,-1.3665999174118042
1772649755458772700,1.413772705078125,0.49388280510902405,0.44155174493789673,-0.7258439064025879
1772649755468777200,1.423777099609375,0.10879004001617432,0.43729066848754883,0.8938892483711243
1772649755478782000,1.433781982421875,-0.47657227516174316,0.039414748549461365,1.6464979648590088
1772649755488786400,1.443786376953125,-0.8062713146209717,-0.18535585701465607,1.1649987697601318
1772649755498791000,1.453791015625,-0.8914924263954163,-0.22796639800071716,0.37084487080574036
1772649755508795600,1.463795654296875,-0.8350334167480469,-0.23329271376132965,-0.06378265470266342
1772649755518800100,1.473800048828125,-0.7444860339164734,0.019707374274730682,-0.1596563756465912
1772649755528804900,1.483804931640625,-0.5788375735282898,0.4191811978816986,-0.16285216808319092
1772649755538809300,1.493809326171875,-0.3838943541049957,0.5597959756851196,-0.2155826985836029
1772649755548813800,1.503813720703125,-0.2581932544708252,0.32384011149406433,-0.3945469856262207
1772649755558818300,1.513818359375,-0.19587533175945282,-0.1784316450357437,-0.5681849122047424
1772649755568822500,1.523822509765625,-0.2209090292453766,-0.43569278717041016,-0.5916207432746887
1772649755578826500,1.533826416015625,-0.2438121885061264,-0.2934800982475281,-0.5468796491622925
1772649755588830700,1.543830810546875,-0.22730059921741486,-0.02450106106698513,-0.46485435962677
1772649755598835000,1.5538349609375,-0.21877849102020264,0.2258358597755432,-0.39348170161247253
1772649755608839000,1.5638388671875,-0.30826061964035034,0.36538538336753845,-0.389220654964447
1772649755618843100,1.573843017578125,-0.4360922574996948,0.30839377641677856,-0.41105857491493225
1772649755628847400,1.583847412109375,-0.5623259544372559,0.09480845183134079,-0.42650488018989563
1772649755638851300,1.593851318359375,-0.6491449475288391,-0.0990695059299469,-0.4478101432323456
1772649755648855600,1.60385546875,-0.6507428288459778,-0.2588590383529663,-0.48136594891548157
1772649755658859500,1.613859619140625,-0.5340964794158936,-0.19068217277526855,-0.45260384678840637
1772649755668863700,1.62386376953125,-0.3487406373023987,0.0894821360707283,-0.34181642532348633
1772649755678868000,1.633867919921875,-0.1548626869916916,0.38189697265625,-0.20013637840747833
1772649755688872000,1.643871826171875,-0.008388950489461422,0.46019384264945984,-0.10213214159011841
1772649755698876200,1.653876220703125,0.09334371984004974,0.4522043764591217,-0.021172111853957176
1772649755708880100,1.663880126953125,0.1897500604391098,0.4016043543815613,0.035286854952573776
1772649755718884400,1.67388427734375,0.2930806279182434,0.3430148661136627,0.05126580595970154
1772649755728888600,1.683888671875,0.3841606676578522,0.23169481754302979,0.01717737503349781
1772649755738892500,1.693892578125,0.448076456785202,0.034621063619852066,-0.04673843830823898
1772649755748896800,1.703896728515625,0.4715122580528259,-0.19068217277526855,-0.1266331970691681
1772649755758900700,1.713900634765625,0.4645880460739136,-0.5075980424880981,-0.2502037584781647
1772649755768905000,1.723905029296875,0.4592617452144623,-0.7701855301856995,-0.40679749846458435
1772649755778909200,1.7339091796875,0.4784364700317383,-0.7158570885658264,-0.5703154802322388
1772649755788913200,1.7439130859375,0.5279712080955505,-0.41172435879707336,-0.7231807708740234
1772649755798917400,1.75391748046875,0.6403565406799316,-0.14540846645832062,-0.8249134421348572
1772649755808921300,1.76392138671875,0.7335671186447144,-0.09587371349334717,-0.7780418395996094
1772649755818925600,1.773925537109375,0.65953129529953,-0.1880190074443817,-0.5671196579933167
1772649755828929800,1.7839296875,0.5450154542922974,-0.32863378524780273,-0.2624543011188507
1772649755838933800,1.793933837890625,0.44701120257377625,-0.43675804138183594,0.044874224811792374
1772649755848938000,1.80393798828125,0.3442132771015167,-0.5107938647270203,0.29095008969306946
1772649755858942000,1.81394189453125,0.23821955919265747,-0.5235770344734192,0.4544680416584015
1772649755868946200,1.8239462890625,0.1380847841501236,-0.5230444073677063,0.5609943866729736
1772649755878950400,1.833950439453125,0.05020054429769516,-0.5198485851287842,0.6238449811935425
1772649755888954400,1.843954345703125,-0.045673172920942307,-0.44634541869163513,0.6281059980392456
1772649755898958600,1.85395849609375,-0.16285216808319092,-0.38828855752944946,0.5950828194618225
1772649755908962800,1.863962890625,-0.24274691939353943,-0.2865558862686157,0.5402217507362366
1772649755918966800,1.873966796875,-0.2581932544708252,-0.09214529395103455,0.4880238473415375
1772649755928971000,1.883970947265625,-0.23369218409061432,0.11132004112005234,0.4438154101371765
1772649755938975000,1.89397509765625,-0.16764584183692932,0.37390750646591187,0.34740906953811646
1772649755948979200,1.903979248046875,-0.08988160640001297,0.679638147354126,0.231827974319458
1772649755958983400,1.9139833984375,-0.03715106472373009,0.927311897277832,0.12743215262889862
1772649755968987400,1.9239873046875,-0.0318247489631176,1.3246551752090454,0.33462589979171753
1772649755978991600,1.93399169921875,-0.22889849543571472,2.583796739578247,1.5868431329727173
1772649755988995800,1.943995849609375,-0.58256596326828,1.6724637746810913,2.859833002090454
1772649755998999800,1.953999755859375,-0.20333217084407806,-1.8450363874435425,2.2387845516204834
1772649756009004000,1.964004150390625,0.044874224811792374,-2.426137685775757,0.7261102795600891
1772649756019008000,1.974008056640625,-0.07976160943508148,0.04048001393675804,-0.271509051322937
1772649756029012200,1.98401220703125,-0.25659534335136414,0.6652570962905884,-0.07816371321678162
1772649756039016400,1.994016357421875,-0.9628650546073914,-0.6593981385231018,0.496013343334198
1772649756049020400,2.0040205078125,-1.3958946466445923,-0.8452866077423096,0.450206995010376
1772649756059024600,2.014024658203125,-1.161536693572998,-0.01438105758279562,0.17803215980529785
1772649756069028600,2.024028564453125,-0.7370291948318481,0.25193482637405396,0.08908266574144363
1772649756079032800,2.03403271484375,-0.36844801902770996,0.25193482637405396,-0.041944749653339386
1772649756089036800,2.044036865234375,-0.024900535121560097,0.47297701239585876,-0.31198906898498535
1772649756099041000,2.054041015625,0.22011007368564606,0.6215812563896179,-0.5175849199295044
1772649756109045000,2.064044921875,0.4065311849117279,0.5177180767059326,-0.5665870308876038
1772649756119049200,2.07404931640625,0.4539354145526886,0.27963167428970337,-0.5362270474433899
1772649756129053200,2.08405322265625,0.29627642035484314,-0.018642112612724304,-0.4749743640422821
1772649756139057400,2.094057373046875,-0.02809632569551468,-0.48256438970565796,-0.43076592683792114
1772649756149061600,2.1040615234375,-0.29441219568252563,-0.9076045155525208,-0.4520712196826935
1772649756159065600,2.114065673828125,-0.4217112064361572,-0.9827055931091309,-0.5181175470352173
1772649756169069600,2.124069580078125,-0.4856269955635071,-0.7520760297775269,-0.5564670562744141
1772649756179073800,2.13407373046875,-0.5324985980987549,-0.4016043543815613,-0.5229112505912781
1772649756189078000,2.144078125,-0.5671196579933167,-0.13582110404968262,-0.47337648272514343
1772649756199082000,2.15408203125,-0.5724459886550903,-0.14274531602859497,-0.5191828012466431
1772649756209086200,2.164086181640625,-0.4797680675983429,-0.2263685017824173,-0.5538038611412048
1772649756219090200,2.174090087890625,-0.3247722089290619,-0.27110958099365234,-0.5388901829719543
1772649756229094400,2.184094482421875,-0.15166689455509186,-0.18535585701465607,-0.4717785716056824
1772649756239098400,2.194098388671875,0.02197105996310711,-0.034621063619852066,-0.3759048581123352
1772649756249102600,2.2041025390625,0.165781632065773,0.03834948688745499,-0.29814061522483826
1772649756259106600,2.2141064453125,0.288286954164505,0.10173266381025314,-0.21718059480190277
1772649756269110800,2.22411083984375,0.3596596121788025,0.1656484752893448,-0.12982898950576782
1772649756279115000,2.234114990234375,0.33782169222831726,0.2215748131275177,-0.08934897929430008
1772649756289119000,2.244118896484375,0.2504700720310211,0.1885516494512558,-0.15113426744937897
1772649756299123000,2.254123046875,0.18176059424877167,0.11504846066236496,-0.259258508682251
1772649756309127200,2.264127197265625,0.20040270686149597,0.066046342253685,-0.39135119318962097
1772649756319131400,2.27413134765625,0.26272061467170715,0.06711160391569138,-0.5436838865280151
1772649756329135400,2.28413525390625,0.30959221720695496,0.06285054981708527,-0.6944186687469482
1772649756339139600,2.2941396484375,0.3420827388763428,0.06391581147909164,-0.8158587217330933
1772649756349143600,2.3041435546875,0.4006722569465637,0.1134505644440651,-0.9149281978607178
1772649756359147800,2.314147705078125,0.5391564965248108,0.16618111729621887,-0.9958882331848145
1772649756369151700,2.32415185546875,0.7777755260467529,0.1272989958524704,-1.022519826889038
1772649756379156000,2.334156005859375,0.9546092748641968,0.027696851640939713,-0.9325050711631775
1772649756389160000,2.344159912109375,0.882703959941864,-0.07297055423259735,-0.7354313135147095
1772649756399164200,2.3541640625,0.7239797115325928,-0.16777899861335754,-0.47231122851371765
1772649756409168100,2.364168212890625,0.5732449293136597,-0.18535585701465607,-0.18469005823135376
1772649756419172400,2.37417236328125,0.4198469817638397,-0.1693768948316574,0.07949528843164444
1772649756429176600,2.384176513671875,0.28455850481987,-0.23222744464874268,0.27763429284095764
1772649756439180500,2.3941806640625,0.19347849488258362,-0.2961432635784149,0.4028027653694153
1772649756449184800,2.404184814453125,0.13595426082611084,-0.272707462310791,0.44701120257377625
1772649756459188700,2.414188720703125,0.05819002166390419,-0.18269269168376923,0.4267711937427521
1772649756469193000,2.42419287109375,-0.017443690448999405,-0.08575371652841568,0.37031224370002747
1772649756479197000,2.434197021484375,-0.079228974878788,0.026098955422639847,0.2707100808620453
1772649756489201200,2.444201171875,-0.11757846176624298,0.18269269168376923,0.1290300488471985
1772649756499205000,2.454205078125,-0.1633847951889038,0.3099916875362396,-0.014780531637370586
1772649756509209300,2.464209228515625,-0.1916142702102661,0.4303664565086365,-0.10905635356903076
1772649756519213300,2.47421337890625,-0.19747322797775269,0.6205160021781921,-0.14580795168876648
1772649756529217500,2.484217529296875,-0.19321216642856598,0.843156099319458,-0.11118687689304352
1772649756539221500,2.494221435546875,-0.1878858506679535,1.0631330013275146,0.08535423874855042
1772649756549225700,2.504225830078125,-0.1878858506679535,1.8604826927185059,0.9247819185256958
1772649756559230000,2.51422998046875,-0.4845617413520813,2.300969123840332,2.4172160625457764
1772649756569234400,2.524234375,-0.23369218409061432,-0.3946801424026489,2.5887234210968018
1772649756579239000,2.534239013671875,0.2557964026927948,-2.4527692794799805,1.0291776657104492
1772649756589243400,2.544243408203125,0.14873741567134857,-0.9970866441726685,-0.16125427186489105
1772649756599248000,2.554247802734375,0.018242638558149338,0.4814991056919098,-0.16285216808319092
1772649756609252000,2.564252197265625,-0.35939326882362366,0.42290961742401123,0.7399587035179138
1772649756619256600,2.574256591796875,-1.027846097946167,-0.06870950013399124,1.2049461603164673
1772649756629261000,2.584260986328125,-1.3889704942703247,-0.30839377641677856,0.7026744484901428
1772649756639265500,2.594265625,-1.2744545936584473,-0.3526022136211395,-0.05366265028715134
1772649756649270000,2.60427001953125,-0.9751155972480774,-0.3195790648460388,-0.3817638158798218
1772649756659274500,2.6142744140625,-0.6581997275352478,-0.03728422522544861,-0.3759048581123352
1772649756669279000,2.624279052734375,-0.34980592131614685,0.283360093832016,-0.2912164032459259
1772649756679283500,2.634283447265625,-0.10426266491413116,0.39840856194496155,-0.23369218409061432
1772649756689288000,2.644287841796875,0.023036323487758636,0.23702113330364227,-0.23369218409061432
1772649756699292200,2.654292236328125,0.06298370659351349,0.0756337121129036,-0.29387956857681274
1772649756709296600,2.664296630859375,0.007590002380311489,0.03249053657054901,-0.40093857049942017
1772649756719301000,2.674301025390625,-0.08082687109708786,-0.005858949385583401,-0.475506991147995
1772649756729305600,2.6843056640625,-0.11544793099164963,-0.03195790573954582,-0.5016059875488281
1772649756739310000,2.69431005859375,-0.1591237336397171,0.05006738752126694,-0.4930838644504547
1772649756749314600,2.704314453125,-0.20865848660469055,0.17363795638084412,-0.5101280808448792
1772649756759319000,2.714319091796875,-0.2438121885061264,0.22050954401493073,-0.5314333438873291
1772649756769323500,2.724323486328125,-0.3375553786754608,0.06444844603538513,-0.5937512516975403
1772649756779328000,2.734327880859375,-0.4312985837459564,-0.21571587026119232,-0.5921533703804016
1772649756789332500,2.74433251953125,-0.4083954095840454,-0.4186485707759857,-0.49148595333099365
1772649756799337000,2.7543369140625,-0.35087117552757263,-0.5379580855369568,-0.35886064171791077
1772649756809341400,2.764341552734375,-0.2619216740131378,-0.5640570521354675,-0.21824586391448975
1772649756819345700,2.774345703125,-0.14101426303386688,-0.4937496483325958,-0.10319740325212479
1772649756829350100,2.78435009765625,-0.025965798646211624,-0.3456780016422272,-0.01584579423069954
1772649756839354600,2.794354736328125,0.04966791346669197,-0.19547586143016815,0.06138581037521362
1772649756849359000,2.804359130859375,0.07363633811473846,-0.1422126740217209,0.06351634114980698
1772649756859363600,2.814363525390625,0.09813740104436874,-0.10120003670454025,-0.009986845776438713
1772649756869368000,2.8243681640625,0.1663142740726471,-0.026098955422639847,-0.12503530085086823
1772649756879372500,2.83437255859375,0.2467416673898697,0.030892642214894295,-0.24221429228782654
1772649756889377000,2.844376953125,0.30959221720695496,0.0010652635246515274,-0.3428817093372345
1772649756899381500,2.854381591796875,0.3649859130382538,-0.07882949709892273,-0.4414185583591461
1772649756909386000,2.864385986328125,0.42730382084846497,-0.14966952800750732,-0.5751091241836548
1772649756919390500,2.874390380859375,0.496013343334198,-0.15872426331043243,-0.7679218649864197
1772649756929394700,2.884394775390625,0.5354281067848206,-0.12463583052158356,-0.99322509765625
1772649756939399200,2.894399169921875,0.48855647444725037,-0.14700636267662048,-1.168993592262268
1772649756949403600,2.904403564453125,0.45713120698928833,-0.37550538778305054,-1.1349050998687744
1772649756959408000,2.914408203125,0.3921501338481903,-0.5352949500083923,-0.8483492136001587
1772649756969412600,2.92441259765625,0.2659164071083069,-0.5123917460441589,-0.4174501299858093
1772649756979417000,2.9344169921875,0.16311848163604736,-0.4793685972690582,0.040080539882183075
1772649756989421600,2.944421630859375,0.07736476510763168,-0.4655201733112335,0.44647857546806335
1772649756999426000,2.954426025390625,-0.009986845776438713,-0.4287685751914978,0.7346323728561401
1772649757009430500,2.964430419921875,-0.0930773988366127,-0.3440801203250885,0.8805734515190125
1772649757019435000,2.97443505859375,-0.18042901158332825,-0.22903165221214294,0.9008134603500366
1772649757029439500,2.984439453125,-0.29321378469467163,-0.11398319900035858,0.865659773349762
1772649757039443700,2.994443603515625,-0.3608580231666565,-0.015446321107447147,0.8273102641105652
1772649757049448200,3.0044482421875,-0.36831486225128174,0.10333056002855301,0.7383607625961304
1772649757059452700,3.01445263671875,-0.3838943541049957,0.08788423985242844,0.5870933532714844
1772649757069456600,3.02445654296875,-0.33968591690063477,0.09267792850732803,0.43795645236968994
1772649757079460600,3.034460693359375,-0.24700798094272614,0.19014954566955566,0.2946785092353821
1772649757089464800,3.04446484375,-0.15273216366767883,0.3446127474308014,0.16471637785434723
1772649757099468800,3.05446875,-0.006258423440158367,0.6450170874595642,0.09600687772035599
1772649757109472800,3.06447265625,0.15353110432624817,1.3901689052581787,0.35752907395362854
1772649757119477000,3.07447705078125,-0.20066902041435242,2.285522937774658,1.3077441453933716
1772649757129481000,3.08448095703125,-0.5538038611412048,0.9214529395103455,1.885649561882019
1772649757139485000,3.09448486328125,-0.0600542314350605,-0.5054675340652466,1.7695358991622925
1772649757149489200,3.1044892578125,0.5780386328697205,0.994423508644104,1.397758960723877
1772649757159493000,3.1144931640625,0.941293478012085,1.642103672027588,1.4286515712738037
1772649757169497000,3.1244970703125,0.559396505355835,-0.10120003670454025,1.7748621702194214
1772649757179501300,3.134501220703125,-0.4360922574996948,-1.4338446855545044,1.8622138500213623
1772649757189505300,3.14450537109375,-0.8851008415222168,-1.410408854484558,1.4291841983795166
1772649757199509200,3.15450927734375,-0.6922881603240967,-0.860732913017273,0.4640554189682007
1772649757209513500,3.164513427734375,-0.35513222217559814,-0.6237117648124695,-0.5255743861198425
1772649757219517400,3.174517333984375,-0.02809632569551468,-0.1928126960992813,-0.8994818925857544
1772649757229521400,3.184521484375,0.1237037256360054,0.3446127474308014,-0.695483922958374
1772649757239525600,3.194525634765625,0.2376869171857834,0.43995383381843567,-0.22836586833000183
1772649757249529600,3.204529541015625,0.41878172755241394,0.09321055561304092,0.07576686888933182
1772649757259533600,3.214533447265625,0.5109270215034485,-0.1747032105922699,0.0342215895652771
1772649757269537500,3.22453759765625,0.5125249028205872,-0.28016430139541626,-0.17883111536502838
1772649757279541800,3.234541748046875,0.3926827609539032,-0.20666112005710602,-0.3253048360347748
1772649757289545700,3.244545654296875,0.1897500604391098,-0.09374319016933441,-0.30772799253463745
1772649757299550000,3.254550048828125,-0.02383527159690857,-0.06764423102140427,-0.2672479748725891
1772649757309554000,3.264553955078125,-0.22730059921741486,-0.16405057907104492,-0.334892213344574
1772649757319558000,3.274557861328125,-0.4036017060279846,-0.27164220809936523,-0.5085301995277405
1772649757329561900,3.284561767578125,-0.5111933350563049,-0.32384011149406433,-0.6667218208312988
1772649757339566000,3.294566162109375,-0.47763752937316895,-0.23648850619792938,-0.7524755001068115
1772649757349570000,3.304570068359375,-0.4952143728733063,-0.29401272535324097,-0.8153260946273804
1772649757359574000,3.314573974609375,-0.4371575117111206,-0.19920428097248077,-0.7886945009231567
1772649757369578200,3.324578125,-0.30399957299232483,-0.029827378690242767,-0.708267092704773
1772649757379582200,3.334582275390625,-0.14900372922420502,0.09640634804964066,-0.5660544037818909
1772649757389586200,3.344586181640625,-0.013715268112719059,0.10333056002855301,-0.38229644298553467
1772649757399590400,3.35459033203125,0.09227845072746277,0.023968428373336792,-0.20919112861156464
1772649757409594400,3.364594482421875,0.17430374026298523,0.005326317623257637,-0.07656581699848175
1772649757419598300,3.374598388671875,0.18442374467849731,0.09480845183134079,-0.030759483575820923
1772649757429602600,3.3846025390625,0.13062794506549835,0.25300008058547974,-0.029161589220166206
1772649757439606500,3.3946064453125,0.051798440515995026,0.3765706419944763,-0.0739026591181755
1772649757449610500,3.404610595703125,-0.01531316339969635,0.3302316963672638,-0.22676797211170197
1772649757459614700,3.41461474609375,-0.004660528153181076,0.2210421860218048,-0.4600606858730316
1772649757469618700,3.42461865234375,0.044874224811792374,0.24607586860656738,-0.686961829662323
1772649757479622700,3.43462255859375,0.10825740545988083,0.43516016006469727,-0.8099997639656067
1772649757489627000,3.444626953125,0.19081532955169678,0.7243791818618774,-0.8440881967544556
1772649757499630800,3.454630859375,0.2568616569042206,1.0151960849761963,-0.8062713146209717
1772649757509634800,3.464634765625,0.27603641152381897,1.1483540534973145,-0.7008102536201477
1772649757519639000,3.47463916015625,0.2467416673898697,1.0514150857925415,-0.5277048945426941
1772649757529643000,3.48464306640625,0.21425113081932068,0.7605981826782227,-0.3045322000980377
1772649757539647000,3.49464697265625,0.2792322039604187,0.30413272976875305,-0.03448790684342384
1772649757549651200,3.504651123046875,0.4198469817638397,-0.32330748438835144,0.28668904304504395
1772649757559655200,3.5146552734375,0.39854171872138977,-0.6764423251152039,0.6254428625106812
1772649757569659100,3.5246591796875,0.24567639827728271,-0.7648591995239258,0.9269124269485474
1772649757579663000,3.5346630859375,0.0906805545091629,-0.7206507921218872,1.1325082778930664
1772649757589667300,3.544667236328125,-0.028628956526517868,-0.5885580778121948,1.2102725505828857
1772649757599671300,3.55467138671875,-0.1170458272099495,-0.4282359480857849,1.1447588205337524
1772649757609675300,3.56467529296875,-0.18042901158332825,-0.31318747997283936,0.9647293090820312
1772649757619679200,3.57467919921875,-0.22410480678081512,-0.1938779652118683,0.6946849822998047
1772649757629683500,3.584683349609375,-0.2720416784286499,-0.11877688020467758,0.38149750232696533
1772649757639687400,3.5946875,-0.3514038026332855,-0.09161266684532166,0.10665950924158096
1772649757649691400,3.60469140625,-0.3279680013656616,-0.042610540986061096,-0.10586056113243103
1772649757659695400,3.6146953125,-0.2443448156118393,0.046871595084667206,-0.3093259036540985
1772649757669699600,3.624699462890625,-0.20865848660469055,0.14327794313430786,-0.5053343772888184
1772649757679703600,3.63470361328125,-0.20759323239326477,0.3350253701210022,-0.6315681338310242
1772649757689707500,3.64470751953125,-0.24754060804843903,0.5001412034034729,-0.6299701929092407
1772649757699711500,3.65471142578125,-0.3561974763870239,0.7787076234817505,-0.2970753610134125
1772649757709715700,3.6647158203125,-0.8334355354309082,1.358743667602539,0.8065376281738281
1772649757719719700,3.6747197265625,-1.3602083921432495,0.017576847225427628,1.8579527139663696
1772649757729723600,3.6847236328125,-0.7444860339164734,-2.474607229232788,1.5852452516555786
1772649757739728000,3.694727783203125,0.15086795389652252,-2.1209397315979004,0.4454133212566376
1772649757749731800,3.70473193359375,0.37617117166519165,-0.06072001904249191,-0.04727106913924217
1772649757759735800,3.71473583984375,0.4107922613620758,0.13422320783138275,0.4384891092777252
1772649757769739800,3.72473974609375,0.053529493510723114,-0.17310532927513123,0.7239797115325928
1772649757779744000,3.734743896484375,-0.29800745844841003,-0.051132649183273315,0.41878172755241394
1772649757789748000,3.744748046875,-0.3933485448360443,0.004793685860931873,-0.14580795168876648
1772649757799752000,3.754751953125,-0.4231759309768677,-0.06764423102140427,-0.5271722674369812
1772649757809756000,3.764755859375,-0.35712960362434387,0.03249053657054901,-0.5468796491622925
1772649757819760000,3.774760009765625,-0.12703268229961395,0.2024000734090805,-0.45473435521125793
1772649757829764000,3.78476416015625,0.17603479325771332,0.11238530278205872,-0.4749743640422821
1772649757839768000,3.79476806640625,0.3928159177303314,-0.18216006457805634,-0.6273070573806763
1772649757849772000,3.80477197265625,0.4876243770122528,-0.4522043764591217,-0.6720481514930725
1772649757859776300,3.8147763671875,0.3798995912075043,-0.5528717637062073,-0.5213133096694946
1772649757869780200,3.8247802734375,0.14447636902332306,-0.5842970609664917,-0.3343595862388611
1772649757879784200,3.8347841796875,-0.10213214159011841,-0.6215812563896179,-0.2294311374425888
1772649757889788200,3.8447880859375,-0.2826943099498749,-0.5779054760932922,-0.21451744437217712
1772649757899792400,3.85479248046875,-0.4744417369365692,-0.4612590968608856,-0.2544648349285126
1772649757909796400,3.86479638671875,-0.6725807785987854,-0.32703590393066406,-0.3487406373023987
1772649757919800300,3.87480029296875,-0.9229176640510559,-0.38935381174087524,-0.5479449033737183
1772649757929804500,3.884804443359375,-1.040096640586853,-0.4149201512336731,-0.699212372303009
1772649757939808500,3.89480859375,-0.9548755884170532,-0.28069692850112915,-0.7311702370643616
1772649757949812500,3.9048125,-0.7593997120857239,-0.009054739959537983,-0.6251765489578247
1772649757959816400,3.91481640625,-0.5484775304794312,0.09214529395103455,-0.324239581823349
1772649757969820700,3.924820556640625,-0.3812311887741089,-0.22530323266983032,0.3921501338481903
1772649757979824600,3.93482470703125,-0.16658058762550354,-0.1422126740217209,0.9327713847160339
1772649757989828600,3.94482861328125,0.09227845072746277,0.2929474711418152,0.9088029265403748
1772649757999832600,3.95483251953125,0.2941458821296692,0.6988128423690796,0.41771647334098816
1772649758009836800,3.9648369140625,0.37084487080574036,0.6956170797348022,-0.1969406008720398
1772649758019840800,3.9748408203125,0.38096487522125244,0.4282359480857849,-0.6390249729156494
1772649758029844700,3.9848447265625,0.4070638120174408,0.21145480871200562,-0.8653934597969055
1772649758039848700,3.9948486328125,0.4810996353626251,0.09161266684532166,-0.9900292754173279
1772649758049853000,4.00485302734375,0.5870933532714844,-0.08415582031011581,-1.1157304048538208
1772649758059857000,4.01485693359375,0.693087100982666,-0.31265485286712646,-1.2419641017913818
1772649758069861600,4.024861572265625,0.7676555514335632,-0.3685811758041382,-1.2984230518341064
1772649758079866400,4.034866455078125,0.8203860521316528,-0.20506322383880615,-1.2526167631149292
1772649758089870800,4.044870849609375,0.8294408321380615,0.06391581147909164,-1.127448320388794
1772649758099875600,4.05487548828125,0.8709861040115356,0.17044216394424438,-0.9399619102478027
1772649758109880000,4.064880126953125,0.9801756143569946,0.07882949709892273,-0.6560691595077515
1772649758119884800,4.074884765625,0.9759145379066467,0.09374319016933441,-0.32210904359817505
1772649758129889300,4.08488916015625,0.8736492395401001,0.12570109963417053,-0.012650004588067532
1772649758139894000,4.09489404296875,0.7388933897018433,0.0846884474158287,0.2611227333545685
1772649758149898500,4.1048984375,0.5908218026161194,0.0005326317623257637,0.4773712158203125
1772649758159903200,4.1149033203125,0.47044700384140015,-0.14860425889492035,0.6185186505317688
1772649758169907700,4.12490771484375,0.41771647334098816,-0.3339601159095764,0.6819018125534058
1772649758179912400,4.134912353515625,0.3783017098903656,-0.45433488488197327,0.6866955161094666
1772649758189917000,4.1449169921875,0.3298322260379791,-0.5305012464523315,0.6115944385528564
1772649758199921700,4.154921630859375,0.26804694533348083,-0.52091383934021,0.4832301735877991
1772649758209926100,4.164926025390625,0.23875218629837036,-0.39894118905067444,0.33888694643974304
1772649758219931000,4.174930908203125,0.22650165855884552,-0.2577937841415405,0.20466375350952148
1772649758229935400,4.184935302734375,0.1327584683895111,-0.13209268450737,0.07843002676963806
1772649758239940000,4.194940185546875,0.028895273804664612,0.05805686116218567,-0.046205803751945496
1772649758249944600,4.204944580078125,-0.15592794120311737,0.3584611713886261,-0.11757846176624298
1772649758259949300,4.21494921875,-0.3854922354221344,0.7643265724182129,0.02143842913210392
1772649758269953800,4.224953857421875,-0.6853639483451843,1.4322468042373657,0.6536723375320435
1772649758279958500,4.23495849609375,-1.139166235923767,2.212552309036255,2.0837886333465576
1772649758289963000,4.244962890625,-1.1450251340866089,0.6130591630935669,2.592452049255371
1772649758299967700,4.2549677734375,-0.15060162544250488,-1.7939038276672363,0.9040092825889587
1772649758309972200,4.26497216796875,0.5956154465675354,-0.78509920835495,-0.7892271280288696
1772649758319977000,4.27497705078125,0.6243776082992554,0.511859118938446,-0.5367596745491028
1772649758329981400,4.2849814453125,-0.013715268112719059,0.4324969947338104,0.8890955448150635
1772649758339986200,4.294986083984375,-0.7093323469161987,0.20666112005710602,1.5761905908584595
1772649758349990700,4.30499072265625,-1.027313470840454,-0.0612526535987854,1.007872462272644
1772649758359995400,4.314995361328125,-0.9378314018249512,-0.20186743140220642,0.22437113523483276
1772649758370000000,4.324999755859375,-0.7444860339164734,-0.18162743747234344,-0.18415743112564087
1772649758380004600,4.335004638671875,-0.5793702006340027,-0.038882117718458176,-0.3226417005062103
1772649758390009000,4.345009033203125,-0.32210904359817505,0.20612849295139313,-0.3524690568447113
1772649758400013800,4.355013916015625,-0.04460791125893593,0.35100433230400085,-0.2992058992385864
1772649758410018300,4.365018310546875,0.1428784728050232,0.2593916654586792,-0.19800585508346558
1772649758420023000,4.37502294921875,0.1998700648546219,-0.002130527049303055,-0.15752583742141724
1772649758430027500,4.385027587890625,0.15299847722053528,-0.21305270493030548,-0.1495363712310791
1772649758440032300,4.3950322265625,0.0762995034456253,-0.2780337929725647,-0.12823109328746796
1772649758450037000,4.405037109375,0.004394211806356907,-0.20985691249370575,-0.05632580816745758
1772649758460041500,4.41504150390625,-0.10000161081552505,-0.006924212910234928,0.019840532913804054
1772649758470046200,4.425046142578125,-0.27523747086524963,0.24660851061344147,0.014514215290546417
1772649758480050700,4.43505078125,-0.5079975724220276,0.30306747555732727,-0.08775108307600021
1772649758490055400,4.445055419921875,-0.7609976530075073,-0.10120003670454025,-0.2997385263442993
1772649758500060000,4.455059814453125,-0.8227829337120056,-0.4623243808746338,-0.4414185583591461
1772649758510064600,4.465064697265625,-0.7237133979797363,-0.5933517813682556,-0.3673827648162842
1772649758520069000,4.475069091796875,-0.5314333438873291,-0.6407560110092163,-0.20706059038639069
1772649758530073900,4.485073974609375,-0.3487406373023987,-0.6828339099884033,-0.12237215042114258
1772649758540078300,4.495078369140625,-0.2203763872385025,-0.62477707862854,-0.1261005699634552
1772649758550083000,4.5050830078125,-0.1868205964565277,-0.47830331325531006,-0.19054901599884033
1772649758560087600,4.515087646484375,-0.23209428787231445,-0.36059170961380005,-0.29334694147109985
1772649758570092000,4.525092041015625,-0.2533995509147644,-0.2689790427684784,-0.4131890833377838
1772649758580096500,4.535096435546875,-0.23315955698490143,-0.11877688020467758,-0.5554017424583435
1772649758590101000,4.54510107421875,-0.20812585949897766,-0.022370534017682076,-0.7050712704658508
1772649758600105500,4.55510546875,-0.20812585949897766,-0.026098955422639847,-0.8142607808113098
1772649758610110000,4.56510986328125,-0.19960375130176544,0.02503369376063347,-0.8664587140083313
1772649758620114400,4.575114501953125,-0.15060162544250488,0.4149201512336731,-0.8728502988815308
1772649758630118700,4.58511865234375,-0.10532793402671814,0.9768466353416443,-0.8179892301559448
1772649758640123100,4.595123046875,-0.09574055671691895,1.3033499717712402,-0.7056038975715637
1772649758650127600,4.605127685546875,-0.111719511449337,1.1643329858779907,-0.561793327331543
1772649758660132000,4.615132080078125,-0.1266331970691681,0.7099981307983398,-0.36844801902770996
1772649758670136600,4.625136474609375,-0.026498429477214813,0.3078611493110657,-0.09574055671691895
1772649758680141000,4.63514111328125,0.11198582500219345,0.1459411084651947,0.21052271127700806
1772649758690145500,4.6451455078125,0.20093533396720886,0.04048001393675804,0.481632262468338
1772649758700150000,4.65514990234375,0.14820478856563568,-0.06444844603538513,0.7021418213844299
1772649758710154500,4.665154541015625,0.0390152782201767,-0.10066740214824677,0.8629966378211975
1772649758720159000,4.675158935546875,-0.03555316850543022,-0.07243791967630386,0.9466198086738586
1772649758730163500,4.68516357421875,-0.054727911949157715,-0.011717898771166801,0.9242492914199829
1772649758740168000,4.69516796875,-0.05579317733645439,0.0564589649438858,0.7942871451377869
1772649758750172200,4.705172119140625,-0.03235737979412079,0.1560611128807068,0.6078659892082214
1772649758760176600,4.7151767578125,-0.04886896535754204,0.21944428980350494,0.40440067648887634
1772649758770181000,4.72518115234375,-0.07496792078018188,0.19547586143016815,0.20200060307979584
1772649758780185600,4.735185546875,-0.07496792078018188,0.20453059673309326,0.00013315794058144093
1772649758790190000,4.745190185546875,-0.06271739304065704,0.30892643332481384,-0.1687111109495163
1772649758800194600,4.755194580078125,-0.03448790684342384,0.40320223569869995,-0.2816290557384491
1772649758810199000,4.765198974609375,-0.03715106472373009,0.38882118463516235,-0.39241644740104675
1772649758820203500,4.77520361328125,-0.03502053767442703,0.3685811758041382,-0.5452817678451538
1772649758830208000,4.7852080078125,-0.08029423654079437,0.3499390780925751,-0.691755473613739
1772649758840212500,4.79521240234375,-0.27417218685150146,0.7483476400375366,-0.4893554449081421
1772649758850217000,4.805217041015625,-1.157275676727295,1.9078869819641113,0.7356976270675659
1772649758860221400,4.815221435546875,-2.019073963165283,1.3033499717712402,2.1993696689605713
1772649758870226000,4.825225830078125,-1.4134715795516968,-0.8921582102775574,2.067809581756592
1772649758880230400,4.83523046875,-0.24008376896381378,-1.3060131072998047,0.45979437232017517
1772649758890234600,4.845234619140625,0.4299669861793518,0.3344927430152893,-0.3492732644081116
1772649758900239000,4.855239013671875,0.14074794948101044,0.658332884311676,0.44221752882003784
1772649758910243600,4.86524365234375,-0.35939326882362366,0.6636591553688049,0.9333040118217468
1772649758920248000,4.875248046875,-0.6368944048881531,0.5624591112136841,0.5588638782501221
1772649758930252500,4.88525244140625,-0.5948165059089661,0.1129179298877716,-0.1026647686958313
1772649758940257000,4.895257080078125,-0.4238417148590088,-0.21571587026119232,-0.3988080322742462
1772649758950261500,4.905261474609375,-0.24114902317523956,-0.06551370769739151,-0.3615238070487976
1772649758960266000,4.915265869140625,-0.0414121188223362,0.314785361289978,-0.19960375130176544
1772649758970270500,4.9252705078125,0.11038793623447418,0.39840856194496155,-0.1735047996044159
1772649758980275000,4.93527490234375,0.14820478856563568,0.11611372232437134,-0.3370227515697479
1772649758990279400,4.945279541015625,0.15992268919944763,-0.2599242925643921,-0.49255120754241943
1772649759000284000,4.955283935546875,0.1615205854177475,-0.49641281366348267,-0.5170522928237915
1772649759010288400,4.965288330078125,0.14873741567134857,-0.5352949500083923,-0.4286354184150696
1772649759020292900,4.97529296875,0.15406373143196106,-0.43622541427612305,-0.2805637717247009
1772649759030297300,4.98529736328125,0.15939006209373474,-0.2844253480434418,-0.1633847951889038
1772649759040301600,4.995301513671875,0.16737952828407288,-0.16245268285274506,-0.13728584349155426
1772649759050306000,5.00530615234375,0.08801739662885666,-0.12623372673988342,-0.22623534500598907
1772649759060310300,5.015310302734375,-0.19800585508346558,-0.37976643443107605,-0.42011329531669617
1772649759070314000,5.02531396484375,-0.5010733008384705,-0.7078676223754883,-0.5884249210357666
1772649759080318000,5.03531787109375,-0.6358291506767273,-0.8724508285522461,-0.670982837677002
1772649759090321700,5.04532177734375,-0.6667218208312988,-0.9246487617492676,-0.6731134057044983
1772649759100325600,5.05532568359375,-0.5996102094650269,-0.8282423615455627,-0.6150565147399902
1772649759110329300,5.065329345703125,-0.4664522707462311,-0.6476802229881287,-0.5170522928237915
1772649759120333000,5.0753330078125,-0.31625011563301086,-0.4996086061000824,-0.43875542283058167
1772649759130336800,5.085336669921875,-0.16711321473121643,-0.33609065413475037,-0.37910065054893494
1772649759140340700,5.0953408203125,-0.01584579423069954,-0.06498107314109802,-0.2624543011188507
1772649759150344400,5.105344482421875,0.10892319679260254,0.04846949130296707,-0.18895111978054047
1772649759160348200,5.11534814453125,0.20373165607452393,-0.04474106803536415,-0.22250692546367645
1772649759170352000,5.12535205078125,0.26764747500419617,-0.1976063847541809,-0.3428817093372345
1772649759180355800,5.13535595703125,0.34381380677223206,-0.37870118021965027,-0.5090628266334534
1772649759190359600,5.145359619140625,0.455133855342865,-0.5486106872558594,-0.6938860416412354
1772649759200363300,5.15536328125,0.5888243913650513,-0.730238139629364,-0.8813723921775818
1772649759210367200,5.1653671875,0.7321023344993591,-0.8665918707847595,-1.027313470840454
1772649759220371000,5.175370849609375,0.8508792519569397,-0.8341013193130493,-1.0992188453674316
1772649759230374700,5.185374755859375,0.9371655583381653,-0.6082654595375061,-1.0629998445510864
1772649759240378600,5.195378662109375,0.9265129566192627,-0.316915899515152,-0.9271787405014038
1772649759250382300,5.20538232421875,0.7763108015060425,-0.19068217277526855,-0.6944186687469482
1772649759260386000,5.215385986328125,0.49867647886276245,-0.28921905159950256,-0.37803539633750916
1772649759270390000,5.22539013671875,0.26218798756599426,-0.35579800605773926,-0.0414121188223362
1772649759280393700,5.235393798828125,0.1711079478263855,-0.3099916875362396,0.2568616569042206
1772649759290397400,5.2453974609375,0.17164058983325958,-0.25672850012779236,0.4858933389186859
1772649759300401200,5.255401123046875,0.1945437490940094,-0.24394534528255463,0.6307691931724548
1772649759310405000,5.265405029296875,0.1940111219882965,-0.2700442969799042,0.6824344396591187
1772649759320408800,5.275408935546875,0.16684690117835999,-0.29987168312072754,0.6696512699127197
1772649759330412500,5.28541259765625,0.13382373750209808,-0.3073285222053528,0.6135917901992798
1772649759340416500,5.29541650390625,0.07257107645273209,-0.25300008058547974,0.5017391443252563
1772649759350420200,5.305420166015625,0.012916320003569126,-0.19973690807819366,0.3243727385997772
1772649759360424000,5.315423828125,-0.010519477538764477,-0.11025477200746536,0.12942951917648315
1772649759370427600,5.325427734375,-0.038216330111026764,0.017576847225427628,0.009054739959537983
1772649759380431600,5.335431640625,-0.12077425420284271,0.14061477780342102,-0.009587371721863747
1772649759390435300,5.345435302734375,-0.26937851309776306,0.4431496262550354,0.21092218160629272
1772649759400439000,5.35543896484375,-0.5303680896759033,1.38857102394104,1.0104024410247803
1772649759410443000,5.365443115234375,-1.6084147691726685,2.024533271789551,2.4367902278900146
1772649759420446700,5.37544677734375,-2.560760259628296,-0.11984214931726456,2.8634283542633057
1772649759430450400,5.385450439453125,-1.5008231401443481,-2.396310329437256,0.9768466353416443
1772649759440454100,5.3954541015625,-0.4323638379573822,-0.7025412917137146,-0.9012129306793213
1772649759450458000,5.4054580078125,-0.16018900275230408,1.6250594854354858,-0.6849644184112549
1772649759460461800,5.4154619140625,-0.07763107866048813,1.57765531539917,0.5620596408843994
1772649759470465500,5.425465576171875,-0.2736395597457886,0.5459475517272949,1.06273353099823
1772649759480469500,5.435469482421875,-0.6571344137191772,-0.022370534017682076,0.5748428106307983
1772649759490473200,5.44547314453125,-0.7002776265144348,0.04048001393675804,-0.0744352862238884
1772649759500477000,5.455476806640625,-0.5410206913948059,0.06285054981708527,-0.41638487577438354
1772649759510481000,5.46548095703125,-0.3950796127319336,0.01597895286977291,-0.4787027835845947
1772649759520484600,5.475484619140625,-0.16977638006210327,0.23489060997962952,-0.5010733008384705
1772649759530488300,5.48548828125,0.006524738855659962,0.4484759569168091,-0.4712459444999695
1772649759540492000,5.495491943359375,0.07310371100902557,0.32330748438835144,-0.3817638158798218
1772649759550496000,5.50549609375,0.036352116614580154,0.07882949709892273,-0.36418697237968445
1772649759560499700,5.515499755859375,0.02623211406171322,-0.13901689648628235,-0.44887542724609375
1772649759570503700,5.525503662109375,0.04593949019908905,-0.24820640683174133,-0.540488064289093
1772649759580507600,5.535507568359375,0.08961529284715652,-0.28975167870521545,-0.49681228399276733
1772649759590511600,5.54551171875,0.11305109411478043,-0.26098957657814026,-0.3370227515697479
1772649759600515600,5.555515625,0.12476898729801178,-0.14913690090179443,-0.19800585508346558
1772649759610519600,5.56551953125,0.09494160860776901,0.006391581147909164,-0.16764584183692932
1772649759620523500,5.5755234375,-0.07496792078018188,-0.018109479919075966,-0.2683132588863373
1772649759630527500,5.585527587890625,-0.3423490524291992,-0.22317270934581757,-0.4217112064361572
1772649759640531500,5.595531494140625,-0.4691154360771179,-0.4293012022972107,-0.5010733008384705
1772649759650535400,5.605535400390625,-0.40253645181655884,-0.46338963508605957,-0.47763752937316895
1772649759660539400,5.615539306640625,-0.2107890248298645,-0.3153179883956909,-0.3583280146121979
1772649759670543400,5.62554345703125,0.005459475331008434,-0.13795162737369537,-0.2059953361749649
1772649759680547300,5.63554736328125,0.18442374467849731,-0.0804273933172226,-0.12183951586484909
1772649759690551300,5.64555126953125,0.3079943060874939,-0.054861072450876236,-0.07550055533647537
1772649759700555300,5.65555517578125,0.383095383644104,0.0282294824719429,-0.04087948799133301
1772649759710559200,5.665559326171875,0.4342280328273773,0.13848425447940826,-0.05685843899846077
1772649759720563200,5.675563232421875,0.4784364700317383,0.2221074402332306,-0.12343741208314896
1772649759730567200,5.685567138671875,0.5375586152076721,0.10759161412715912,-0.2198437601327896
1772649759740571100,5.695571044921875,0.6078659892082214,-0.26738113164901733,-0.3482080101966858
1772649759750575000,5.7055751953125,0.6803039312362671,-0.6593981385231018,-0.47763752937316895
1772649759760579000,5.7155791015625,0.768720805644989,-0.7616634368896484,-0.5857617855072021
1772649759770583000,5.7255830078125,0.8640618920326233,-0.6876276135444641,-0.6438186168670654
1772649759780586800,5.735586669921875,0.9056071639060974,-0.5139896273612976,-0.6576670408248901
1772649759790590700,5.7455908203125,0.8161250352859497,-0.27537062764167786,-0.6129260063171387
1772649759800594700,5.7555947265625,0.6334323287010193,0.05006738752126694,-0.4978775382041931
1772649759810598700,5.7655986328125,0.37617117166519165,0.17204006016254425,-0.2629869282245636
1772649759820602600,5.7756025390625,0.19241322576999664,0.05379580706357956,0.09494160860776901
1772649759830606600,5.785606689453125,0.12423636019229889,0.042610540986061096,0.48855647444725037
1772649759840610600,5.795610595703125,0.12157320231199265,0.12410320341587067,0.7937544584274292
1772649759850614500,5.805614501953125,0.15566162765026093,0.12516845762729645,0.9524787664413452
1772649759860618500,5.815618408203125,0.156194269657135,0.043143171817064285,0.9801756143569946
1772649759870622500,5.82562255859375,0.10133319348096848,-0.058589495718479156,0.9514135122299194
1772649759880626400,5.83562646484375,0.04114580526947975,-0.10546109080314636,0.8869650363922119
1772649759890630400,5.84563037109375,-0.04354264587163925,-0.09587371349334717,0.7948197722434998
1772649759900634400,5.85563427734375,-0.14634057879447937,-0.00426105409860611,0.6834996938705444
1772649759910638300,5.865638427734375,-0.2480732500553131,0.09853687882423401,0.567918598651886
1772649759920642300,5.875642333984375,-0.3103911578655243,0.13901689648628235,0.43742382526397705
1772649759930646300,5.885646240234375,-0.3476753830909729,0.25193482637405396,0.2930806279182434
1772649759940650200,5.895650146484375,-0.3721764385700226,0.5656549334526062,0.17643427848815918
1772649759950654200,5.905654296875,-0.47231122851371765,1.2112046480178833,0.26804694533348083
1772649759960658200,5.915658203125,-0.8451534509658813,2.3883209228515625,0.8592681884765625
1772649759970662100,5.925662109375,-2.0531623363494873,2.8506453037261963,1.982055902481079
1772649759980666000,5.935666015625,-2.8893940448760986,0.4069306552410126,2.0390474796295166
1772649759990670000,5.945670166015625,-1.7314527034759521,-1.4381057024002075,0.3319627344608307
1772649760000674000,5.955674072265625,-0.13302478194236755,-0.1928126960992813,-0.9942903518676758
1772649760010678000,5.965677978515625,0.2802974581718445,0.6982802152633667,-0.15539531409740448
1772649760020682000,5.975681884765625,-0.17723321914672852,0.25193482637405396,1.2081420421600342
1772649760030686000,5.98568603515625,-0.691755473613739,0.04633896425366402,1.427586317062378
1772649760040690000,5.99568994140625,-0.9394292831420898,0.16884426772594452,0.7064028978347778
1772649760050694000,6.00569384765625,-0.8068039417266846,0.11930951476097107,-0.09733845293521881
1772649760060698000,6.015697998046875,-0.4190480411052704,0.1411474198102951,-0.565521776676178
1772649760070702800,6.025702880859375,-0.11757846176624298,0.18961690366268158,-0.7173218131065369
1772649760080707800,6.035707763671875,0.05339633300900459,0.4431496262550354,-0.5522059798240662
1772649760090712800,6.045712890625,0.10399635136127472,0.6045370697975159,-0.313586950302124
1772649760100717800,6.0557177734375,0.1002679318189621,0.48789069056510925,-0.27470484375953674
1772649760110722800,6.065722900390625,0.005459475331008434,0.2215748131275177,-0.39348170161247253
1772649760120727600,6.0757275390625,-0.1399489939212799,0.021837901324033737,-0.535694420337677
1772649760130732500,6.085732666015625,-0.2901511490345001,-0.13422320783138275,-0.5522059798240662
1772649760140737500,6.095737548828125,-0.3956122398376465,-0.19654111564159393,-0.39774277806282043
1772649760150742300,6.1057421875,-0.42650488018989563,-0.035153694450855255,-0.14434321224689484
1772649760160747300,6.115747314453125,-0.44461435079574585,0.10173266381025314,-0.007456844672560692
1772649760170752300,6.125752197265625,-0.5309007167816162,0.046871595084667206,-0.12037477642297745
1772649760180757200,6.13575732421875,-0.47284385561943054,-0.012783162295818329,-0.3561974763870239
1772649760190762000,6.145761962890625,-0.38815540075302124,-0.17683374881744385,-0.649677574634552
1772649760200767000,6.15576708984375,-0.3055974841117859,-0.3669832944869995,-0.9127976894378662
1772649760210772000,6.16577197265625,-0.20386481285095215,-0.5219791531562805,-1.0709893703460693
1772649760220776700,6.175776611328125,-0.09254477173089981,-0.6354296803474426,-1.0917619466781616
1772649760230781700,6.18578173828125,0.04647212103009224,-0.650875985622406,-1.0587388277053833
1772649760240786700,6.19578662109375,0.1945437490940094,-0.5203812122344971,-1.006008267402649
1772649760250791700,6.205791748046875,0.3367564380168915,-0.24873903393745422,-0.9266461133956909
1772649760260796700,6.215796630859375,0.45659857988357544,-0.00852210819721222,-0.8563387393951416
1772649760270801400,6.225801513671875,0.5274385809898376,0.17736637592315674,-0.808401882648468
1772649760280806400,6.235806396484375,0.5817670226097107,0.27483800053596497,-0.7647260427474976
1772649760290811400,6.245811279296875,0.6728470921516418,0.3158506453037262,-0.7077344655990601
1772649760300816100,6.255816162109375,0.8017439842224121,0.26578325033187866,-0.6779070496559143
1772649760310821000,6.265821044921875,0.9466198086738586,0.05273054540157318,-0.6986796855926514
1772649760320826000,6.275826171875,1.1069419384002686,-0.371244341135025,-0.754073441028595
1772649760330831000,6.2858310546875,1.2843083143234253,-0.8261118531227112,-0.8217176795005798
1772649760340835800,6.2958359375,1.4403694868087769,-0.897484540939331,-0.8653934597969055
1772649760350840800,6.3058408203125,1.5026873350143433,-0.7206507921218872,-0.8568713665008545
1772649760360845800,6.315845703125,1.3418325185775757,-0.5198485851287842,-0.783900797367096
1772649760370850600,6.3258505859375,0.9892303347587585,-0.4703138470649719,-0.6257091760635376
1772649760380855600,6.33585546875,0.668053388595581,-0.5241096615791321,-0.32743537425994873
1772649760390860500,6.345860595703125,0.5066659450531006,-0.4671180546283722,0.09600687772035599
1772649760400865500,6.355865478515625,0.4550006687641144,-0.29401272535324097,0.5370259881019592
1772649760410870300,6.365870361328125,0.4107922613620758,-0.1459411084651947,0.8518113493919373
1772649760420875300,6.375875244140625,0.30586379766464233,-0.10066740214824677,0.9396955966949463
1772649760430880300,6.38588037109375,0.15939006209373474,-0.1134505644440651,0.8837692737579346
1772649760440885200,6.39588525390625,0.06191844120621681,-0.10759161412715912,0.8113313317298889
1772649760450890000,6.405889892578125,0.005992107093334198,-0.1459411084651947,0.7415565848350525
1772649760460895000,6.41589501953125,-0.05206475406885147,-0.23755376040935516,0.6424870491027832
1772649760470900000,6.42589990234375,-0.12024161964654922,-0.26205483078956604,0.5103943943977356
1772649760480905000,6.435905029296875,-0.17510269582271576,-0.22530323266983032,0.3841606676578522
1772649760490909700,6.44590966796875,-0.2107890248298645,-0.17310532927513123,0.27656903862953186
1772649760500914700,6.455914794921875,-0.2012016475200653,0.051665280014276505,0.1897500604391098
1772649760510919700,6.465919677734375,-0.16711321473121643,0.4559327960014343,0.17323848605155945
1772649760520924400,6.47592431640625,-0.19108164310455322,1.0407624244689941,0.3037332594394684
1772649760530935600,6.485935546875,-0.380698561668396,1.7193353176116943,0.719186007976532
1772649760540940300,6.495940185546875,-1.1130672693252563,2.2791314125061035,1.6140073537826538
1772649760550945300,6.5059453125,-2.312553882598877,1.1941604614257812,1.9239990711212158
1772649760560950000,6.515949951171875,-1.9173412322998047,-1.4721941947937012,0.6020070314407349
1772649760570954800,6.525954833984375,-0.26991114020347595,-1.698562741279602,-0.7434207797050476
1772649760580959200,6.535959228515625,0.03795001283288002,0.009587371721863747,-0.5090628266334534
1772649760590963700,6.545963623046875,-0.31784799695014954,0.8628634810447693,0.5322322845458984
1772649760600968400,6.555968505859375,-0.456332266330719,0.6194507479667664,1.1942936182022095
1772649760610973000,6.565972900390625,-0.5191828012466431,0.07616633921861649,0.9679250717163086
1772649760620977700,6.575977783203125,-0.4978775382041931,-0.39947381615638733,0.30959221720695496
1772649760630982100,6.585982177734375,-0.3519364297389984,-0.5257075428962708,-0.2065279632806778
1772649760640987000,6.59598681640625,-0.2198437601327896,-0.38935381174087524,-0.44940805435180664
1772649760650991400,6.605991455078125,-0.1074584573507309,0.2029327005147934,-0.48615965247154236
1772649760660996000,6.61599609375,0.00013315794058144093,0.545414924621582,-0.4243743419647217
1772649760671000600,6.62600048828125,0.02197105996310711,0.42663803696632385,-0.39721015095710754
1772649760681005300,6.63600537109375,0.02090579643845558,0.0798947662115097,-0.4834964871406555
1772649760691009800,6.646009765625,-0.02330263890326023,-0.14807163178920746,-0.6225133538246155
1772649760701014500,6.6560146484375,-0.12716583907604218,-0.207726389169693,-0.6400902271270752
1772649760711019000,6.66601904296875,-0.216115340590477,-0.14966952800750732,-0.44035330414772034
1772649760721023700,6.676023681640625,-0.42543962597846985,-0.07776423543691635,-0.24008376896381378
1772649760731028200,6.6860283203125,-0.5564670562744141,0.05273054540157318,-0.10799109190702438
1772649760741033000,6.696032958984375,-0.5974797010421753,0.08575371652841568,-0.08508792519569397
1772649760751037400,6.706037353515625,-0.7221155166625977,-0.1129179298877716,-0.16231952607631683
1772649760761042000,6.7160419921875,-0.9048082232475281,-0.43089908361434937,-0.2805637717247009
1772649760771046700,6.726046630859375,-0.9612671732902527,-0.6514086723327637,-0.36471959948539734
1772649760781051100,6.736051025390625,-0.8472839593887329,-0.6444844603538513,-0.4126564562320709
1772649760791056000,6.746055908203125,-0.6587323546409607,-0.5299686193466187,-0.45473435521125793
1772649760801060400,6.756060302734375,-0.43023329973220825,-0.3920169770717621,-0.48243123292922974
1772649760811065000,6.766065185546875,-0.16977638006210327,-0.13582110404968262,-0.46432173252105713
1772649760821069600,6.776069580078125,0.0954742431640625,0.2311621904373169,-0.3817638158798218
1772649760831074300,6.78607421875,0.32876694202423096,0.5613938570022583,-0.20812585949897766
1772649760841078800,6.796078857421875,0.4997417628765106,0.7275750041007996,-0.0073236869648098946
1772649760851083500,6.80608349609375,0.6147902011871338,0.7275750041007996,0.1567268967628479
1772649760861088000,6.816087890625,0.7207839488983154,0.5720465183258057,0.2371542900800705
1772649760871092500,6.826092529296875,0.8352997899055481,0.37444013357162476,0.1806953251361847
1772649760881097200,6.83609716796875,0.9056071639060974,0.017576847225427628,-0.0003994738217443228
1772649760891101700,6.846101806640625,0.9439566135406494,-0.4793685972690582,-0.23688797652721405
1772649760901106400,6.8561064453125,0.9599356055259705,-0.7057371139526367,-0.47710490226745605
1772649760911111000,6.86611083984375,0.9354345202445984,-0.6290380954742432,-0.641155481338501
1772649760921115600,6.87611572265625,0.8848345279693604,-0.5150549411773682,-0.6764423251152039
1772649760931120000,6.8861201171875,0.752741813659668,-0.37017908692359924,-0.5486106872558594
1772649760941124900,6.896124755859375,0.47896912693977356,-0.2311621904373169,-0.2684464156627655
1772649760951129300,6.90612939453125,0.10879004001617432,-0.2545979917049408,0.15659373998641968
1772649760961134000,6.916134033203125,-0.10000161081552505,-0.449008584022522,0.6327665448188782
1772649760971138600,6.926138671875,-0.06165212765336037,-0.5171854496002197,0.9981518983840942
1772649760981143300,6.936143310546875,0.0624510757625103,-0.4298338294029236,1.1745861768722534
1772649760991147800,6.946147705078125,0.1290300488471985,-0.33236223459243774,1.1777819395065308
1772649761001153000,6.956153076171875,0.1002679318189621,-0.31425273418426514,1.080310344696045
1772649761011157800,6.96615771484375,0.051798440515995026,-0.30413272976875305,0.9455545544624329
1772649761021162200,6.976162353515625,-0.012650004588067532,-0.32863378524780273,0.7836344838142395
1772649761031167000,6.9861669921875,-0.10799109190702438,-0.3435474932193756,0.5807017683982849
1772649761041171500,6.99617138671875,-0.18469005823135376,-0.3430148661136627,0.35752907395362854
1772649761051176200,7.00617626953125,-0.21505007147789001,-0.31318747997283936,0.13968268036842346
1772649761061180400,7.016180419921875,-0.21505007147789001,-0.22264008224010468,-0.06591317802667618
1772649761071184100,7.02618408203125,-0.1442100554704666,-0.06977476179599762,-0.2587258815765381
1772649761081187800,7.036187744140625,-0.10586056113243103,0.3536674976348877,-0.2869553565979004
1772649761091191800,7.04619189453125,-0.24594271183013916,1.4349099397659302,0.23502376675605774
1772649761101195500,7.056195556640625,-1.1423619985580444,2.86236310005188,1.5346453189849854
1772649761111199200,7.06619921875,-2.7328004837036133,1.3848426342010498,2.325603485107422
1772649761121203000,7.076202880859375,-2.064347505569458,-1.8865816593170166,0.8805734515190125
1772649761131207000,7.08620703125,0.2557964026927948,-0.9736508727073669,-0.6587323546409607
1772649761141210600,7.096210693359375,1.4627399444580078,1.1339730024337769,-0.6422207355499268
1772649761151214300,7.10621435546875,0.8843019008636475,1.146223545074463,0.6520744562149048
1772649761161218000,7.116218017578125,-0.02703106217086315,0.7036065459251404,1.3136030435562134
1772649761171222000,7.126221923828125,-0.5431512594223022,0.3158506453037262,0.9290429353713989
1772649761181225700,7.136225830078125,-0.628372311592102,-0.41172435879707336,0.11677951365709305
1772649761191229400,7.1462294921875,-0.45899543166160583,-0.814393937587738,-0.36365434527397156
1772649761201233200,7.156233154296875,-0.30719536542892456,-0.49215173721313477,-0.5218459963798523
1772649761211237000,7.166237060546875,-0.1591237336397171,0.12570109963417053,-0.5058670043945312
1772649761221240800,7.17624072265625,-0.016911057755351067,0.516120195388794,-0.4653870165348053
1772649761231244500,7.18624462890625,0.12583425641059875,0.4665854275226593,-0.5117259621620178
1772649761241248300,7.196248291015625,0.2174469232559204,0.2775011360645294,-0.5724459886550903
1772649761251252200,7.206252197265625,0.18122795224189758,0.19494321942329407,-0.6336986422538757
1772649761261256000,7.216255859375,0.09707213938236237,0.20879164338111877,-0.7098649740219116
1772649761271259600,7.226259765625,0.014514215290546417,0.15712636709213257,-0.6949512958526611
1772649761281263400,7.236263427734375,-0.18362480401992798,0.08096002787351608,-0.5980123281478882
1772649761291267300,7.246267333984375,-0.4936164915561676,0.042610540986061096,-0.4973449110984802
1772649761301271000,7.25627099609375,-0.7833681702613831,0.06870950013399124,-0.4760396480560303
1772649761311274800,7.266274658203125,-1.0811092853546143,-0.0612526535987854,-0.5340964794158936
1772649761321278500,7.276278564453125,-1.1972230672836304,-0.2972085177898407,-0.5729786157608032
1772649761331282400,7.286282470703125,-1.1178609132766724,-0.4708464741706848,-0.5905554890632629
1772649761341286100,7.2962861328125,-0.9468861222267151,-0.5832318067550659,-0.6395576000213623
1772649761351289900,7.306289794921875,-0.7045386433601379,-0.6183854937553406,-0.7093323469161987
1772649761361293600,7.31629345703125,-0.4275701344013214,-0.45113909244537354,-0.7072018384933472
1772649761371297500,7.326297607421875,-0.14154689013957977,-0.15233267843723297,-0.5665870308876038
1772649761381301200,7.33630126953125,0.09760477393865585,0.15765899419784546,-0.35992592573165894
1772649761391305000,7.346304931640625,0.28562378883361816,0.3595264256000519,-0.10692582279443741
1772649761401308700,7.35630859375,0.4629901647567749,0.2913495600223541,0.1050616130232811
1772649761411312600,7.366312744140625,0.6531397104263306,-0.03142527490854263,0.17323848605155945
1772649761421316400,7.37631640625,0.852876603603363,-0.34194958209991455,0.052331071346998215
1772649761431320000,7.386320068359375,1.045156717300415,-0.5406212210655212,-0.19800585508346558
1772649761441323800,7.39632373046875,1.2502199411392212,-0.8341013193130493,-0.5133238434791565
1772649761451327700,7.40632763671875,1.4409021139144897,-0.6274402141571045,-0.7918902635574341
1772649761461331500,7.41633154296875,1.5724620819091797,-0.16405057907104492,-0.8898945450782776
1772649761471335200,7.426335205078125,1.6342474222183228,0.006391581147909164,-0.7929555177688599
1772649761481339000,7.4363388671875,1.6022895574569702,0.0564589649438858,-0.5362270474433899
1772649761491342800,7.4463427734375,1.3583441972732544,0.06444844603538513,-0.19587533175945282
1772649761501346600,7.4563466796875,0.941293478012085,-0.04154527932405472,0.15512900054454803
1772649761511350300,7.466350341796875,0.4736427962779999,-0.11025477200746536,0.4715122580528259
1772649761521354000,7.47635400390625,0.16684690117835999,-0.28122955560684204,0.6952176094055176
1772649761531358000,7.48635791015625,0.1471395194530487,-0.4053327739238739,0.8177229166030884
1772649761541361700,7.496361572265625,0.2781669497489929,-0.4111917316913605,0.8033418655395508
1772649761551365400,7.506365478515625,0.32823431491851807,-0.329166442155838,0.6898912787437439
1772649761561369300,7.516369384765625,0.2595248222351074,-0.21411797404289246,0.5775060057640076
1772649761571374000,7.5263740234375,0.16897742450237274,-0.1832253336906433,0.5285038948059082
1772649761581378600,7.536378662109375,0.0768321305513382,-0.22743375599384308,0.4954806864261627
1772649761591383300,7.54638330078125,-0.017976321280002594,-0.24927166104316711,0.4246406853199005
1772649761601387800,7.5563876953125,-0.07496792078018188,-0.16618111729621887,0.30000483989715576
1772649761611392500,7.566392578125,-0.08082687109708786,-0.11930951476097107,0.16844479739665985
1772649761621397200,7.576397216796875,0.009720529429614544,0.047936856746673584,0.03315632790327072
1772649761671420400,7.62642041015625,-0.5340964794158936,1.4152026176452637,-0.06498107314109802
1772649761681425000,7.6364248046875,-1.615338921546936,2.122537612915039,1.0343708992004395
1772649761691429600,7.6464296875,-3.348522663116455,1.0205224752426147,2.0069565773010254
1772649761701434400,7.656434326171875,-3.1439921855926514,-1.8045563697814941,1.246890902519226
1772649761711438800,7.66643896484375,-1.4528863430023193,-1.8445037603378296,0.1890842765569687
1772649761721443600,7.676443603515625,-0.6486123204231262,-0.5214464664459229,0.054861072450876236
1772649761731448000,7.686447998046875,-0.5921533703804016,-0.09800424426794052,0.6029391288757324
1772649761741452800,7.696452880859375,-0.6821681261062622,-0.36485275626182556,0.7920234203338623
1772649761751457300,7.706457275390625,-0.6294375658035278,-0.5677854418754578,0.3968106508255005
1772649761761462000,7.7164619140625,-0.33222904801368713,-0.5773728489875793,-0.2551306188106537
1772649761771466800,7.726466796875,-0.1681784838438034,-0.5347622632980347,-0.3584611713886261
1772649761781471200,7.73647119140625,-0.11491530388593674,-0.06178528442978859,-0.1596563756465912
1772649761791476000,7.74647607421875,0.05339633300900459,0.4665854275226593,-0.02436790242791176
1772649761801480400,7.75648046875,0.2083921730518341,0.5635244250297546,-0.06165212765336037
1772649761811485200,7.766485107421875,0.3783017098903656,0.08415582031011581,-0.23369218409061432
1772649761821490000,7.776489990234375,0.4534027874469757,-0.5012065172195435,-0.41585224866867065
1772649761831494400,7.786494384765625,0.33356064558029175,-0.6556696891784668,-0.475506991147995
1772649761841499100,7.7964990234375,0.15086795389652252,-0.40320223569869995,-0.39721015095710754
1772649761851503600,7.806503662109375,-0.10958898812532425,-0.09214529395103455,-0.17616795003414154
1772649761861508400,7.81650830078125,-0.20439743995666504,0.2024000734090805,0.1514005810022354
1772649761871512800,7.826512939453125,-0.27949851751327515,0.24607586860656738,0.33409327268600464
1772649761881517600,7.836517578125,-0.5239765048027039,0.018109479919075966,0.3021353781223297
1772649761891522300,7.846522216796875,-0.9463534951210022,-0.36591801047325134,0.11251845955848694
1772649761901526800,7.85652685546875,-1.204147219657898,-0.6556696891784668,-0.07656581699848175
1772649761911531500,7.866531494140625,-1.1636672019958496,-0.7488802671432495,-0.2113216519355774
1772649761921536000,7.876535888671875,-1.0129324197769165,-0.7142592072486877,-0.3482080101966858
1772649761931540700,7.886540771484375,-0.7780418395996094,-0.5267727971076965,-0.47657227516174316
1772649761941545500,7.89654541015625,-0.4744417369365692,-0.23702113330364227,-0.5388901829719543
1772649761951550000,7.906550048828125,-0.13941636681556702,0.18748638033866882,-0.445679634809494
1772649761961554700,7.9165546875,0.1753690093755722,0.43995383381843567,-0.27523747086524963
1772649761971559200,7.92655908203125,0.4203796088695526,0.44101908802986145,-0.10799109190702438
1772649761981564000,7.93656396484375,0.6195839047431946,0.23702113330364227,-0.04407527670264244
1772649761991568400,7.946568359375,0.8060050010681152,0.1134505644440651,-0.0744352862238884
1772649762001573000,7.956572998046875,0.9546092748641968,-0.10918951034545898,-0.18469005823135376
1772649762011577900,7.966577880859375,1.0307756662368774,-0.6253097057342529,-0.36898064613342285
1772649762021582300,7.976582275390625,1.0664619207382202,-0.7259770631790161,-0.5980123281478882
1772649762031587000,7.986587158203125,1.1213229894638062,-0.3206443190574646,-0.7530081272125244
1772649762041591800,7.996591796875,1.1245187520980835,0.042610540986061096,-0.7125281691551208
1772649762051596300,8.00659619140625,0.9737840294837952,0.14434321224689484,-0.44514700770378113
1772649762061600800,8.016600830078126,0.7085334062576294,0.07616633921861649,-0.04940159618854523
1772649762071605500,8.02660546875,0.39001959562301636,0.03142527490854263,0.3079943060874939
1772649762081610000,8.03660986328125,0.12104056775569916,-0.1129179298877716,0.5940175652503967
1772649762091614500,8.046614501953124,0.08535423874855042,-0.34248220920562744,0.760198712348938
1772649762101619000,8.056618896484375,0.2083921730518341,-0.40320223569869995,0.7607313394546509
1772649762111623400,8.06662353515625,0.3026680052280426,-0.3020022213459015,0.6462154984474182
1772649762121628000,8.0766279296875,0.2600574493408203,-0.2125200778245926,0.49920910596847534
1772649762131632400,8.08663232421875,0.1705753207206726,-0.19920428097248077,0.42410802841186523
1772649762141636900,8.096636962890624,0.11837740987539291,-0.1794968992471695,0.4358259439468384
1772649762151641300,8.106641357421875,0.056059494614601135,-0.09374319016933441,0.4645880460739136
1772649762161645800,8.116645751953126,-0.024900535121560097,0.07030738890171051,0.45180490612983704
1772649762171650300,8.126650390625,-0.07976160943508148,0.12516845762729645,0.38575854897499084
1772649762181654800,8.13665478515625,-0.04301001504063606,0.18695375323295593,0.3163832724094391
1772649762191659300,8.1466591796875,0.04593949019908905,0.27057692408561707,0.23755376040935516
1772649762201663700,8.156663818359375,0.1423458456993103,0.3121222257614136,0.10066740214824677
1772649762211668200,8.166668212890626,0.2185121774673462,0.3105243146419525,-0.13209268450737
1772649762221672700,8.176672607421875,0.2792322039604187,0.3110569417476654,-0.3771032989025116
1772649762231677200,8.18667724609375,0.22064270079135895,0.5944170355796814,-0.46072646975517273
1772649762241681700,8.196681640625,-0.16711321473121643,1.4418342113494873,0.03249053657054901
1772649762251686100,8.20668603515625,-1.6872442960739136,2.4980430603027344,1.3374383449554443
1772649762261690600,8.216690673828126,-3.75545334815979,0.8836361169815063,1.9116153717041016
1772649762271695000,8.226695068359374,-2.873415231704712,-1.3225246667861938,0.45912858843803406
1772649762281699600,8.236699462890625,-0.5218459963798523,-0.27537062764167786,-0.64608234167099
1772649762291704000,8.2467041015625,0.48908910155296326,0.3259706497192383,-0.22530323266983032
1772649762301708500,8.25670849609375,0.3442132771015167,-0.18216006457805634,0.8447539806365967
1772649762311713000,8.266713134765626,-0.5063996315002441,-0.2503369152545929,1.3576784133911133
1772649762321717500,8.276717529296874,-1.0065408945083618,-0.051665280014276505,0.9544761180877686
1772649762331722000,8.286721923828125,-0.8313050270080566,0.03621895983815193,0.2700442969799042
1772649762341726500,8.2967265625,-0.544216513633728,-0.0330231711268425,-0.27164220809936523
1772649762351731000,8.30673095703125,-0.26991114020347595,0.12197267264127731,-0.3824295997619629
1772649762361735400,8.3167353515625,-0.04087948799133301,0.38349485397338867,-0.23808640241622925
1772649762371740000,8.326739990234374,0.14873741567134857,0.3920169770717621,-0.15339794754981995
1772649762381744400,8.336744384765625,0.27656903862953186,0.022903166711330414,-0.2790990471839905
1772649762391748900,8.346748779296876,0.34261539578437805,-0.33236223459243774,-0.4234422445297241
1772649762401753300,8.35675341796875,0.21212059259414673,-0.325437992811203,-0.415452778339386
1772649762411757800,8.3667578125,0.07523423433303833,-0.13741900026798248,-0.22423797845840454
1772649762421762300,8.37676220703125,-0.046205803751945496,-0.006391581147909164,0.05432844161987305
1772649762431766800,8.386766845703125,-0.2725743055343628,-0.09534108638763428,0.18535585701465607
1772649762441771300,8.396771240234376,-0.523443877696991,-0.2173137664794922,0.15446321666240692
1772649762451775700,8.406775634765625,-0.8664587140083313,-0.3669832944869995,0.009587371721863747
1772649762461780200,8.4167802734375,-1.13969886302948,-0.5922865271568298,-0.14700636267662048
1772649762471784700,8.42678466796875,-1.1098713874816895,-0.6924213171005249,-0.26205483078956604
1772649762481789400,8.43678955078125,-0.9064061045646667,-0.5656549334526062,-0.3499390780925751
1772649762491794000,8.4467939453125,-0.6321007609367371,-0.32756853103637695,-0.38828855752944946
1772649762501798400,8.45679833984375,-0.3519364297389984,-0.13741900026798248,-0.3962780237197876
1772649762511803000,8.466802978515625,-0.09467529505491257,0.03994738310575485,-0.37550538778305054
1772649762521807400,8.476807373046874,0.14500899612903595,0.21465060114860535,-0.28495800495147705
1772649762531811800,8.486811767578125,0.3223753869533539,0.36165696382522583,-0.1832253336906433
1772649762541816300,8.49681640625,0.3980090916156769,0.4436822533607483,-0.06817686557769775
1772649762551820800,8.50682080078125,0.35752907395362854,0.39414751529693604,0.047936856746673584
1772649762561824800,8.51682470703125,0.2930806279182434,0.25193482637405396,0.1267663538455963
1772649762571828500,8.526828369140626,0.2925480008125305,0.07829686999320984,0.05805686116218567
1772649762581832200,8.536832275390625,0.4688491225242615,-0.06498107314109802,-0.23582270741462708
1772649762591836000,8.5468359375,0.7692534327507019,-0.29454535245895386,-0.6699175834655762
1772649762601839900,8.55683984375,0.9647293090820312,-0.5640570521354675,-1.0257155895233154
1772649762611843600,8.566843505859374,0.8853671550750732,-0.6641917824745178,-1.1290462017059326
1772649762621847300,8.576847412109375,0.6046702265739441,-0.5763075947761536,-0.9090692400932312
1772649762631851000,8.58685107421875,0.4107922613620758,-0.44581279158592224,-0.4573975205421448
1772649762641854700,8.596854736328124,0.3117227256298065,-0.45113909244537354,0.015579478815197945
1772649762651858400,8.6068583984375,0.18868480622768402,-0.44101908802986145,0.353268027305603
1772649762661862100,8.616862060546875,0.07363633811473846,-0.3621895909309387,0.5743101835250854
1772649762671865900,8.626865966796874,-0.013182636350393295,-0.25672850012779236,0.668053388595581
1772649762681869600,8.63686962890625,-0.06697844713926315,-0.13049478828907013,0.6328997015953064
1772649762691873300,8.646873291015625,-0.07550055533647537,-0.023435797542333603,0.481632262468338
1772649762701877200,8.656877197265626,-0.058988966047763824,0.06178528442978859,0.2664490342140198
1772649762711881000,8.666880859375,-0.04087948799133301,0.10492845624685287,0.09600687772035599
1772649762721884700,8.676884765625,-0.0414121188223362,0.14008215069770813,0.04700475186109543
1772649762731888400,8.686888427734376,-0.03448790684342384,0.19600848853588104,0.05978791415691376
1772649762741892000,8.69689208984375,0.007590002380311489,0.2540653645992279,0.012916320003569126
1772649762751895800,8.706895751953125,0.0906805545091629,0.29880642890930176,-0.09574055671691895
1772649762761899500,8.7168994140625,0.22064270079135895,0.3073285222053528,-0.21238692104816437
1772649762771903200,8.7269033203125,0.35167011618614197,0.3217095732688904,-0.301336407661438
1772649762781907000,8.736906982421875,0.4901543855667114,0.45007383823394775,-0.4005391001701355
1772649762791910700,8.74691064453125,0.6265081167221069,0.637560248374939,-0.5587307214736938
1772649762801914600,8.75691455078125,0.7586007714271545,1.1233203411102295,-0.5336970090866089
1772649762811918300,8.76691845703125,0.011851056478917599,2.6498429775238037,0.3195790648460388
1772649762821922000,8.776922119140625,-2.391916036605835,1.6932363510131836,1.4492909908294678
1772649762831925800,8.78692578125,-2.8371963500976562,-1.195225715637207,1.4817816019058228
1772649762841929500,8.796929443359375,-0.6406228542327881,-0.554469645023346,0.5507412552833557
1772649762851933200,8.80693310546875,0.6664555072784424,0.3866906464099884,0.22956429421901703
1772649762861937000,8.81693701171875,-0.025433165952563286,-0.0330231711268425,0.6950844526290894
1772649762871940600,8.826940673828124,-1.0965555906295776,-0.34141695499420166,1.0886993408203125
1772649762881944300,8.8369443359375,-1.3895031213760376,-0.358993798494339,0.8298403024673462
1772649762891948000,8.846947998046875,-1.1130672693252563,-0.6737791895866394,0.2535327076911926
1772649762901951700,8.85695166015625,-0.6672544479370117,-0.9225181937217712,-0.021837901324033737
1772649762911955700,8.866955810546875,-0.37803539633750916,-0.6189181208610535,-0.1464737355709076
1772649762921959400,8.87695947265625,-0.062184758484363556,-0.08841687440872192,-0.1278316229581833
1772649762931963100,8.886963134765624,0.22437113523483276,0.44048646092414856,-0.030360009521245956
1772649762941966800,8.896966796875,0.37563854455947876,0.6716486811637878,0.005858949385583401
1772649762951970600,8.906970458984375,0.47417542338371277,0.5555348992347717,-0.021305270493030548
1772649762961974300,8.916974365234376,0.559396505355835,0.3067958950996399,-0.13901689648628235
1772649762971978000,8.92697802734375,0.5087965130805969,0.10066740214824677,-0.36165696382522583
1772649762981981700,8.936981689453125,0.32344064116477966,-0.09587371349334717,-0.5528717637062073
1772649762991985400,8.9469853515625,0.14447636902332306,-0.2780337929725647,-0.6119939088821411
1772649763001989000,8.956989013671874,0.028362641111016273,-0.35100433230400085,-0.5560675859451294
1772649763011992800,8.966992919921875,-0.07230476289987564,-0.3014695644378662,-0.41651803255081177
1772649763021996800,8.976996826171876,-0.20493006706237793,-0.2167811244726181,-0.207726389169693
1772649763032000500,8.98700048828125,-0.4659196436405182,-0.2913495600223541,-0.042610540986061096
1772649763042004200,8.997004150390625,-0.6102628707885742,-0.30839377641677856,0.13315793871879578
1772649763052008000,9.007008056640625,-0.6251765489578247,-0.32330748438835144,0.25246745347976685
1772649763062012000,9.017011962890624,-0.6129260063171387,-0.3478085398674011,0.2545979917049408
1772649763072016400,9.027016357421875,-0.6592649817466736,-0.43675804138183594,0.16138742864131927
1772649763082020600,9.0370205078125,-0.5756417512893677,-0.40266960859298706,0.055393703281879425
1772649763092025000,9.047025146484375,-0.4318312108516693,-0.2695116698741913,0.03675159066915512
1772649763102029300,9.057029296875,-0.3727090656757355,-0.15180005133152008,0.10013477504253387
1772649763112033500,9.067033447265626,-0.3295659124851227,-0.06977476179599762,0.18002954125404358
1772649763122038000,9.0770380859375,-0.2587258815765381,-0.050600018352270126,0.22530323266983032
1772649763132042200,9.087042236328125,-0.18042901158332825,0.027696851640939713,0.22743375599384308
1772649763142046700,9.097046630859374,-0.11065424978733063,0.1507347822189331,0.2125200778245926
1772649763152051000,9.107051025390625,-0.08242476731538773,0.1842905879020691,0.16351795196533203
1772649763162055400,9.117055419921876,-0.09254477173089981,0.1832253336906433,0.09054739773273468
1772649763172059600,9.1270595703125,-0.13675320148468018,0.1459411084651947,0.005858949385583401
1772649763182064000,9.137064208984375,-0.16178689897060394,0.06924212723970413,-0.09853687882423401
1772649763192068400,9.147068359375,-0.13302478194236755,-0.03568632900714874,-0.23329271376132965
1772649763202072600,9.157072509765625,-0.09520792961120605,-0.09534108638763428,-0.3621895909309387
1772649763212077000,9.1670771484375,-0.0696416050195694,-0.10599371790885925,-0.4042675197124481
1772649763222081300,9.177081298828124,-0.06111949309706688,-0.06977476179599762,-0.2886864244937897
1772649763232085800,9.187085693359375,-0.1165132001042366,-0.025566324591636658,-0.01651158556342125
1772649763242090000,9.197090087890626,-0.17883111536502838,-0.004793685860931873,0.31798115372657776
1772649763252094500,9.207094482421875,-0.111719511449337,0.035153694450855255,0.5310338735580444
1772649763262098700,9.2170986328125,-0.02330263890326023,-0.003195790573954582,0.6162549257278442
1772649763272103200,9.227103271484374,0.040080539882183075,-0.10705898702144623,0.612526535987854
1772649763282107400,9.237107421875,0.06937528401613235,-0.2865558862686157,0.5795033574104309
1772649763292111600,9.247111572265625,0.08428897708654404,-0.4569980502128601,0.5597959756851196
1772649763302116000,9.2571162109375,0.10612688213586807,-0.5629917979240417,0.5603286027908325
1772649763312120300,9.267120361328125,0.09014792740345001,-0.6625939011573792,0.5757749080657959
1772649763322124800,9.277124755859376,0.07097318023443222,-0.8133286833763123,0.5949496626853943
1772649763332129000,9.28712890625,0.014514215290546417,-1.2463582754135132,0.6391581296920776
1772649763342133500,9.297133544921875,-0.0978710874915123,-1.4998910427093506,0.7637939453125
1772649763352137700,9.3071376953125,-0.3380880057811737,-1.0359687805175781,1.044490933418274
1772649763362142200,9.31714208984375,-0.4834964871406555,-0.4058654010295868,1.2362383604049683
1772649763372146400,9.327146484375,-0.6177197098731995,-0.13262531161308289,1.2490215301513672
1772649763382151000,9.33715087890625,-0.7414234280586243,0.0624510757625103,1.091362476348877
1772649763392155100,9.347155029296875,-0.8048065900802612,0.12317109853029251,0.8511455655097961
1772649763402159600,9.35715966796875,-0.7861644625663757,0.11464899033308029,0.6253097057342529
1772649763412163800,9.367163818359375,-0.6380928754806519,-0.022770008072257042,0.4197138249874115
1772649763422168000,9.37716796875,-0.4708464741706848,-0.2667153477668762,0.2545979917049408
1772649763432172500,9.387172607421874,-0.34194958209991455,-0.3609911799430847,0.20506322383880615
1772649763442176800,9.3971767578125,-0.22477060556411743,-0.3604585528373718,0.22743375599384308
1772649763452181200,9.40718115234375,-0.12889689207077026,-0.3370227515697479,0.2924148440361023
1772649763462185500,9.417185546875,-0.08522108197212219,-0.3285006284713745,0.3866906464099884
1772649763472190000,9.42718994140625,-0.06870950013399124,-0.3391532599925995,0.4846948981285095
1772649763482194200,9.437194091796876,-0.059122126549482346,-0.3748396039009094,0.5523391366004944
1772649763492198700,9.44719873046875,-0.0564589649438858,-0.39774277806282043,0.5800359845161438
1772649763502203000,9.457202880859375,-0.051665280014276505,-0.3817638158798218,0.5842970609664917
1772649763512207000,9.46720703125,-0.029294747859239578,-0.34075117111206055,0.5635244250297546
1772649763522211600,9.477211669921875,0.0026631588116288185,-0.3285006284713745,0.515587568283081
1772649763532215800,9.4872158203125,0.03408843278884888,-0.3657848536968231,0.446878045797348
1772649763542220300,9.49722021484375,0.03834948688745499,-0.44354909658432007,0.37870118021965027
1772649763552224500,9.507224609375,0.006924212910234928,-0.5058670043945312,0.3392864465713501
1772649763562228700,9.517228759765626,-0.04101264476776123,-0.48243123292922974,0.3765706419944763
1772649763572232700,9.527232666015625,-0.10546109080314636,-0.41531962156295776,0.48416227102279663
1772649763582236700,9.537236572265625,-0.12836425006389618,-0.38868802785873413,0.4564654231071472
1772649763592241000,9.547240966796876,-0.15339794754981995,-0.370045930147171,0.4724443852901459
1772649763602244900,9.557244873046875,-0.16671374440193176,-0.3524690568447113,0.4191811978816986
1772649763612248800,9.567248779296875,-0.1699095368385315,-0.3391532599925995,0.3494064211845398
1772649763622253000,9.577253173828124,-0.16405057907104492,-0.3237069547176361,0.3020022213459015
1772649763632257000,9.587257080078125,-0.13795162737369537,-0.3253048360347748,0.24820640683174133
1772649763642261000,9.597260986328125,-0.0756337121129036,-0.39135119318962097,0.08894950151443481
1772649763652265000,9.607264892578126,-0.039414748549461365,-0.4051996171474457,-0.03249053657054901
1772649763662269200,9.617269287109375,-0.026631588116288185,-0.3343595862388611,-0.014913689345121384
1772649763672273200,9.627273193359375,-0.0026631588116288185,-0.22676797211170197,0.027164220809936523
1772649763682277000,9.637277099609374,0.0330231711268425,-0.15539531409740448,0.042610540986061096
1772649763692281000,9.647281005859375,0.06072001904249191,-0.12183951586484909,0.021305270493030548
1772649763702285300,9.657285400390625,0.07297055423259735,-0.10373003780841827,-0.012783162295818329
1772649763712289300,9.667289306640624,0.07616633921861649,-0.11278477311134338,-0.04420843720436096
1772649763722293200,9.677293212890625,0.0612526535987854,-0.09840371459722519,-0.06285054981708527
1772649763732297200,9.687297119140625,0.015446321107447147,-0.08295739442110062,-0.055393703281879425
1772649763742301400,9.697301513671874,-0.03142527490854263,-0.07976160943508148,-0.039414748549461365
1772649763752305400,9.707305419921875,-0.07616633921861649,-0.08295739442110062,-0.004793685860931873
1772649763762309400,9.717309326171875,-0.12357056885957718,-0.07763107866048813,0.04154527932405472
1772649763772313300,9.727313232421874,-0.14381057024002075,-0.0834900289773941,0.0804273933172226
1772649763782317600,9.737317626953125,-0.16138742864131927,-0.0930773988366127,0.12197267264127731
1772649763792321500,9.747321533203126,-0.17257268726825714,-0.10852371901273727,0.14753900468349457
1772649763802325500,9.757325439453124,-0.17576847970485687,-0.1442100554704666,0.1549958437681198
1772649763812329700,9.767329833984375,-0.18216006457805634,-0.16551531851291656,0.1608547866344452
1772649763822333700,9.777333740234376,-0.1784316450357437,-0.19481006264686584,0.15286532044410706
1772649763832337700,9.787337646484374,-0.17204006016254425,-0.19907112419605255,0.1555284708738327
1772649763842341600,9.797341552734375,-0.16192005574703217,-0.19800585508346558,0.14966952800750732
1772649763852345900,9.807345947265626,-0.15393057465553284,-0.22783324122428894,0.14061477780342102
1772649763862349800,9.817349853515625,-0.1507347822189331,-0.20279954373836517,0.12836425006389618
1772649763872353800,9.827353759765625,-0.13475583493709564,-0.1926795393228531,0.10066740214824677
1772649763882357800,9.837357666015626,-0.11611372232437134,-0.16658058762550354,0.09108003228902817
1772649763892362000,9.847362060546875,-0.10918951034545898,-0.1681784838438034,0.07723160833120346
1772649763902366000,9.857365966796875,-0.09108003228902817,-0.12769846618175507,0.06072001904249191
1772649763912370000,9.867369873046876,-0.0798947662115097,-0.0882837176322937,0.06391581147909164
1772649763922374000,9.877373779296875,-0.06764423102140427,-0.07496792078018188,0.051132649183273315
1772649763932378000,9.887378173828125,-0.05273054540157318,-0.0696416050195694,0.03355580195784569
1772649763942382000,9.897382080078126,-0.042610540986061096,-0.07816371321678162,0.018109479919075966
1772649763952386000,9.907385986328125,-0.04420843720436096,-0.07337002456188202,0.010652635246515274
1772649763962390000,9.91739013671875,-0.051132649183273315,-0.05366265028715134,0.019174743443727493
1772649763972394200,9.927394287109376,-0.06338317692279816,-0.06538055092096329,0.01651158556342125
1772649763982398200,9.937398193359375,-0.06178528442978859,-0.06804370880126953,0.019707374274730682
1772649763992402200,9.947402099609375,-0.06551370769739151,-0.07976160943508148,0.02024000696837902
1772649764002406100,9.95740625,-0.08309055864810944,-0.1074584573507309,0.03621895983815193
1772649764012410400,9.967410400390625,-0.08788423985242844,-0.09574055671691895,0.02503369376063347
1772649764022414300,9.977414306640625,-0.09800424426794052,-0.10319740325212479,0.007456844672560692
1772649764032418300,9.987418212890624,-0.09853687882423401,-0.1165132001042366,0.013848425820469856
1772649764042422500,9.997422607421875,-0.10439582169055939,-0.11491530388593674,0.023968428373336792
1772649764052426500,10.007426513671875,-0.09693898260593414,-0.08988160640001297,0.027164220809936523
1772649764062430700,10.0174306640625,-0.10173266381025314,-0.10586056113243103,0.029827378690242767
1772649764072435500,10.027435546875,-0.09108003228902817,-0.10639319568872452,0.02503369376063347
1772649764082440000,10.03743994140625,-0.08149266242980957,-0.11012161523103714,0.01012000348418951
1772649764092444700,10.047444580078125,-0.08841687440872192,-0.0930773988366127,0
1772649764102449200,10.05744921875,-0.08894950151443481,-0.08455529063940048,-0.018642112612724304
1772649764112454000,10.067453857421874,-0.0942758247256279,-0.09254477173089981,-0.02876211516559124
1772649764122458400,10.077458251953125,-0.1038631945848465,-0.08508792519569397,-0.035153694450855255
1772649764132463000,10.087463134765626,-0.07243791967630386,-0.06538055092096329,-0.04474106803536415
1772649764142467600,10.097467529296875,-0.05805686116218567,-0.05259738489985466,-0.0330231711268425
1772649764152472000,10.10747216796875,-0.051665280014276505,-0.04514054208993912,-0.01012000348418951
1772649764162476800,10.117476806640624,-0.047404225915670395,-0.0414121188223362,0.011717898771166801
1772649764172481300,10.127481201171875,-0.042610540986061096,-0.037683695554733276,0.025566324591636658
1772649764182486000,10.137486083984374,-0.03249053657054901,-0.04034685716032982,0.01704421639442444
1772649764192490500,10.147490478515625,-0.026098955422639847,-0.05313001945614815,0.0010652635246515274
1772649764202495200,10.1574951171875,-0.019174743443727493,-0.042477384209632874,-0.0330231711268425
1772649764212499700,10.167499755859374,-0.013315794058144093,-0.03448790684342384,-0.05752423033118248
1772649764222504400,10.17750439453125,-0.012783162295818329,-0.030226852744817734,-0.07137265801429749
1772649764232509000,10.187509033203124,-0.011185267008841038,-0.0366184338927269,-0.07829686999320984
1772649764242513700,10.197513671875,-0.02024000696837902,-0.020639481022953987,-0.07882949709892273
1772649764252518100,10.20751806640625,-0.02024000696837902,-0.014247899875044823,-0.07510107755661011
1772649764262523000,10.21752294921875,-0.02077263966202736,-0.0073236869648098946,-0.06711160391569138
1772649764272527400,10.22752734375,-0.015446321107447147,-0.001997369108721614,-0.06657896935939789
1772649764282532000,10.237531982421874,-0.010652635246515274,-0.00519315991550684,-0.07030738890171051
1772649764292536600,10.24753662109375,-0.003728422336280346,-0.010519477538764477,-0.07776423543691635
1772649764302541000,10.257541015625,0.005326317623257637,-0.026498429477214813,-0.08202528953552246
1772649764312545800,10.2675458984375,0.009054739959537983,-0.02703106217086315,-0.09214529395103455
1772649764322550300,10.27755029296875,0.019174743443727493,-0.030226852744817734,-0.10546109080314636
1772649764332555000,10.287554931640624,0.02450106106698513,-0.04460791125893593,-0.1134505644440651
1772649764342559500,10.2975595703125,0.03355580195784569,-0.06697844713926315,-0.1134505644440651
1772649764352564200,10.307564208984376,0.023968428373336792,-0.05632580816745758,-0.10439582169055939
1772649764362568700,10.317568603515625,0.019707374274730682,-0.05579317733645439,-0.0894821360707283
1772649764372573400,10.327573486328125,0.019707374274730682,-0.05206475406885147,-0.07669897377490997
1772649764382578000,10.337577880859374,0.017576847225427628,-0.049934227019548416,-0.07297055423259735
1772649764392582700,10.347582763671875,0.01704421639442444,-0.046205803751945496,-0.0756337121129036
1772649764402587100,10.357587158203126,0.019707374274730682,-0.03981422260403633,-0.08362318575382233
1772649764412591900,10.367591796875,0.022903166711330414,-0.03874896094202995,-0.09001477062702179
1772649764422596400,10.377596435546875,0.02503369376063347,-0.03981422260403633,-0.09214529395103455
1772649764432601000,10.38760107421875,0.025566324591636658,-0.03448790684342384,-0.09267792850732803
1772649764442605600,10.39760546875,0.003195790573954582,-0.03342264145612717,-0.08628634363412857
1772649764452610300,10.4076103515625,0.02503369376063347,-0.029694220051169395,-0.07936213165521622
1772649764462614800,10.41761474609375,0.022370534017682076,-0.030759483575820923,-0.08575371652841568
1772649764472619500,10.42761962890625,0.023968428373336792,-0.030759483575820923,-0.08628634363412857
1772649764482624000,10.4376240234375,0.022370534017682076,-0.03129211440682411,-0.08788423985242844
1772649764492628700,10.447628662109375,0.019707374274730682,-0.037683695554733276,-0.08575371652841568
1772649764502633200,10.45763330078125,0.019707374274730682,-0.0414121188223362,-0.07936213165521622
1772649764512638000,10.467637939453125,0.015446321107447147,-0.03981422260403633,-0.08202528953552246
1772649764522642400,10.477642333984376,-0.01438105758279562,-0.04514054208993912,-0.0894821360707283
1772649764532647000,10.48764697265625,-0.0005326317623257637,-0.04514054208993912,-0.0798947662115097
1772649764542651600,10.497651611328125,0.005326317623257637,-0.04940159618854523,-0.09161266684532166
1772649764552656100,10.50765625,0.004793685860931873,-0.05632580816745758,-0.08788423985242844
1772649764562661000,10.5176611328125,-0.009054739959537983,-0.03342264145612717,-0.09054739773273468
1772649764572665900,10.527665771484376,-0.012783162295818329,-0.0318247489631176,-0.09321055561304092
1772649764582670800,10.5376708984375,-0.01438105758279562,-0.03981422260403633,-0.09108003228902817
1772649764592675800,10.54767578125,-0.009587371721863747,-0.05632580816745758,-0.08415582031011581
1772649764602680600,10.5576806640625,-0.011717898771166801,-0.0600542314350605,-0.06764423102140427
1772649764612685600,10.567685546875,-0.007456844672560692,-0.06751107424497604,-0.04633896425366402
1772649764622690600,10.577690673828124,-0.005326317623257637,-0.07230476289987564,-0.04527369886636734
1772649764632695600,10.587695556640625,-0.0005326317623257637,-0.08242476731538773,-0.043143171817064285
1772649764642700500,10.597700439453124,0.001597895286977291,-0.0930773988366127,-0.04048001393675804
1772649764652705300,10.607705322265625,0.007989476434886456,-0.10000161081552505,-0.04633896425366402
1772649764662710300,10.617710205078126,0.01438105758279562,-0.09733845293521881,-0.051132649183273315
1772649764672715300,10.62771533203125,0.02077263966202736,-0.09520792961120605,-0.06178528442978859
1772649764682720000,10.637719970703126,0.019174743443727493,-0.10053424537181854,-0.066046342253685
1772649764692725000,10.64772509765625,0.022903166711330414,-0.1213068813085556,-0.0612526535987854
1772649764702730000,10.65772998046875,0.010652635246515274,-0.0978710874915123,-0.06072001904249191
1772649764712735000,10.66773486328125,0.014913689345121384,-0.07976160943508148,-0.03249053657054901
1772649764722740000,10.677739990234375,0.018109479919075966,-0.046205803751945496,-0.023968428373336792
1772649764732744700,10.68774462890625,0.018642112612724304,-0.04354264587163925,-0.030892642214894295
1772649764742749700,10.697749755859375,0.015446321107447147,-0.03448790684342384,-0.035153694450855255
1772649764752754700,10.707754638671876,0.011717898771166801,-0.04087948799133301,-0.03994738310575485
1772649764762759700,10.717759765625,0.007456844672560692,-0.04673843830823898,-0.0378168560564518
1772649764772764400,10.727764404296876,0.005326317623257637,-0.045673172920942307,-0.030892642214894295
1772649764782769400,10.737769287109375,0.003195790573954582,-0.042477384209632874,-0.02024000696837902
1772649764792774400,10.7477744140625,0.0005326317623257637,-0.04301001504063606,-0.010652635246515274
1772649764802779400,10.757779296875,-0.0026631588116288185,-0.04301001504063606,0.003195790573954582
1772649764812784000,10.7677841796875,-0.007456844672560692,-0.04514054208993912,0.011717898771166801
1772649764822789000,10.7777890625,-0.011717898771166801,-0.04673843830823898,0.01704421639442444
1772649764832794000,10.787794189453125,-0.015446321107447147,-0.05099949240684509,0.026631588116288185
1772649764842799000,10.797799072265626,-0.017576847225427628,-0.050466857850551605,0.04154527932405472
1772649764852803800,10.807803955078125,-0.01597895286977291,-0.054727911949157715,0.05273054540157318
1772649764862808800,10.817808837890626,-0.017576847225427628,-0.04727106913924217,0.06285054981708527
1772649764872813800,10.827813720703125,-0.05326317623257637,0.018242638558149338,0.15233267843723297
1772649764882818800,10.83781884765625,-0.05805686116218567,0.05872265249490738,0.19228006899356842
1772649764892823600,10.847823486328124,-0.027164220809936523,0.024101587012410164,0.10492845624685287
1772649764902828500,10.85782861328125,-0.018109479919075966,0.010253161191940308,0.09001477062702179
1772649764912833500,10.86783349609375,-0.03249053657054901,0.019840532913804054,0.10279793292284012
1772649764922838500,10.877838623046875,-0.04527369886636734,0.03262369707226753,0.12303793430328369
1772649764932843300,10.88784326171875,-0.05699159950017929,0.035819485783576965,0.1459411084651947
