time,seconds_elapsed,z,y,x
1772648309751253000,0.0682529296875,-0.24796032308489083,-0.11977554945945738,-0.20518895672038195
1772648309761292800,0.078292724609375,-0.28568448906242844,-0.10722177283465861,-0.25172201370596886
1772648309771333600,0.088333740234375,-0.29316373890191316,-0.07266133158504963,-0.2960798455443233
1772648309781375000,0.098375,-0.3278518981844187,-0.0479711269646883,-0.33811771000251173
1772648309791414800,0.108414794921875,-0.38756957704424855,-0.017434534403681753,-0.3825586900796741
1772648309801455600,0.11845556640625,-0.3864192379653454,0.010960954475402832,-0.35881891805194316
1772648309811496700,0.12849658203125,-0.4238166562065482,0.04129062628746032,-0.33837482656873763
1772648309821536800,0.138536865234375,-0.4207330109775066,0.09005553397834301,-0.3577876022428274
1772648309831577900,0.148577880859375,-0.4179191226005554,0.1258358724117279,-0.4322964613907039
1772648309841618700,0.15861865234375,-0.5674129339754581,0.18557225597202776,-0.48294594071917235
1772648309851658800,0.16865869140625,-0.5648223329603672,0.19470657954216003,-0.4337275171071291
1772648309861699800,0.178699951171875,-0.4971712307527661,0.14825170235931873,-0.3968854677263647
1772648309871740000,0.188739990234375,-0.4547004547700286,0.050101124730706215,-0.31056342118792235
1772648309881780700,0.19878076171875,-0.45629503048509357,-0.05130173269212246,-0.227021579952538
1772648309891821800,0.20882177734375,-0.6644003130435944,-0.0652986938625574,-0.18322700802013278
1772648309901862000,0.21886181640625,-0.6553621433243155,-0.025173604223132133,-0.16576996952369807
1772648309911903000,0.228903076171875,-0.3531079199939966,-0.11091361308991908,-0.10373378458842634
1772648309921943800,0.23894384765625,-0.09173661893308162,-0.2958130843669176,0.03545037582665682
1772648309931983600,0.248983642578125,-0.3892655673071742,-0.34936756442189215,0.1023901148945093
1772648309942024700,0.259024658203125,-0.48499710109531874,-0.20767244409918784,-0.0056850598990917205
1772648309952065800,0.269065673828125,-0.4205938947677612,-0.1916670657157898,0.11188377329632639
1772648309962105900,0.27910595703125,-0.10567132852226495,-0.2768845120131969,0.21094459763765333
1772648309972146700,0.289146728515625,0.1516203020095825,-0.4556155237883329,0.3011865940988064
1772648309982187000,0.29918701171875,0.11209054791480302,-0.524063037070632,0.31852146752029653
1772648309992228000,0.30922802734375,0.0412505865380168,-0.43479602312147614,0.24655001789554953
1772648310002269000,0.31926904296875,0.04420534469038248,-0.30843291196525097,0.21419322417005895
1772648310012309000,0.32930908203125,0.14433189856708048,-0.2931085015833378,0.19551643462032078
1772648310022350000,0.33935009765625,0.35040976695120335,-0.369328986954689,0.3071728289015591
1772648310032391200,0.34939111328125,0.4814008301690221,-0.4725175587505102,0.4907368137910962
1772648310042431000,0.359430908203125,0.4564554817438125,-0.47542613967359065,0.5574214090541004
1772648310052471800,0.369471923828125,0.4059992599651217,-0.3843576292604208,0.585286590448767
1772648310062513000,0.379512939453125,0.35796442011445756,-0.2215250283628702,0.5700245777785777
1772648310072553000,0.389552978515625,0.27326193760186435,-0.10355915867388248,0.5084083718210458
1772648310082593800,0.39959375,0.20328589957803486,-0.02601297765672207,0.36815322117358446
1772648310092633900,0.4096337890625,0.2462514733403921,0.01823825200200081,0.17925912730246782
1772648310102675000,0.419675048828125,0.2207987599149346,0.04592880748212337,0.029434768798947332
1772648310112716000,0.429716064453125,0.0002867079868912697,0.03461071013212204,0.03471212467998266
1772648310122756000,0.439756103515625,-0.24003303721696137,-0.021230419555306433,0.09030746291279793
1772648310132797000,0.449796875,-0.4097065900504589,-0.10038052863776684,0.06729089059308171
1772648310142838000,0.459838134765625,-0.49062984628528356,-0.14803718282580375,0.023906799157708884
1772648310152878000,0.469878173828125,-0.40149171941280365,-0.2447837388753891,0.032107933530956506
1772648310162919200,0.479919189453125,-0.35775545353889465,-0.3304378230243921,0.04574219886884093
1772648310172960000,0.4899599609375,-0.25358926888257266,-0.4164601559638977,0.09797346749603748
1772648310183000000,0.5,-0.10575871454477309,-0.5515484253674745,0.23542262081205845
1772648310193041200,0.510041259765625,-0.10859598379731178,-0.6165577808946371,0.4946932963319122
1772648310203081000,0.5200810546875,-0.0196045719191432,-0.5654273131161928,0.6962829133860766
1772648310213121800,0.530121826171875,0.044565410174429415,-0.4427583803027868,0.7717829755283891
1772648310223163000,0.540162841796875,0.0852455033481121,-0.22657237488031387,0.7579946886725724
1772648310233203000,0.550202880859375,0.1385410402059555,0.01642564962208271,0.6667296327739953
1772648310243244000,0.560244140625,0.19792261897921562,0.2079489229530096,0.6556092499531805
1772648310253284900,0.570284912109375,0.27924393462091684,0.2723556364119053,0.6706380383893847
1772648310263325000,0.580324951171875,0.32940994128137824,0.2277998708486557,0.7006487073801457
1772648310273366000,0.590365966796875,0.3274254894658923,0.1422147602826357,0.7843436202853917
1772648310283406800,0.60040673828125,0.30522476357370615,0.06381167017519473,0.8444421151563525
1772648310293447000,0.610447021484375,0.21079145290255547,-0.0005909516304731368,0.9123303871206939
1772648310303488000,0.620488037109375,0.12505845829844475,-0.08344809853732585,0.9066980803221464
1772648310313528000,0.630528076171875,0.05563333215564489,-0.15128244835734367,0.8371846913740039
1772648310323569200,0.640569091796875,-0.01714490380734205,-0.18831717076599597,0.7172425531759857
1772648310333610000,0.65060986328125,-0.09662994393259286,-0.20309388413727283,0.6307232304997742
1772648310343649800,0.66064990234375,-0.15857698927968739,-0.2510083124786615,0.5751052420437336
1772648310353691000,0.67069091796875,-0.17041794146001338,-0.32624563203155993,0.5581665283329784
1772648310363732000,0.68073193359375,-0.1975216369628906,-0.38358781393170355,0.5481286800518632
1772648310373772000,0.69077197265625,-0.23074761473834512,-0.40918168939352034,0.5680072466067969
1772648310383812900,0.700812744140625,-0.20959055268019436,-0.4159451921790838,0.6218295838177204
1772648310393854000,0.71085400390625,-0.13456044613718987,-0.4131728048563003,0.7189481880500912
1772648310403894000,0.72089404296875,-0.11833645656704903,-0.41569852394163603,0.8455603055313229
1772648310413934800,0.730934814453125,-0.14193331299275158,-0.45402971590161323,0.9824955179758369
1772648310423975000,0.740974853515625,-0.09944967752844094,-0.48406069702804083,1.0751230943992733
1772648310434016000,0.75101611328125,-0.08857669359743595,-0.5055740251779556,1.1379659195423126
1772648310444057000,0.76105712890625,-0.16217501377165316,-0.4588233799189329,1.2005590077079833
1772648310454097200,0.77109716796875,-0.23791385310590266,-0.3228524824619293,1.1445135876201094
1772648310464138000,0.781137939453125,-0.22026158429831266,-0.2461386606156826,1.0791894670553506
1772648310474179000,0.791178955078125,-0.23863515311777592,-0.17974223464429379,1.0150943037636577
1772648310484219100,0.80121923828125,-0.2584106976896524,-0.1659603775292635,0.9706551503174007
1772648310494260000,0.811260009765625,-0.24056699796319006,-0.19969781195819378,0.937475203640759
1772648310504301000,0.821301025390625,-0.290523161265254,-0.2122702932834625,0.953280967798829
1772648310514340900,0.8313408203125,-0.3866746740311384,-0.16519114672243596,0.997286844394356
1772648310524382000,0.8413818359375,-0.5063952784329653,-0.11861118185520171,1.0265854195930064
1772648310534422000,0.851422119140625,-0.584000496160984,-0.14554068983495236,0.9487215509288013
1772648310544462800,0.861462890625,-0.5497853612177074,-0.3059165452301502,0.9397403720937668
1772648310554504000,0.87150390625,-0.610989040851593,-0.49775136872828,0.9860039644882083
1772648310564544000,0.8815439453125,-0.6666739570640027,-0.6288777487635612,1.0934709442555903
1772648310574585000,0.891585205078125,-0.703614425317943,-0.6441589045256376,1.1607726485036314
1772648310584626000,0.9016259765625,-0.7605756450764835,-0.5345487752497196,1.2317387204781174
1772648310594666000,0.911666015625,-0.7029154832683503,-0.2993149550080299,1.3091811488598584
1772648310604707000,0.92170703125,-0.5792872039034962,0.02485094814002514,1.4108224912136793
1772648310614748000,0.931747802734375,-0.5772334862440824,0.4724725505650043,1.4428715341642497
1772648310624788000,0.9417880859375,-0.7295856096595525,0.8923965832471847,1.3937874775215982
1772648310634829000,0.9518291015625,-0.8252113449856638,1.1034797125726938,1.4517187113560734
1772648310644869000,0.961869140625,-0.8883917315199971,1.125219835215807,1.5152404586739838
1772648310654910200,0.97191015625,-0.8822159654945134,1.1038935540705919,1.3699049360223114
1772648310664951000,0.981950927734375,-0.797980954363197,1.0615472812503575,1.2495616696774958
1772648310674990800,0.991990966796875,-0.6710439888417721,1.0339923348486424,1.2897183234989642
1772648310685032000,1.002031982421875,-0.5781631683096289,1.0179325959295034,1.3180664661049841
1772648310695072800,1.01207275390625,-0.5055453836053609,1.0312544343173504,1.201974281333387
1772648310705112800,1.02211279296875,-0.38776246926784513,1.0421399854689837,1.0068306255482136
1772648310715154000,1.03215380859375,-0.2668317584238946,1.099637650191784,0.7517910117268561
1772648310725195000,1.042195068359375,-0.09581818915829061,1.059944522228837,0.456755779864639
1772648310735235000,1.052235107421875,0.04737812950760126,0.902881152382493,0.16164105302542447
1772648310745276000,1.06227587890625,0.3063154814198613,0.6742062522649764,-0.14008081699386238
1772648310755316000,1.07231591796875,0.724474550256133,0.43100539866685866,-0.5350687074705958
1772648310765357000,1.082357177734375,0.882407104152441,0.10847615680992603,-1.0394185976810753
1772648310775398000,1.09239794921875,0.8027031605795025,-0.2731388957440853,-1.5524888238333165
1772648310785438000,1.10243798828125,0.7601958519786596,-0.6315718101531267,-2.016176887179166
1772648310795479000,1.11247900390625,0.7946709530323743,-0.9613076223880052,-2.3175327003650366
1772648310805520100,1.12252001953125,0.7044041143909097,-1.2187865921854972,-2.42380798612982
1772648310815560000,1.132559814453125,0.484897732374072,-1.3940110571444033,-2.3771077558837828
1772648310825600800,1.142600830078125,0.2988334551014006,-1.4044155467808246,-2.2710044656850394
1772648310835640800,1.152640869140625,0.03490472464263439,-1.1208043568611143,-2.0752574371792374
1772648310845682000,1.162681884765625,-0.1880021134674549,-0.6837912422120571,-1.8672779729574918
1772648310855723000,1.172722900390625,-0.2240890336319804,-0.2070388223707676,-1.7420828826673327
1772648310865763000,1.18276318359375,-0.3134069009855389,0.37557109621465207,-1.6093784396603703
1772648310875804000,1.192803955078125,-0.3712012105673551,0.9320803588598966,-1.455624778883904
1772648310885845000,1.202844970703125,-0.30055823306739327,1.2820751152694225,-1.2559228752724825
1772648310895885000,1.212885009765625,-0.15126491270065306,1.4421300681471825,-1.0076581624135375
1772648310905926000,1.22292578125,-0.031247078917920588,1.4476105453848838,-0.7483921630688011
1772648310915967000,1.232967041015625,-0.023445465256273744,1.2244383343368768,-0.5757400328159332
1772648310926007000,1.243007080078125,-0.08542670513391494,0.844924053454399,-0.5242483305096626
1772648310936048000,1.253048095703125,-0.11605214502215384,0.4489204100638628,-0.5100950097337364
1772648310946088200,1.263088134765625,-0.06219283680170774,0.048996962881088256,-0.5370486292414367
1772648310956129000,1.27312890625,-0.07586714188903569,-0.3386293127864599,-0.4528456206835806
1772648310966170000,1.283170166015625,-0.19596242482215165,-0.7396136671990156,-0.3783735864147544
1772648310976210200,1.293210205078125,-0.3798071263492107,-1.0092693970024584,-0.3329904301166534
1772648310986251000,1.3032509765625,-0.4537462227851152,-1.083635778939724,-0.2947087763868272
1772648310996292000,1.3132919921875,-0.31518735466152425,-1.1973948445886373,-0.11829875490516424
1772648311006332200,1.323332275390625,-0.24392682978510855,-1.3704273524612187,0.06618585196062922
1772648311016373200,1.333373291015625,-0.1757411823093891,-1.297527535945177,0.21681217449679968
1772648311026414000,1.3434140625,-0.23947277298569677,-1.1319061811119318,0.46805458799228067
1772648311036454100,1.3534541015625,-0.43888709182739255,-1.0816069034606217,0.6402263873822986
1772648311046495200,1.3634951171875,-0.5830787051409483,-1.0546300492078065,0.6484487106740474
1772648311056535300,1.373535400390625,-0.6021341187447309,-1.2289888372480868,0.46426849358230826
1772648311066576100,1.383576171875,-0.517481320592761,-1.2526818475246428,0.3531673950962722
1772648311076617200,1.3936171875,-0.5757569839507342,-1.2819763310700654,0.24749562818259
1772648311086657300,1.4036572265625,-0.665719578948617,-1.2693553344279527,0.1712625755906105
1772648311096698400,1.413698486328125,-0.6729498224630951,-1.2103566174924374,0.18145532217249274
1772648311106739200,1.4237392578125,-0.6819649035677313,-1.2012427521884441,0.23033801102414725
1772648311116779000,1.433779052734375,-0.7730641013801097,-1.2273878317922353,0.34263328773081303
1772648311126820000,1.443820068359375,-0.8087424407437444,-1.38374100754261,0.479491197155416
1772648311136861200,1.453861083984375,-0.7648176665604114,-1.5934879198282956,0.5394409312054514
1772648311146901200,1.4639013671875,-0.7327087101161479,-1.4486749597460031,0.631067660023272
1772648311156942000,1.473942138671875,-0.7679922049432992,-1.305793259987235,0.6276195653960108
1772648311166982100,1.483982177734375,-0.9048463149756193,-1.172307165083289,0.5754571242213249
1772648311177023200,1.494023193359375,-1.0862027068182825,-0.9327414531171321,0.50276832010746
1772648311187064000,1.50406396484375,-1.2424994762063026,-0.6984042894542217,0.4129479100592434
1772648311197104000,1.514104248046875,-1.2205103472381829,-0.3745353234261274,0.34148207186907525
1772648311207145200,1.524145263671875,-1.225795594164729,-0.08995850334465504,0.449537372918427
1772648311217186300,1.534186279296875,-1.3727981732457875,0.15834171921908854,0.6186138366416096
1772648311227226400,1.544226318359375,-1.375257256835699,0.49174657535552974,0.7965139505505562
1772648311237267200,1.55426708984375,-1.2461676433250308,0.6097825876712799,0.8736242243684827
1772648311247308300,1.564308349609375,-1.1694321941688657,0.4928916537374258,0.8411426352195441
1772648311257348400,1.574348388671875,-1.2085308633700012,0.14590718505978584,0.6997048506587743
1772648311267389200,1.58438916015625,-1.3527642699986695,-0.3045066784322262,0.5518069301731884
1772648311277429000,1.594428955078125,-1.5582196225702762,-0.7688444378584622,0.4646751746870577
1772648311287470000,1.604469970703125,-1.7468033353179693,-1.154703703853488,0.4627430375806987
1772648311297511200,1.61451123046875,-1.9660025510817765,-1.4084142610281705,0.37850583449229597
1772648311307551200,1.62455126953125,-2.2533973511934278,-1.204499123635888,0.12735811354294418
1772648311317592000,1.634592041015625,-1.4991785277977585,-0.0840904880940914,-0.5615639156863093
1772648311327633200,1.644633056640625,-0.571387390564382,1.515505685481429,-1.1629081992276011
1772648311337673200,1.654673095703125,-1.0892217623785136,2.854760485565662,-0.8822470912851392
1772648311347714300,1.66471435546875,-1.245997547455132,4.1484816149652,-0.07083762328922748
1772648311357755100,1.674755126953125,-0.8235691307365894,4.688810142660141,0.6733461283043026
1772648311367795200,1.684795166015625,-0.5093938757270574,4.2366286849737165,0.9462221353285014
1772648311377836300,1.694836181640625,-0.26521628605127334,3.262294992274046,0.15958777375742791
1772648311387876400,1.70487646484375,-0.33634295541495085,2.282377361962199,-0.6406605410158633
1772648311397917200,1.714917236328125,-0.3274234436392784,1.5538479833573102,-0.7655341442666947
1772648311407958300,1.724958251953125,0.0008946107521653174,1.0546043302446604,-0.8349043253518641
1772648311417998000,1.734998046875,0.24462357987761496,0.6249813258469105,-1.0091188826158641
1772648311428039200,1.7450390625,0.468002711674571,0.3172533472806215,-1.129951978304237
1772648311438080000,1.755080078125,0.9613920858010649,-0.03601005553603172,-1.1638447494253517
1772648311448120000,1.7651201171875,1.4045447261184454,-0.4390899209231138,-1.2927867711588739
1772648311458161200,1.7751611328125,1.6885750182330608,-0.854370511713624,-1.5500697799928485
1772648311468201200,1.785201171875,1.9748224018752574,-0.7772679828107356,-1.6053839631967246
1772648311478242000,1.795241943359375,2.30477448720932,-0.724593792721629,-1.4302486378259955
1772648311488283100,1.805283203125,2.724098215910792,-0.8111848654597997,-1.3584364704161882
1772648311498323200,1.8153232421875,3.040913171774149,-0.797407684519887,-1.2521892417021094
1772648311508364300,1.8253642578125,2.9967247782185673,-0.6826549316585063,-1.1534133717820048
1772648311518405000,1.835405029296875,2.7657246500238775,-0.48030806649625296,-0.9839866333164274
1772648311528445200,1.845445068359375,2.466705170831084,-0.15075696317851542,-0.9394783601567148
1772648311538486300,1.855486328125,2.08882521315217,0.19963877524733542,-1.0484833631463348
1772648311548527400,1.86552734375,1.7429440295413134,0.3780342714577913,-1.2975738593049346
1772648311558567200,1.875567138671875,1.5579150866657494,0.32226503796279427,-1.5824790345579385
1772648311568608300,1.885608154296875,1.2965826563104987,0.08479600601494312,-1.6177406098142266
1772648311578648000,1.89564794921875,0.791432117241621,-0.15803718331456185,-1.4010413941726088
1772648311588689200,1.905689208984375,0.497100503604114,-0.33383857137858863,-1.1336188302487133
1772648311598730000,1.91572998046875,0.29138211618214843,-0.39645021811425685,-0.8639129776932298
1772648311608770000,1.92577001953125,0.24953999349176884,-0.39432255843579767,-0.6712042939700186
1772648311618811100,1.93581103515625,0.3671475512623787,-0.37754911828935145,-0.47971667647436256
1772648311628852200,1.945852294921875,0.5532891315549612,-0.4103472260415554,-0.23209493769407272
1772648311638892300,1.955892333984375,0.6836489111319184,-0.4310819710344076,0.041097295672446486
1772648311648933000,1.96593310546875,0.7963844789519906,-0.427759548613429,0.2963423689380288
1772648311658974200,1.97597412109375,0.9244114316672086,-0.4388678026050329,0.5074154152609408
1772648311669014300,1.98601416015625,0.9840899475604296,-0.48403848519623277,0.6225761644013226
1772648311679055000,1.99605517578125,1.0036495112940669,-0.5306769022524357,0.6066938278757036
1772648311689096200,2.00609619140625,0.9461804881438612,-0.5578180071562528,0.5446072279274463
1772648311699136300,2.01613623046875,0.7987316266000271,-0.5630775351196528,0.49714390435442324
1772648311709177300,2.02617724609375,0.6688385877519846,-0.500843489524722,0.3257394360750913
1772648311719217400,2.036217529296875,0.5353752892017364,-0.34595454110801216,0.13590367743968962
1772648311729258200,2.04625830078125,0.42658407509326934,-0.1972217772334814,-0.04516702932938933
1772648311739299300,2.05629931640625,0.35733518230021,-0.10885083534121513,-0.2428516017690301
1772648311749339100,2.066339111328125,0.3121259212642908,-0.042676527687907216,-0.4097805320695042
1772648311759380200,2.076380126953125,0.246654501183331,0.020796119791269302,-0.41852760988771914
1772648311769421000,2.086421142578125,0.1653676723331213,-0.00019639935493469238,-0.32615883053094147
1772648311779461000,2.096461181640625,0.0999178795620799,-0.15177461578845977,-0.17592574509605766
1772648311789502200,2.106502197265625,0.022963526958227155,-0.369211498054862,0.01885813746601343
1772648311799542300,2.116542236328125,-0.0415530766159296,-0.5395896920263767,0.2171422832340002
1772648311809583000,2.1265830078125,-0.03315788097530603,-0.6387982542753219,0.42180049407854675
1772648311819624200,2.136624267578125,-0.02894727754294872,-0.660055561837554,0.6259276667863131
1772648311829664300,2.146664306640625,-0.08137479939460754,-0.7174222936570644,0.8336806287758052
1772648311839705300,2.156705322265625,-0.12172434543967246,-0.8013777571946382,0.9636647069081663
1772648311849746200,2.16674609375,-0.15154899033904073,-0.8640952023923396,1.0177316665299236
1772648311859786200,2.1767861328125,-0.13467530468851327,-0.815654704350233,0.9842318402491509
1772648311869827300,2.186827392578125,-0.06905161665529012,-0.7205284429788589,0.9751320034705102
1772648311879868200,2.1968681640625,-0.11934271100014447,-0.5989660101026296,1.0440974031470716
1772648311889908000,2.206907958984375,-0.1425727799400687,-0.4729442597299814,1.0883546241551636
1772648311899949000,2.216948974609375,-0.08103110052347183,-0.3493956214725971,1.1042281928524373
1772648311909990100,2.226990234375,-0.07403174315541983,-0.24843641616404055,1.1408705549426377
1772648311920030200,2.2370302734375,-0.11416340866610407,-0.14474164841175077,1.1695149040162562
1772648311930071000,2.247071044921875,-0.17126842080950735,-0.10348901604712009,1.1746595734283327
1772648311940111000,2.257111083984375,-0.3087631668329239,-0.12680091805160046,1.1708077203057705
1772648311950152200,2.267152099609375,-0.27973639431297775,-0.1862906333744526,1.1520990743130446
1772648311960193300,2.277193359375,-0.2382517067581415,-0.22233692926764487,1.0770132920600473
1772648311970233000,2.287233154296875,-0.27177842104583977,-0.13451134629845618,0.983723452335596
1772648311980273700,2.297273681640625,-0.19271730542108415,0.08539104929864406,0.9057863723047077
1772648311990314800,2.307314697265625,-0.1824912410914898,0.2706909180700779,0.8705076997831463
1772648312000354800,2.317354736328125,-0.21914602427184582,0.4143108689755201,0.8642712896116077
1772648312010395600,2.327395751953125,-0.34714725802391766,0.48526364307701586,0.8674832373954355
1772648312020435700,2.337435791015625,-0.3996607045933604,0.5063222131967544,0.8530370711527764
1772648312030476800,2.347476806640625,-0.5246420060023665,0.477324082249403,0.9067898502588272
1772648312040518000,2.357517822265625,-0.6081855277381837,0.4343582162261009,0.979413480181992
1772648312050557700,2.3675576171875,-0.6446452267378568,0.3205792768329382,1.0901941145420073
1772648312060598500,2.3775986328125,-0.6969505835145712,0.1457470260620117,1.279764646369964
1772648312070639600,2.3876396484375,-0.6952320891588926,-0.027048165923357008,1.4375741584084927
1772648312080679700,2.3976796875,-0.6905528453014791,-0.15190262608230112,1.5510959081701934
1772648312090720800,2.407720703125,-0.5636687790110707,-0.1535199981510639,1.6686102346993983
1772648312100761600,2.41776171875,-0.37216859429478644,-0.002877601262927055,1.8554466653883457
1772648312110801700,2.4278017578125,-0.4188764233253896,0.25433891820609567,1.8418933563321829
1772648312120842800,2.4378427734375,-0.1567487509392202,0.9227174872308969,1.7428193802483378
1772648312130882800,2.4478828125,-0.17357085253298282,0.9183943633347749,1.7473735364213585
1772648312140923600,2.457923583984375,-0.08470511286109686,1.181205341809988,1.545835503423959
1772648312150964700,2.46796484375,-0.04619184233248234,1.2925900795429943,1.3373708860337734
1772648312161004800,2.4780048828125,0.17079028190374373,1.3470505685269831,1.172412525153905
1772648312171046000,2.4880458984375,0.4124696250230074,1.3891092565774916,0.9267322758302092
1772648312181086700,2.498086669921875,0.6422299822896719,1.3899883774995803,0.6123997844323515
1772648312191126800,2.508126708984375,0.812159847971797,1.3108610647708177,0.040866555656492706
1772648312201168000,2.51816796875,1.0198977585226296,1.0929624102115632,-0.6631425680674612
1772648312211208700,2.528208740234375,1.1085540932275355,0.7232032151460647,-1.3751095189280806
1772648312221248500,2.53824853515625,1.0890129419334231,0.22335458187758922,-2.0250076977580784
1772648312231289600,2.54828955078125,0.980827146372199,-0.2836924384623766,-2.5697137098848817
1772648312241330700,2.55833056640625,0.780636436330527,-0.6503413925528526,-2.945820228150487
1772648312251370800,2.568370849609375,0.6535406269855797,-0.7941396226346492,-3.1181448800146576
1772648312261411600,2.57841162109375,0.6166933899730443,-0.7515612946242094,-3.0623516811221836
1772648312271451600,2.58845166015625,0.4364737470753491,-0.4888520229578018,-2.8058193445250392
1772648312281492700,2.59849267578125,0.11103300168588758,0.10334171653091907,-2.528099842992425
1772648312291533800,2.608533935546875,-0.11281959284171461,0.7304442723155021,-2.2930049928300082
1772648312301573600,2.61857373046875,-0.1598901177048683,1.0730623624771833,-2.1194904005289077
1772648312311614700,2.62861474609375,-0.04951075762212276,1.2842068666011095,-1.8142372876435517
1772648312321655800,2.63865576171875,0.02143529447764158,1.3575667018443345,-1.2293529943853616
1772648312331695900,2.64869580078125,0.02983838116377592,1.3043091589093208,-0.519555204257369
1772648312341736700,2.65873681640625,-0.002185235084593296,1.14668055639565,0.10932649002894758
1772648312351777800,2.66877783203125,-0.03845496447011828,0.8772498675197362,0.4529772842392325
1772648312361817900,2.67881787109375,-0.11494418378025292,0.6771750389426946,0.4955110424555838
1772648312371859000,2.68885888671875,0.026320728431642054,0.5807733508080244,0.4338128573030233
1772648312381898800,2.698898681640625,0.43603345596194265,0.38976153413057324,0.2675802387036383
1772648312391939600,2.708939697265625,0.3901850202396512,0.13720657673180103,0.05895341648906469
1772648312401980700,2.718980712890625,-0.0174260588362813,-0.020986673927307128,-0.17548823046162723
1772648312412020700,2.729020751953125,-0.06337415554076432,-0.01018938558101654,-0.4907721773654222
1772648312422061600,2.7390615234375,0.15281769510060547,-0.07164601706266403,-0.6878406637333333
1772648312432102700,2.7491025390625,0.2535503981769085,-0.30121640471518035,-0.7804223551884293
1772648312442142700,2.759142822265625,0.30913375371098517,-0.6436404336094856,-0.7931187551543116
1772648312452183800,2.769183837890625,0.33034897569715976,-0.9240776696681976,-0.8108416049800813
1772648312462224600,2.779224609375,0.3516752568423748,-1.151691662555933,-0.8539962715737521
1772648312472264700,2.7892646484375,0.20391542965322731,-1.295817224895954,-0.8023175222627819
1772648312482305800,2.799305908203125,0.05048340204656124,-1.2740087131917477,-0.7614920292690396
1772648312492345900,2.809345947265625,-0.04322159435003996,-1.1379682576298713,-0.5376967178866267
1772648312502386700,2.81938671875,-0.22431407455950975,-1.0358236419290303,-0.2979977349296212
1772648312512427800,2.829427734375,-0.40393297508507964,-1.0341372962772846,-0.27790187236219643
1772648312522467600,2.839467529296875,-0.4899848263800144,-1.0287661246329545,-0.3882948225788772
1772648312532508700,2.8495087890625,-0.5423007045507431,-1.053608889466524,-0.4764717032037675
1772648312542549500,2.859549560546875,-0.5712175869554281,-1.1411141544401644,-0.5180979911863803
1772648312552589600,2.869589599609375,-0.5975345159947871,-1.2325427303373813,-0.4326194097347557
1772648312562630700,2.879630615234375,-0.5051823955118656,-1.4050877469539642,-0.25548297367468475
1772648312572671700,2.889671630859375,-0.35619857948571443,-1.5194716665029524,0.0000729191057384014
1772648312582711800,2.8997119140625,-0.23423954850733278,-1.608470969426632,0.17769830772653222
1772648312592752600,2.909752685546875,-0.21628683544844388,-1.5338251860260963,0.29938582828715443
1772648312602792700,2.919792724609375,-0.2609121591165662,-1.708906443122029,0.2663495278649032
1772648312612833800,2.929833740234375,-0.2519184130609035,-1.5916607044011353,0.4181492780946195
1772648312622874600,2.93987451171875,-0.29226445197463036,-1.4353314940482378,0.48541138098463416
1772648312632914700,2.949914794921875,-0.5185267379924655,-1.2669886052966117,0.5192284565210342
1772648312642955800,2.959955810546875,-0.8735238327339291,-0.9485299738794565,0.5527199533648789
1772648312652996900,2.969996826171875,-1.130486669702828,-0.5024655377686024,0.5281441689044237
1772648312663037000,2.980036865234375,-1.1960048515349626,-0.05956745673418045,0.48672041775658725
1772648312673077800,2.990077880859375,-1.2054758597135544,0.25870588124394417,0.5995823884353041
1772648312683118800,3.000118896484375,-1.022962991312146,0.3752893566638231,0.6528003300122917
1772648312693158700,3.01015869140625,-1.0376830060601234,0.533210804644227,0.8861375228524208
1772648312703199700,3.02019970703125,-1.133257887981832,0.6954927859216928,1.1020284908510745
1772648312713240600,3.030240478515625,-1.1574994720518588,0.6726449942976236,1.1011347568817436
1772648312723280600,3.04028076171875,-1.2244973710477352,0.5056868379026651,0.8733771177396178
1772648312733321700,3.05032177734375,-1.2211270178318023,0.15016016632914542,0.5192383933931589
1772648312743361800,3.06036181640625,-1.1998600656583904,-0.26638474530875683,0.37600934150144455
1772648312753402600,3.070402587890625,-1.4415388242557643,-0.584352962860465,0.4078548247039318
1772648312763443700,3.080443603515625,-1.6826535192295908,-0.8403525077551602,0.4222364012777805
1772648312773483800,3.09048388671875,-1.8368731900826096,-0.9966191742658614,0.3633997430361807
1772648312783524900,3.10052490234375,-1.9410913971871135,-1.0818091480344534,0.4352472740203142
1772648312793565700,3.110565673828125,-2.078151258924603,-1.016267877587676,0.37523908778131004
1772648312803605800,3.120605712890625,-1.9269436293691395,-0.37483284506797787,0.031160131286829706
1772648312813646800,3.130646728515625,-1.1412877574414013,1.2171020000994204,-0.5347504353016614
1772648312823687700,3.140687744140625,-1.000403953501582,2.897183915275335,-0.8009078015953301
1772648312833727700,3.150727783203125,-1.4767644514158367,4.280252722644805,-0.7164844282850623
1772648312843768800,3.160768798828125,-0.764641140949726,5.084410465946793,-0.40634997309893367
1772648312853808600,3.17080859375,-0.20542320386767385,4.582703053069115,-0.45328401210084557
1772648312863849700,3.180849609375,0.29085575422048565,3.518359419098496,-0.8667387026384472
1772648312873890600,3.190890625,0.8596718329921365,2.087250511181354,-1.4742410704180597
1772648312883930600,3.2009306640625,1.087939905874431,0.6413198817074298,-1.9215745035514233
1772648312893971700,3.2109716796875,0.8597913677185773,-0.21118074448108673,-2.209205742767453
1772648312904012800,3.2210126953125,0.6871531198605895,-0.4752040213555097,-2.3525810712620614
1772648312914052600,3.231052490234375,0.9432830131366848,-0.7645470329254865,-2.1697702428273855
1772648312924093700,3.24109375,1.2568684855595231,-1.0594137763530016,-1.9460892054744063
1772648312934134800,3.251134765625,1.6402195681259035,-1.0932464878499508,-1.6846180973008273
1772648312944174800,3.2611748046875,1.9134432195439934,-0.9062859923899174,-1.4150265187747775
1772648312954215700,3.271215576171875,2.1565476270303128,-0.5539847126036882,-1.0727487664833664
1772648312964256800,3.2812568359375,2.5330057352125643,-0.278697114393115,-0.6182245450630783
1772648312974296800,3.291296875,2.83354058740437,-0.18458733658790588,-0.24409970213398335
1772648312984338000,3.301337890625,2.92802212113142,-0.06601181056797505,-0.011808218954503536
1772648312994378000,3.3113779296875,2.7908400943189857,0.12075228553712368,0.24587051119878886
1772648313004419000,3.321419189453125,2.474305124440789,0.3952922802507877,0.27741511175855993
1772648313014460200,3.331460205078125,2.431357670857012,0.5931348197311163,0.0522694086804986
1772648313024500200,3.341500244140625,2.101757175439596,0.6513613832503556,-0.3533471355773508
1772648313034541000,3.351541015625,1.7638360109224915,0.6568032820433378,-0.7129831421658396
1772648313044582100,3.36158203125,1.3773749796420336,0.5852624789208173,-0.934154388654977
1772648313054622200,3.371622314453125,0.9861132700815797,0.4727513675063848,-1.0802100422747432
1772648313064663300,3.381663330078125,0.5572378691807389,0.28822482119500636,-1.1196991720981895
1772648313074704100,3.3917041015625,0.2730316359773278,0.017307693153619765,-1.0335894531361758
1772648313084744200,3.401744140625,0.2723658655449748,-0.36363691279292104,-0.8675592252410947
1772648313094785300,3.411785400390625,0.2962672578752041,-0.7006967843055725,-0.7395058229103684
1772648313104825000,3.4218251953125,0.459688472315669,-0.9045826956033706,-0.6239418997965752
1772648313114866000,3.431865966796875,0.615556494897604,-1.1075772110193967,-0.46992505803927775
1772648313124907000,3.441906982421875,0.7266086396753788,-1.1900702007889747,-0.2780751831024885
1772648313134947000,3.451947021484375,0.7069666583552956,-1.069938677498698,-0.05600844907835126
1772648313144988200,3.46198828125,0.6809756002694368,-0.859702520391345,0.20805004523992537
1772648313155029000,3.472029052734375,0.6253665257722139,-0.6299152751177549,0.3840636147499084
1772648313165069000,3.482069091796875,0.5884758880093693,-0.39777357567250726,0.4611072530724108
1772648313175110100,3.492110107421875,0.5421700639083982,-0.23741817854344843,0.48748321882262824
1772648313185151000,3.50215087890625,0.43566170004010196,-0.09878244579136371,0.4990492995843291
1772648313195191000,3.51219091796875,0.37152737378180023,0.0032137013494968414,0.4862327803701162
1772648313205232000,3.522232177734375,0.26455752988159653,-0.03440612747073173,0.4346498926490545
1772648313215272200,3.532272216796875,0.1630190633803606,-0.2156868237286806,0.39946328232511874
1772648313225313300,3.542313232421875,0.12526245643794537,-0.46503684760630126,0.30002807171344753
1772648313235354000,3.55235400390625,0.08002338478565216,-0.6364180811405181,0.24021365448087453
1772648313245394000,3.562393798828125,0.06083148532062769,-0.7511351781666279,0.21604177464619279
1772648313255435000,3.57243505859375,0.008292904309928417,-0.7944289609700441,0.25502529303506016
1772648313265476000,3.58247607421875,-0.05878507418483495,-0.8375415419876575,0.4283968236036598
1772648313275516200,3.59251611328125,-0.08101414938867092,-0.8759837931066751,0.6285764277294278
1772648313285557000,3.602556884765625,-0.09767331550568342,-0.8861638263374566,0.8321762155622243
1772648313295598000,3.61259814453125,-0.131943541637063,-0.8519237030833959,1.0004729270845651
1772648313305638100,3.62263818359375,-0.13506255044043064,-0.79326167075634,1.174091272021085
1772648313315679000,3.632678955078125,-0.053587505541741846,-0.8123375426262617,1.3286660399220882
1772648313325720000,3.642719970703125,0.039132571470737454,-0.8331079434543848,1.4698250075414776
1772648313335760100,3.652760009765625,0.11101824250817298,-0.8555009770482778,1.5668090256087481
1772648313345801200,3.66280126953125,0.24851006592214106,-0.7972761670947074,1.6224448419824242
1772648313355841300,3.67284130859375,0.348854938724637,-0.6863011792063712,1.582137819904834
1772648313365882000,3.682882080078125,0.28576456856131555,-0.544331918117404,1.4702667599596082
1772648313375923200,3.692923095703125,0.007695230677723884,-0.37037235852777955,1.2890144130133092
1772648313385963300,3.70296337890625,-0.22007336824983356,-0.22253040601313112,0.9526727727726101
1772648313396004000,3.713004150390625,-0.28925796363502737,-0.14249591531157493,0.47796837150231003
1772648313406045200,3.723045166015625,-0.16112696602344512,-0.130279992339015,0.11922551436126232
1772648313416085000,3.7330849609375,-0.009734335289895533,-0.2345481760650873,-0.01910392892062664
1772648313426126000,3.7431259765625,0.10697247424870729,-0.375110492965579,0.012604191637784241
1772648313436167000,3.7531669921875,0.08014876473098993,-0.3843611363917589,0.19474793446585534
1772648313446207000,3.76320703125,0.0886263779580593,-0.16753391045629978,0.5067169116027653
1772648313456248000,3.773248046875,-0.06540069293230771,0.15091303052306174,0.7804074498802424
1772648313466288000,3.7832880859375,-0.2700780468687415,0.3761608788013458,1.0432932471573353
1772648313476329200,3.7933291015625,-0.37139907122701404,0.4153618393331766,1.3433787481464445
1772648313486370000,3.8033701171875,-0.4545487713396549,0.4444622616112232,1.5889786257103085
1772648313496410000,3.81341015625,-0.41571868994683026,0.5823813705265521,1.817417525114864
1772648313506451200,3.823451171875,-0.16280600515156984,0.8398387130141258,1.9592818645246326
1772648313516492000,3.833491943359375,-0.311280702611804,1.3537661405175923,1.7641224266484379
1772648313526532000,3.843531982421875,-0.47095688530504703,1.9660440521359444,1.334683838906884
1772648313536573200,3.8535732421875,-0.024940233858674762,2.169389865207672,1.4087716961637138
1772648313546614300,3.8636142578125,-0.07580021413266658,2.1494185058027506,1.403642808842659
1772648313556654300,3.873654296875,-0.1382607619598508,2.16320153196156,1.0658411790519953
1772648313566695200,3.883695068359375,-0.04481587780416012,2.0718694021761417,1.0780687924623489
1772648313576736300,3.893736328125,-0.10944704766869544,2.0576076525896787,1.1060231134451926
1772648313586776000,3.903776123046875,0.06960267466679215,2.1924165205299855,0.829833305697888
1772648313596817000,3.91381689453125,0.17454130500033496,2.1944489031404255,0.511799621694535
1772648313606857000,3.92385693359375,0.1353274849869311,1.9479840793102978,0.07416150701493024
1772648313616898000,3.93389794921875,0.440626336710155,1.4588976630747317,-0.3367283014707267
1772648313626939100,3.943939208984375,1.0000567474991082,0.8940712384611368,-0.7313520348101854
1772648313636979200,3.953979248046875,1.291041096535325,0.3795195415794849,-1.092204723712057
1772648313647020000,3.96402001953125,1.2070195820242167,-0.08415946167707443,-1.3490548940867184
1772648313657061000,3.97406103515625,0.9678859778650104,-0.48224049586355683,-1.6424544875711202
1772648313667101200,3.98410107421875,0.8303228427805006,-0.7378817288398742,-2.0603128198951484
1772648313677142000,3.99414208984375,1.037885981286317,-0.9230360516607761,-2.5915830118656156
1772648313687183000,4.00418310546875,1.1392840164035558,-1.0324795921981333,-2.8525568380415436
1772648313697223200,4.01422314453125,0.8245411906391382,-1.003899394401908,-2.785321038636565
1772648313707264300,4.02426416015625,0.3423831123620272,-0.8083937734365463,-2.56023305709511
1772648313717305000,4.03430517578125,0.3334809901125729,-0.6334855348199605,-2.2856983230784533
1772648313727345000,4.044344970703125,0.36453883006870746,-0.41647476901113983,-1.9691035858370363
1772648313737386000,4.054385986328125,0.33569209029078484,-0.08649228853881359,-1.5933599095344542
1772648313747426000,4.064426025390625,0.1147907467842102,0.3555921380251646,-1.0705847203172743
1772648313757467100,4.074467041015625,-0.09576748188436031,0.8398626784116029,-0.5404398791149259
1772648313767508000,4.084508056640625,-0.11941314588785171,1.2311042219668626,-0.16307970752641557
1772648313777548000,4.094548095703125,-0.14964680997952817,1.4814163688749074,0.05388108166083693
1772648313787589000,4.104589111328125,-0.17132321973666548,1.572291402542591,0.030315789417177438
1772648313797630000,4.1146298828125,-0.2530152683869004,1.3915309307664632,-0.13077698207572103
1772648313807670000,4.124669921875,-0.5121700624421238,1.0644143611192702,-0.2614595638662576
1772648313817711000,4.134711181640625,-0.4976978849753737,0.7229068625479936,-0.4340678549773991
1772648313827752200,4.144752197265625,-0.336685777503252,0.4102414275795221,-0.7527515273220836
1772648313837792300,4.154792236328125,-0.2664595641106367,0.018931494963169097,-0.9099645347721874
1772648313847833000,4.1648330078125,-0.29033377617299555,-0.5041021990597248,-0.9832217864237726
1772648313857874200,4.174874267578125,-0.2592699448674917,-0.9675362876445055,-1.067968400339037
1772648313867914200,4.184914306640625,-0.1370066702455282,-1.3323662096142768,-1.0418756354443728
1772648313877955000,4.194955078125,-0.08680617679357529,-1.590033395460248,-0.7981203628338873
1772648313887995000,4.204994873046875,-0.09190817610770463,-1.7438725425630808,-0.5281503063842654
1772648313898036000,4.215035888671875,-0.0872667800426483,-1.7344728460550307,-0.2854550642207265
1772648313908077000,4.2250771484375,-0.11863923890590668,-1.4523007490277289,-0.05382964373454451
1772648313918117000,4.2351171875,-0.2022261613920331,-0.9893085589915513,0.2049867121465504
1772648313928158000,4.245157958984375,-0.3553627131834626,-0.6227893687605858,0.4605170320942998
1772648313938199000,4.255198974609375,-0.4479699774712324,-0.450803739592433,0.47384208535253997
1772648313948239000,4.265239013671875,-0.40027532936036586,-0.41612171778976914,0.3017377982407808
1772648313958280200,4.2752802734375,-0.3340986836194992,-0.5495931996464729,0.07087810143008828
1772648313968321000,4.285321044921875,-0.29779198322445155,-0.9212252028465271,-0.15846651464253664
1772648313978361000,4.295361083984375,-0.24509470452070234,-1.1392682343125342,-0.2549986972890794
1772648313988402000,4.30540185546875,-0.2642500713676214,-1.3059002274930476,-0.23813304881453512
1772648313998443000,4.315443115234375,-0.24240531930625436,-1.455364812773466,-0.21416823585927486
1772648314008482800,4.32548291015625,-0.22260522481501102,-1.6072516567647457,-0.24450536032542586
1772648314018524000,4.33552392578125,-0.2006403535053134,-1.7712644073575734,-0.3769176885180175
1772648314028565000,4.34556494140625,-0.13893676152527332,-1.6751877133935689,-0.49624651712328194
1772648314038605000,4.35560498046875,-0.1194569850295782,-1.5085732558697462,-0.6358923037007451
1772648314048646000,4.36564599609375,-0.23161095356941222,-1.3354343650132416,-0.7412798468455671
1772648314058686000,4.37568603515625,-0.4368339586898684,-1.0685124440878628,-0.8309023962341249
1772648314068727000,4.38572705078125,-0.5793047395601868,-0.6689081458568572,-0.7540785381421446
1772648314078768000,4.39576806640625,-0.6660311291158199,-0.5473012893170118,-0.5337755989201367
1772648314088808000,4.405807861328125,-0.7233674657970667,-0.49918812353312964,-0.34558833814412354
1772648314098849000,4.41584912109375,-0.6627595600992441,-0.2088373962253332,-0.15688538293093443
1772648314108890000,4.42589013671875,-0.6215183259114623,0.1875976243197918,0.03641527533605694
1772648314118930000,4.435929931640625,-0.7552201093927026,0.5539338591992855,0.25535481725037096
1772648314128970800,4.445970703125,-0.8402212825909257,0.6941758581042289,0.26930735475718975
1772648314139011800,4.45601171875,-0.8571703715652227,0.7566916432499885,0.25066549039036035
1772648314149052000,4.466052001953125,-0.9380199780419468,0.5627016875445843,0.186550014963001
1772648314159093000,4.476093017578125,-1.186173777872324,0.2975678190797567,0.2879780068270862
1772648314169133800,4.4861337890625,-1.4260308740004897,-0.033460955575108524,0.4280522479496896
1772648314179174000,4.496173828125,-1.5461717496410012,-0.4004863417625427,0.4848062546983361
1772648314189215000,4.506215087890625,-1.3402113701567053,-0.6625532238721847,0.5278527847424149
1772648314199255000,4.516255126953125,-1.242077159141004,-0.9435784889519214,0.7029280504889786
1772648314209296000,4.5262958984375,-1.3335618491396306,-1.0783645605385304,0.8839308065883815
1772648314219337000,4.5363369140625,-1.7076657954111694,-0.715306324416399,0.9288939839087426
1772648314229377000,4.546376953125,-1.2998141855776308,0.5713152021110057,0.5994594927079975
1772648314239418000,4.556418212890625,-0.5885454461142421,2.10219732042253,0.11883066982477902
1772648314249459000,4.566458984375,-0.7327820676133037,3.53064314661026,-0.20387655894756315
1772648314259499000,4.5764990234375,-0.9341524889588355,4.828291094064713,-0.18947817736938594
1772648314269540000,4.5865400390625,-1.2422720971912145,5.012115045064688,0.231851045935601
1772648314279581200,4.596581298828125,-1.321834001944959,4.023707234305143,0.537924535293132
1772648314289621000,4.60662109375,-1.050830072402954,2.4816490574628114,-0.026641192557662723
1772648314299661800,4.616661865234375,-0.8077680427536368,0.9346686217874288,-0.8075720817901194
1772648314309703000,4.626702880859375,-0.6721504887789488,-0.1677683037340641,-1.4062030147194862
1772648314319743000,4.636742919921875,-0.449044913226366,-0.6850859581977129,-1.5697377725370227
1772648314329783800,4.64678369140625,-0.33527561844438314,-0.8995920477092265,-1.4447789752207696
1772648314339825000,4.656824951171875,0.0692971158489585,-1.0480132614165545,-1.4154495664924382
1772648314349865000,4.666864990234375,0.5761074048236012,-1.0047580570578574,-1.519103125451505
1772648314359906000,4.676906005859375,1.0795137305736542,-0.7072633032143115,-1.6560308852419257
1772648314369947000,4.68694677734375,1.640806135842204,-0.47792964692711826,-1.6118655803009867
1772648314379987000,4.696987060546875,1.9958067377150057,-0.4549643664032221,-1.38302774470672
1772648314390028000,4.707028076171875,2.1656305126741526,-0.48574762720167636,-1.2231311972610652
1772648314400068000,4.717068115234375,2.19995188447088,-0.3183949185311794,-1.170327535573393
1772648314410109000,4.72710888671875,2.3738310723006726,-0.07010229475200176,-1.0949668819017708
1772648314420150000,4.73714990234375,2.386821486777067,0.10564356373250484,-0.9982214948959648
1772648314430190000,4.747190185546875,2.289169798581302,0.26893559883534907,-1.0138738220579921
1772648314440231200,4.757231201171875,2.027534001365304,0.45091304518580433,-1.1032008956313133
1772648314450272000,4.76727197265625,1.8296847398832439,0.5727098713397979,-1.1939401740901172
1772648314460311800,4.777311767578125,1.7334066781282425,0.5760194342792034,-1.4188169970989226
1772648314470353000,4.787352783203125,1.6340668907150626,0.5034679928094148,-1.7342302694708107
1772648314480394000,4.79739404296875,1.5035738401472567,0.3790267896264791,-1.8518872193410991
1772648314490434000,4.80743408203125,1.2059879008889198,0.19631050760746002,-1.7193752301663159
1772648314500475000,4.817474853515625,0.8861804852113128,0.014326631516218184,-1.365155695668608
1772648314510516000,4.827515869140625,0.6103267775505781,-0.07184124737381935,-0.9713992466829716
1772648314520556000,4.83755615234375,0.37911972860693927,-0.07046469832360744,-0.5494872550539672
1772648314530596900,4.847596923828125,0.33795068287253377,-0.13983166453838347,-0.29281594837754965
1772648314540638000,4.857637939453125,0.5406505992561579,-0.30549685851335523,-0.14507161101847887
1772648314550678000,4.867677978515625,0.7300164022922515,-0.5646224264740943,-0.056368660692870616
1772648314560719000,4.877718994140625,0.8854001484885812,-0.8201946858674287,-0.04141483718901873
1772648314570759200,4.88775927734375,0.9887599851980805,-0.943624081659317,0.0015842004515230655
1772648314580800000,4.897800048828125,0.9828121827095746,-0.9706488667070865,0.09304711700975894
1772648314590841000,4.907841064453125,0.8947714956849813,-0.8731202203691005,0.1653703026816249
1772648314600881000,4.917880859375,0.7106175820782781,-0.6795978821754455,0.19101941546201706
1772648314610922000,4.927921875,0.5850929675728083,-0.49747605891823765,0.164062727214396
1772648314620963000,4.937963134765625,0.4093061925560236,-0.3480588199108839,0.12662483083233236
1772648314631003000,4.9480029296875,0.30066286248564716,-0.2020885064870119,-0.0024972236432135105
1772648314641044000,4.9580439453125,0.3469374146655202,-0.10100713610351085,-0.19142302782684564
1772648314651084800,4.968084716796875,0.3466232341498136,-0.08702069632709025,-0.33467356089800593
1772648314661124900,4.978124755859375,0.3435574168384075,-0.17526479696929453,-0.46710576283484695
1772648314671166000,4.988166015625,0.23274580281823873,-0.24108663792312143,-0.511346324969083
1772648314681207000,4.99820703125,0.104503746047616,-0.2961614594131708,-0.38453620069772004
1772648314691247000,5.0082470703125,-0.00954933411180973,-0.3490834867835045,-0.2519207511484623
1772648314701288000,5.018287841796875,-0.11116057358831166,-0.3895592895567417,-0.054340369735658166
1772648314711329000,5.0283291015625,-0.1309428401619196,-0.4587041374534368,0.15282237127572298
1772648314721369000,5.038369140625,-0.12616817310601472,-0.5302051930874586,0.414181543507427
1772648314731410000,5.048409912109375,-0.17637129690647124,-0.5791752679616212,0.6447282288461923
1772648314741451000,5.058450927734375,-0.1681450280919671,-0.5997574527412652,0.8334460893675685
1772648314751491000,5.068490966796875,-0.07374269708096981,-0.646735477015376,0.9263627118654548
1772648314761532200,5.0785322265625,0.02016922006458044,-0.6811252378731966,0.967491425589472
1772648314771572000,5.088572021484375,0.10205898324400187,-0.6841390327364206,0.944593803474307
1772648314781612800,5.09861279296875,0.1081985089123249,-0.654852147975564,0.8803132006131112
1772648314791654000,5.10865380859375,0.06740911014527082,-0.6063941142767667,0.7578134868867695
1772648314801694000,5.11869384765625,0.08046367589905858,-0.5385597644567489,0.6713876877129078
1772648314811735000,5.128735107421875,0.10871376495808362,-0.4748959783196449,0.5330995993547141
1772648314821776000,5.13877587890625,0.11963292611837387,-0.32319033611416814,0.32492373577803374
1772648314831816000,5.14881591796875,0.004892448216676712,-0.15089432582259177,0.22191943450793622
1772648314841857000,5.15885693359375,-0.26195173129737376,-0.0604015694707632,0.2384150806263089
1772648314851897900,5.16889794921875,-0.5379980389207601,-0.05031739782989025,0.3010425094529986
1772648314861938000,5.17893798828125,-0.5633621972799301,-0.11211188296377658,0.35168241723552346
1772648314871979000,5.18897900390625,-0.5092796016976237,-0.25185703826248645,0.40861543381288645
1772648314882020000,5.19902001953125,-0.4818465281099081,-0.3720885147958994,0.5613264536686241
1772648314892060200,5.20906005859375,-0.46190366414710876,-0.4196574907004833,0.785907070209831
1772648314902101000,5.21910107421875,-0.38013124373704194,-0.29388766926229,1.0462385068289934
1772648314912142000,5.22914208984375,-0.3945277256190777,-0.06075520521402358,1.3166814414873718
1772648314922182100,5.23918212890625,-0.43577670472189783,0.18991700717806814,1.5451476672902702
1772648314932223000,5.249222900390625,-0.43429158073067664,0.36608839759826656,1.6722472760275005
1772648314942264000,5.25926416015625,-0.46406522609516976,0.44415188048779963,1.7860541263408958
1772648314952303900,5.269303955078125,-0.4783037409365177,0.47895314475595946,1.8554351210810243
1772648314962345000,5.279344970703125,-0.4922486796587705,0.5574257929682731,1.8886125835396348
1772648314972385000,5.289385009765625,-0.27193536517322064,0.7905863140672444,1.8059842769525944
1772648314982426000,5.299426025390625,-0.6761250914983451,1.1255360615581274,1.4320451658539473
1772648314992467200,5.30946728515625,-0.9589315409064292,1.5448521914750337,1.1158777141138911
1772648315002507300,5.31950732421875,-0.907636822476983,1.8080197283029555,1.1956645136646926
1772648315012548000,5.329548095703125,-0.879067584466189,1.9583464833706616,0.9982019134126603
1772648315022589200,5.339589111328125,-0.697309918346256,1.7595687088668346,0.9746168935552239
1772648315032629200,5.349629150390625,-0.1861841042600572,1.3436316999942064,1.3191639059528708
1772648315042670300,5.35967041015625,0.07980243551135063,1.0606757591128348,1.55849683207646
1772648315052711200,5.369711181640625,0.17950506488755344,1.08907007894814,1.5776659351877866
1772648315062751200,5.379751220703125,0.23053148776963353,1.1962392448127268,1.3694547080367803
1772648315072792300,5.389792236328125,0.2031179956652224,1.2385621367573738,0.8915326598942279
1772648315082833400,5.39983349609375,0.14524623693302272,1.1408376755863427,0.24337781760022043
1772648315092873200,5.409873291015625,0.16614289448931813,0.8922305790305137,-0.43919060481861233
1772648315102914300,5.419914306640625,0.22400310891419647,0.5390215367496013,-0.9030296209424734
1772648315112955400,5.429955322265625,0.4214098873257637,0.1518342370212078,-1.4446809216737746
1772648315122995200,5.4399951171875,0.597556289435178,-0.3186649676442146,-2.0891573677159845
1772648315133036000,5.4500361328125,0.5322114183433354,-0.7786860329151153,-2.4595728347331285
1772648315143077000,5.4600771484375,0.4384574682384729,-1.1072101312726736,-2.621012519967556
1772648315153117200,5.4701171875,0.4265858286589384,-1.3457441621035338,-2.705758257099986
1772648315163158300,5.480158203125,0.4390265002980828,-1.4245447270959615,-2.6644173619300124
1772648315173199000,5.49019921875,0.32103228129744527,-1.2640461221039294,-2.4004646660737694
1772648315183239200,5.5002392578125,0.21571692660599945,-0.9227987357735633,-2.054079332333058
1772648315193280300,5.5102802734375,0.02551262691915035,-0.48163259309828277,-1.5870437121249734
1772648315203321300,5.5203212890625,0.009789718738943338,-0.053821022036671634,-1.1619136352322994
1772648315213361200,5.530361083984375,0.19480258726254104,0.3006523410916328,-0.8298080251261591
1772648315223402200,5.54040234375,0.2380924245432019,0.6271615924954413,-0.47858971827104685
1772648315233442300,5.5504423828125,0.16055355004966257,0.8508522744596004,-0.08791136155650019
1772648315243483400,5.5604833984375,-0.0014706570744514465,0.9681985509455203,0.18983532024398445
1772648315253524200,5.570524169921875,-0.11352759498059749,1.0352660080462694,0.29398806089684365
1772648315263564300,5.580564208984375,-0.17651508929133414,1.1084914032548665,0.15643062490075826
1772648315273605400,5.59060546875,-0.30766397341936824,1.0971610309451818,0.02316723283678293
1772648315283646500,5.600646484375,-0.4465852451145649,1.02485801127851,0.05386690700501203
1772648315293686300,5.610686279296875,-0.45143093158006664,0.8027192349314689,-0.055229135268926616
1772648315303727000,5.62072705078125,-0.3746725399397313,0.4881020813733339,-0.2011731452077627
1772648315313768200,5.630768310546875,-0.23543138864040372,0.16247545802295207,-0.3091374069727957
1772648315323808300,5.640808349609375,-0.0699304453164339,-0.2644938169956207,-0.3346516413271427
1772648315333849000,5.65084912109375,-0.024157412917912006,-0.7848100687533617,-0.16783742344751953
1772648315343890200,5.66089013671875,-0.0048363341152668,-1.21426823797822,-0.010336538966745138
1772648315353930200,5.67093017578125,0.007211246553063392,-1.4307757304400204,0.06852569308504462
1772648315363971300,5.680971435546875,0.0019449965879321097,-1.421404675504565,0.13820669368505478
1772648315374012200,5.69101220703125,0.012839607828855513,-1.3046961124002934,0.21188786983713506
1772648315384052200,5.70105224609375,-0.09285393252521752,-1.2240823605060576,0.18832023950591684
1772648315394093300,5.71109326171875,-0.2548366385951638,-1.143642211613059,0.14963833441212773
1772648315404134400,5.721134521484375,-0.3959469447672367,-1.1112456703990696,0.047063510600477455
1772648315414174200,5.73117431640625,-0.4785562543928623,-1.108445810547471,-0.14756474300846456
1772648315424215300,5.74121533203125,-0.5153218044713139,-1.1429776102244853,-0.4113758384369314
1772648315434256400,5.75125634765625,-0.5009285374596715,-1.2262351546257733,-0.637511137074232
1772648315444296200,5.761296142578125,-0.467152232325077,-1.3621148666679859,-0.7406323427222669
1772648315454337000,5.7713369140625,-0.4948036248385906,-1.551466641178727,-0.7086226088687777
1772648315464378000,5.781378173828125,-0.4153942802980542,-1.7079267844349144,-0.6177408531993627
1772648315474418200,5.791418212890625,-0.3271457957416773,-1.795758212623,-0.5036866039961576
1772648315484459300,5.801459228515625,-0.3254536048710346,-1.7852929327100515,-0.32675621190220117
1772648315494500000,5.8115,-0.43047611409574743,-1.6921739195078611,-0.20671134398207067
1772648315504540200,5.8215400390625,-0.5433478755161166,-1.4622218390613793,-0.11248699988648295
1772648315514581200,5.831581298828125,-0.6213531984776258,-1.0772954700022934,-0.06887567556649446
1772648315524621300,5.841621337890625,-0.6953714976295828,-0.5326403112798929,-0.08772299937754868
1772648315534662100,5.851662109375,-0.8763079104945063,0.023026070800423622,-0.09221256588175893
1772648315544703200,5.861703125,-1.0633028927460313,0.5420458530068397,-0.05383680412769317
1772648315554743300,5.871743408203125,-0.8978700462222099,0.7670107926905154,0.0025371172621846197
1772648315564784400,5.881784423828125,-0.6021726971894502,0.6640583677381277,0.16986819862276314
1772648315574825200,5.8918251953125,-0.49067543899267907,0.4721183302998542,0.5408915684051812
1772648315584865300,5.901865234375,-0.46874973064959047,0.3925537951976061,0.8460698624886572
1772648315594906400,5.91190625,-0.41035979326218364,0.3819727799504995,1.032158543550223
1772648315604947500,5.921947509765625,-0.5446589581146836,0.19623627332746982,1.0784618834331632
1772648315614987000,5.931987060546875,-0.8017591577276587,-0.20427812548577784,0.9346322352997958
1772648315625028000,5.942028076171875,-1.093495786435902,-0.5344698647946119,0.6438520305335521
1772648315635069200,5.952069091796875,-1.6254668201521039,-0.545937599748373,0.454263232396543
1772648315645109200,5.962109130859375,-1.9072683303013442,0.14172434641718865,0.16036708756685256
1772648315655150000,5.972150146484375,-0.9644719316378235,1.4072247589826583,-0.4486493380375206
1772648315665191200,5.982191162109375,-0.7323515672415495,2.6444693834006783,-0.8287867192544043
1772648315675231200,5.992231201171875,-1.6793720133408903,3.9472301438242194,-0.46887364929020403
1772648315685272300,6.002272216796875,-2.0174755486875773,4.75617687496841,0.21490517183169722
1772648315695313200,6.012313232421875,-1.4612486101150512,4.064514460989833,0.25164310325086114
1772648315705353200,6.022353271484375,-0.8762970968395472,2.587346981731057,-0.33012554220482704
1772648315715394300,6.032394287109375,-0.6423661758899688,1.0331868636846542,-1.0233229106657207
1772648315725435100,6.04243505859375,-0.5209983888030052,-0.2098223156094551,-1.6545955917418003
1772648315735475200,6.05247509765625,-0.14919921234250066,-0.7598883934646844,-2.2482046048559248
1772648315745516300,6.062516357421875,0.441659479150176,-0.818883018746972,-2.390627893322706
1772648315755557400,6.072557373046875,1.0710685583114623,-0.862363848555088,-2.304133705087751
1772648315765597400,6.082597412109375,1.5120271957159042,-0.6968775182783603,-2.0833619793102143
1772648315775638300,6.09263818359375,1.7503344320535659,-0.2722276261180639,-1.671541465845704
1772648315785679400,6.102679443359375,1.9712506808683274,0.2027729816198349,-1.1900570490464568
1772648315795719200,6.11271923828125,2.105754136121273,0.6067009882688522,-0.8090215499460697
1772648315805760300,6.12276025390625,2.2987696938365696,0.9217951116889714,-0.4182767038665712
1772648315815801000,6.132801025390625,2.434291386221349,0.8859218342751264,0.0011607143424451352
1772648315825841200,6.142841064453125,2.404252221788466,0.5911334167808294,0.28818346627131103
1772648315835882200,6.15288232421875,2.149351870307326,0.2958183450639248,0.47928047701418397
1772648315845923000,6.162923095703125,1.8177762754246591,0.07451134336590766,0.4887796883739531
1772648315855963100,6.172963134765625,1.6353858643591404,-0.17705226490795611,0.29605259221121666
1772648315866004200,6.183004150390625,1.4462141225904226,-0.4771019639313221,0.0705656744800508
1772648315876044300,6.193044189453125,1.2527677722424269,-0.6871621799498796,-0.03825111246109009
1772648315886085400,6.20308544921875,0.9632041036590934,-0.7099784073919058,-0.05098828282877803
1772648315896126200,6.213126220703125,0.8095596023455262,-0.6116793612033128,-0.0014618892461061477
1772648315906166300,6.223166259765625,0.7053390571534633,-0.3594464753657579,0.14447072251588106
1772648315916207400,6.233207275390625,0.630905455198884,-0.10638356844484806,0.28779958152025936
1772648315926248200,6.243248291015625,0.6678048607900738,0.04747136074900627,0.36277751948460935
1772648315936288000,6.2532880859375,0.6551432398766279,0.0742921476572752,0.34810455874875185
1772648315946329000,6.2633291015625,0.6824363204717636,-0.0075146134138107295,0.28554420380890366
1772648315956370200,6.2733701171875,0.8140268108874559,-0.18640519966483116,0.15989713196754454
1772648315966410200,6.28341015625,1.010382034419477,-0.4444575854361057,0.032064532780647276
1772648315976451000,6.293451171875,1.070433183017373,-0.76032561583817,-0.04868307462632656
1772648315986492000,6.303491943359375,0.9346408569976686,-0.9589438158661127,-0.07545578460916877
1772648315996532000,6.313531982421875,0.8428393561348319,-1.0276941114872693,-0.10847615680992603
1772648316006573000,6.323572998046875,0.7982678084805608,-1.0307470693171024,-0.14092662016823887
1772648316016614000,6.33361376953125,0.770883542470634,-1.0198749621689318,-0.14718334247544407
1772648316026653700,6.34365380859375,0.7561100439697503,-0.9703753104627132,-0.14954831804111599
1772648316036694800,6.35369482421875,0.6591612433463334,-0.809850986507535,-0.09436915939375758
1772648316046736000,6.36373583984375,0.5996233049675822,-0.5770762498557567,-0.027464345508813857
1772648316056776000,6.37377587890625,0.5321598342865705,-0.3219780377149582,-0.07428557178601622
1772648316066816800,6.383816650390625,0.5595499455153942,-0.04195172054469585,-0.21323680022805927
1772648316076857900,6.39385791015625,0.563354890756309,0.18299276087284086,-0.32163609240949154
1772648316086898000,6.40389794921875,0.5273021651223302,0.24559213264882562,-0.3053095192477107
1772648316096938800,6.413938720703125,0.5366378564834594,0.1777981148391962,-0.2659140590570867
1772648316106979800,6.423979736328125,0.5085191387191415,-0.006852934634685516,-0.17117855056896805
1772648316117020000,6.43402001953125,0.44494449217021464,-0.20491291625797747,-0.12917407692372798
1772648316127061000,6.44406103515625,0.3414841176956892,-0.31818858230412006,-0.12216332137882709
1772648316137101800,6.454101806640625,0.19493220499157904,-0.40659634907543657,-0.07132263032719492
1772648316147142000,6.464141845703125,0.13336802148222923,-0.4728986670225858,-0.05730813350006938
1772648316157183000,6.474182861328125,0.2606418177425861,-0.5504331576019525,-0.08092749401852488
1772648316167223800,6.484223876953125,0.3479325631827116,-0.5983978548258543,0.012220745278149843
1772648316177263600,6.494263671875,0.32519933784902094,-0.5763233856618404,0.15409882095232605
1772648316187304700,6.5043046875,0.32282091827988624,-0.45890112133026123,0.3520709781616926
1772648316197346000,6.514345947265625,0.3655769409447908,-0.2942465657025575,0.5708076909802854
1772648316207385900,6.5243857421875,0.45844519425630564,-0.08820318410992622,0.763297471255809
1772648316217426700,6.5344267578125,0.528909892579913,0.11660101107656955,0.8922301406390964
1772648316227467800,6.5444677734375,0.5908621986240148,0.28662440026104447,0.9265084039464593
1772648316237507800,6.5545078125,0.6026183951303362,0.3792109140217304,0.9275886003986
1772648316247549000,6.564548828125,0.4825333413302898,0.3942769657284021,0.9253099879421293
1772648316257589800,6.57458984375,0.30958383556604385,0.3509346676081419,0.9069120153337716
1772648316267629800,6.5846298828125,0.20921441284418105,0.34566052659749985,0.8805605995029211
1772648316277671000,6.5946708984375,0.10427081407457589,0.30792145531177517,0.9329124257698654
1772648316287711700,6.604711669921875,0.01906213560551405,0.34955519594848156,1.1213000314235686
1772648316297751800,6.614751708984375,-0.045427579961717125,0.42566403763890265,1.322583212877065
1772648316307793000,6.62479296875,-0.04754501050710678,0.42643443748950954,1.517727891575545
1772648316317834000,6.634833984375,-0.024413141244649886,0.37606735529899593,1.7498476714499294
1772648316327874000,6.6448740234375,0.007369651985168457,0.3592196808725595,1.929284201145917
1772648316337915000,6.654914794921875,-0.015017536389827727,0.37144495619535445,2.0366538580186666
1772648316347956000,6.6649560546875,-0.004727028521895408,0.5527572166353464,1.9045720769546925
1772648316357995800,6.674995849609375,-0.3039890842989087,0.8693126447796821,1.3062611697599291
1772648316368036900,6.685036865234375,-0.4304577016562223,1.449270003029704,0.8619375859670341
1772648316378077700,6.69507763671875,-0.5098866276800632,1.445277134001255,0.8666947173662484
1772648316388117800,6.70511767578125,-0.5609110047355294,1.3643068237543106,0.8677982946939766
1772648316398158800,6.715158935546875,-0.32138182538747784,1.3800941754728555,0.6873072875089943
1772648316408199700,6.72519970703125,-0.0405161347836256,1.3711445608198642,0.6477003765247762
1772648316418239700,6.73523974609375,-0.061379182331264014,1.4720517436802387,0.6376527375020087
1772648316428280800,6.74528076171875,-0.0529971384331584,1.5342740988373755,0.45823593541979785
1772648316438322000,6.755322021484375,0.19684797548502683,1.5419389343768357,0.029461802936345337
1772648316448362000,6.765362060546875,0.5928787991434336,1.427380242782831,-0.3942712666399777
1772648316458402800,6.77540283203125,0.8726806599080562,1.1903110238075256,-0.6946766472332179
1772648316468444000,6.78544384765625,0.843202928750217,0.9698054016202687,-0.9592401684641837
1772648316478484000,6.79548388671875,0.8608724409535526,0.70014207303226,-1.2944412603676319
1772648316488524800,6.80552490234375,0.6939227601259946,0.43204175597727296,-1.703789246238768
1772648316498566000,6.81556591796875,0.8179638580754399,0.2067506530791521,-2.0606424902409315
1772648316508606000,6.82560595703125,0.9455085802316665,-0.12532324671447276,-2.4338452498890457
1772648316518647000,6.83564697265625,0.5593213974565268,-0.3821048818975687,-2.6769632475093004
1772648316528687900,6.84568798828125,0.48415188244283197,-0.486911994805932,-2.816549120593071
1772648316538727700,6.855727783203125,0.5326981789469719,-0.5941092177212238,-2.7757211433812974
1772648316548768800,6.865768798828125,0.5315469630852341,-0.6533832444667815,-2.5655025219306347
1772648316558809900,6.875809814453125,0.36222529242932794,-0.5714174934417009,-2.2281907214835286
1772648316568850000,6.885849853515625,0.09206891962736845,-0.33369477899372574,-1.803369272148609
1772648316578890800,6.895890869140625,-0.15048837537020443,0.060438978871703145,-1.4384468495897949
1772648316588931800,6.905931884765625,-0.26186551431864497,0.45387715568840503,-1.1036524387910962
1772648316598972000,6.915971923828125,-0.19333558344990015,0.7066478016644716,-0.8622532277874648
1772648316609012700,6.9260126953125,-0.06376227807551622,0.7756903582304716,-0.6620464433938265
1772648316619053800,6.9360537109375,-0.0019672084197402,0.6995639808833599,-0.5134206470251083
1772648316629094000,6.946093994140625,-0.06643529667705297,0.4967383922934532,-0.4752347087547183
1772648316639135000,6.956135009765625,-0.11219108567982912,0.2905406969219446,-0.49523660942837594
1772648316649175800,6.96617578125,-0.06979074458479881,0.08840250607430934,-0.457325542576611
1772648316659216000,6.9762158203125,-0.05843874496519565,-0.15607494333088398,-0.4151467352777719
1772648316669257000,6.986257080078125,0.030285248148441312,-0.41403906629681586,-0.4300010439299047
1772648316679298000,6.996298095703125,0.0739019792959094,-0.6345154623895883,-0.44397856974750755
1772648316689337900,7.006337890625,0.08100479703843592,-0.8507558283478021,-0.4888938162729144
1772648316699379000,7.01637890625,0.006431786613166332,-1.0651894371449946,-0.48955841766148805
1772648316709420000,7.026419921875,-0.03896832081973552,-1.1679402020454406,-0.43744595310837026
1772648316719459800,7.0364599609375,0.0021855273455381394,-1.1198510016590357,-0.3718677116520703
1772648316729500700,7.046500732421875,-0.0007765373304486274,-1.0113356818825006,-0.3143345372244716
1772648316739540700,7.056540771484375,-0.01711363188624382,-0.9372130455732345,-0.2841328757062554
1772648316749581800,7.066581787109375,-0.06346884808689356,-0.7266653382986784,-0.30418373008817434
1772648316759623000,7.076622802734375,-0.21065145990997552,-0.505204022821784,-0.2036459650620818
1772648316769663700,7.086663818359375,-0.29658845265358685,-0.3840741361439228,-0.11693988764211535
1772648316779703800,7.096703857421875,-0.4128554094702005,-0.3229144417822361,-0.12010083589106797
1772648316789745000,7.106744873046875,-0.3998559349045157,-0.3538818269759416,-0.17660072174817323
1772648316799785700,7.11678564453125,-0.3076677728116512,-0.5428478170394897,-0.1499115983955562
1772648316809825800,7.12682568359375,-0.198486974863708,-0.7675929764926434,-0.14765388259664178
1772648316819867000,7.136866943359375,-0.13876403530687093,-0.9220692524552345,-0.17595847832188008
1772648316829908000,7.146907958984375,-0.19968904412984848,-1.0240987173438072,-0.2157651496618986
1772648316839948000,7.156947998046875,-0.20560265208780765,-1.087305991885066,-0.23194719978645442
1772648316849988900,7.16698876953125,-0.17409399962425232,-1.1024655670940875,-0.1978165282562375
1772648316860030000,7.177030029296875,-0.16291735657155512,-1.0832932491123675,-0.16182634646445512
1772648316870069800,7.18706982421875,-0.12789338946342468,-0.9967956998765468,-0.13294409698173404
1772648316880110800,7.19711083984375,-0.2079617824345827,-0.9092419195860624,-0.07087313299402594
1772648316890151000,7.20715087890625,-0.26262130112200976,-0.7903630267053842,-0.0747376994676888
1772648316900191700,7.217191650390625,-0.33898528661727906,-0.6939531552642584,-0.05318856935203075
1772648316910232800,7.22723291015625,-0.42693800309747454,-0.6378168420225382,-0.029550504133105275
1772648316920273700,7.237273681640625,-0.5224561863958835,-0.5717956791043282,0.017231997568905352
1772648316930313700,7.247313720703125,-0.6240431682139634,-0.5344108280837535,0.049572863072901964
1772648316940354800,7.257354736328125,-0.6702817722976208,-0.556748916620016,0.07367664610743523
1772648316950396000,7.26739599609375,-0.7999544463932514,-0.5768979706794023,0.2408710954762995
1772648316960436000,7.27743603515625,-0.8932853487804532,-0.5918640691429377,0.3789373577773571
1772648316970476800,7.287476806640625,-0.9215636410206556,-0.4798720131665468,0.4886351653367281
1772648316980518000,7.297517822265625,-0.9713467858433723,-0.33894437008500095,0.5048405963368714
1772648316990558000,7.307557861328125,-1.0749217266082762,-0.19477613764703272,0.48574967302829025
1772648317000598800,7.317598876953125,-1.250687751097977,-0.11148176836669445,0.42805882382094856
1772648317010640000,7.327639892578125,-1.4162106139928101,-0.07519464945495129,0.35835444234535097
1772648317020680000,7.337679931640625,-1.4468740478038786,-0.12775485777556894,0.21686054368317126
1772648317030721000,7.347720947265625,-1.439107505455613,-0.26331951251924035,0.14607187410220504
1772648317040761900,7.357761962890625,-1.4156164474919437,-0.40642157703042026,0.18874767113775015
1772648317050802000,7.367802001953125,-1.5036781773045658,-0.5115045842707157,0.2799158425331116
1772648317060843000,7.377843017578125,-1.5458113918960092,-0.5527940415143966,0.32623832550793885
1772648317070884000,7.387884033203125,-1.6584195339441299,-0.5789952352195978,0.3568193417325616
1772648317080924200,7.397924072265625,-1.4966057547003029,-0.682526921364665,0.35933410103246566
1772648317090965000,7.407965087890625,-1.5146879393577575,-0.8362287058234215,0.39077962513193487
1772648317101006000,7.418006103515625,-1.7380121260970829,-0.820447783845663,0.34521044474244117
1772648317111047000,7.428046875,-1.7971005671426652,-0.6495698236584663,0.14233122626915573
1772648317121086700,7.438086669921875,-1.8053937637135384,-0.18010931439101696,-0.0890603854611516
1772648317131127800,7.4481279296875,-1.4569438986584544,0.7096136657327413,-0.4176464431390166
1772648317141169000,7.4581689453125,-0.8229518756210803,1.6851672556161879,-0.9927918710626661
1772648317151209000,7.468208984375,-0.86187518825531,2.5246143389642235,-1.3022928506508469
1772648317161249800,7.478249755859375,-1.22403121484071,3.335932475414872,-1.1644086669184266
1772648317171291000,7.488290771484375,-0.9969950218409299,3.6066853528052567,-0.8952337063692509
1772648317181331000,7.4983310546875,-0.7867781539559364,3.1009651971548795,-0.6599255057170986
1772648317191372000,7.5083720703125,-0.7718354363679886,2.266390688279271,-0.40978710794076323
1772648317201412900,7.518412841796875,-0.5854650157555937,1.3602023110449313,-0.8023596078388392
1772648317211453000,7.528452880859375,0.05219137500822544,0.5113461788386107,-1.395295690127462
1772648317221494000,7.538493896484375,0.18626053049713373,-0.20040332987904547,-1.4330150337994099
1772648317231534800,7.548534912109375,0.4346855484843254,-0.5735018985003233,-1.5408141681306062
1772648317241575000,7.558574951171875,0.7179179682195186,-0.7632248444110155,-1.642395158599317
1772648317251616000,7.568615966796875,1.0495777342543005,-0.9504296700209378,-1.5782910813488065
1772648317261657000,7.578656982421875,1.423786602205038,-0.9974071097731589,-1.4348708907991647
1772648317271697200,7.588697265625,1.6640204226911066,-0.7487170111089945,-1.28579574322775
1772648317281738000,7.598738037109375,1.911786099986732,-0.29416005646288396,-1.003935488628596
1772648317291779000,7.608779052734375,2.1594708210006357,0.05024842424690723,-0.6785840289577841
1772648317301819000,7.61881884765625,2.4184452900528908,0.2679910114616155,-0.37329701380282637
1772648317311860000,7.62885986328125,2.5538772583276033,0.4339963971763849,-0.1837748511612415
1772648317321900800,7.63890087890625,2.4053788877308366,0.6105874743133783,-0.024547142887860536
1772648317331940900,7.64894091796875,2.132153775008023,0.7832973261028527,0.04836173371747136
1772648317341982000,7.65898193359375,1.740408958105743,0.8637187702953815,-0.008007949888706206
1772648317352022800,7.669022705078125,1.4261229361981154,0.8348416353791952,-0.2089662833020091
1772648317362062800,7.679062744140625,1.3089265895769,0.7177595627874136,-0.5387900660812854
1772648317372104000,7.68910400390625,1.110159920988977,0.4490478358358144,-0.8838109796009957
1772648317382145000,7.69914501953125,0.8147977952599526,0.1962456256777048,-1.0480924641326068
1772648317392185000,7.70918505859375,0.451079633924365,-0.006906710648536682,-1.060955160576105
1772648317402226000,7.719225830078125,0.3345569487810135,-0.21842647782564162,-0.9833012814007699
1772648317412267000,7.72926708984375,0.23610505011826752,-0.4594955800920725,-0.7327006729401647
1772648317422307000,7.73930712890625,0.2948307953312993,-0.6350871247977018,-0.5048820973910391
1772648317432348000,7.749347900390625,0.5035328747391701,-0.7194739654898643,-0.2683895092599094
1772648317442389000,7.759388916015625,0.6327089974895119,-0.7762813098609447,-0.010190554624795914
1772648317452429000,7.769428955078125,0.7068401093661785,-0.7768851209729909,0.20744141182228923
1772648317462470100,7.77947021484375,0.7893976888045668,-0.7207850480884314,0.3072675214476883
1772648317472511000,7.789510986328125,0.8060083396047353,-0.6140782390385866,0.33539398412704463
1772648317482550800,7.79955078125,0.7711702504575252,-0.5262970797330141,0.35919673838838934
1772648317492591900,7.809591796875,0.7315715227797627,-0.4128980795681476,0.30168606805354353
1772648317502633000,7.819633056640625,0.6970724563285708,-0.3065823156625032,0.21881971492692828
1772648317512673000,7.829673095703125,0.6434387735575438,-0.3225152133315801,0.095041651827842
1772648317522713900,7.8397138671875,0.6273468859344721,-0.2997521773815155,-0.12566679945513606
1772648317532755000,7.8497548828125,0.5673942292749882,-0.23851298804283141,-0.19874445675611493
1772648317542795000,7.859794921875,0.458351378493011,-0.1807517039477825,-0.18567630086839199
1772648317552835800,7.8698359375,0.40530221761167046,-0.15341946038603782,-0.21932196536064147
1772648317562877000,7.879876953125,0.39607612410485743,-0.1508446414619684,-0.28711232990846036
1772648317572917000,7.8899169921875,0.4024591031402349,-0.14557050045132636,-0.323015271808207
1772648317582958000,7.8999580078125,0.3664639529123902,-0.13738953208327292,-0.28154695086628195
1772648317592999000,7.9099990234375,0.26325872224271296,-0.11143091496229171,-0.10046484592035412
1772648317603039000,7.9200390625,0.16792407881766558,-0.0944347719758749,0.08843582382202148
1772648317613080000,7.930080078125,0.14434300448298454,-0.157083828112483,0.2559763101495802
1772648317623121000,7.940120849609375,0.13885259037315845,-0.2563555187255144,0.41779461943805213
1772648317633160700,7.95016064453125,0.11704729353934526,-0.3585767067939043,0.6307922040827572
1772648317643201800,7.960201904296875,0.033468554359674454,-0.44264556757807727,0.8339500933669507
1772648317653243000,7.970242919921875,0.015201660785079002,-0.46069852614104745,0.9989892643980681
1772648317663283000,7.980282958984375,0.11033844355046749,-0.4374164347529411,1.0682296816237271
1772648317673323800,7.99032373046875,0.16223755761384964,-0.3676782971382141,1.1128875923871993
1772648317683364900,8.00036474609375,0.23068770124465227,-0.22667291264533995,1.08815647123456
1772648317693406000,8.010406005859375,0.28581805231422186,-0.05397650485932827,0.9976837347574532
1772648317703446000,8.020446044921876,0.30554946548342704,0.04329904350042343,0.8577174840539693
1772648317713486800,8.03048681640625,0.2350835981160402,0.07510112595260143,0.7086478894405066
1772648317723528000,8.04052783203125,0.17426292645037172,0.14461422263979912,0.5692132613956928
1772648317733568000,8.050568115234375,0.10985036777257919,0.1756055732309818,0.3830532686635852
1772648317743608800,8.06060888671875,0.02813128498494625,0.1902373251736164,0.20525150056257843
1772648317753650000,8.07064990234375,-0.08079787628948688,0.20542203482389448,0.08278130519166588
1772648317763690000,8.08068994140625,-0.13051467787772417,0.21233166808187962,0.042584611620754
1772648317773731000,8.09073095703125,-0.2184580420076847,0.13704115703701972,0.12522577768936752
1772648317783772000,8.10077197265625,-0.2486886373594403,0.0368342314004898,0.18554054565951228
1772648317793812000,8.11081201171875,-0.29250615177601574,-0.005205167427659034,0.29982495035678147
1772648317803853000,8.12085302734375,-0.29722850412279367,0.03530921379029751,0.4603957438021898
1772648317813894100,8.13089404296875,-0.2621113057732582,0.028926234754920004,0.7480239142782986
1772648317823934000,8.140933837890625,-0.27946283806860445,-0.0011368950754404067,1.0705930497542022
1772648317833974800,8.150974853515624,-0.27171149328947064,-0.10114157613813876,1.3446018602006136
1772648317844015900,8.161015869140625,-0.285534266936779,-0.14211480703949927,1.5542860825136302
1772648317854056000,8.171055908203124,-0.23165420818924903,-0.09980886622965335,1.732862049857527
1772648317864096800,8.1810966796875,-0.13523673796355723,0.03912380364239216,1.8553534341469406
1772648317874137900,8.191137939453125,-0.1291378365665674,0.35315409722328184,1.7145751364082098
1772648317884178000,8.201177978515625,-0.10943477270901203,0.5659089591532945,1.454384715694934
1772648317894219000,8.211218994140625,-0.15578648177832363,0.6547428423821926,1.4089784707821904
1772648317904259800,8.221259765625,-0.15541063420325515,0.904790785396099,1.2855416223362088
1772648317914300000,8.2312998046875,-0.18622282883524893,1.1518225954592227,1.1468659959651528
1772648317924341000,8.241341064453126,-0.036762042947113514,1.1989099253267048,1.0070517209529877
1772648317934382000,8.251382080078125,0.18166209679096937,1.0791419746518134,0.9675723818711935
1772648317944422000,8.261421875,0.14373188684731722,1.070360702303052,0.8524358903892337
1772648317954463000,8.271462890625,0.061470367746055125,1.0890192255437374,0.5812877300709486
1772648317964504000,8.281504150390624,0.03800035257041454,0.9438017763137817,0.3418815925806761
1772648317974544100,8.291544189453125,0.1781754237189889,0.6816174053043127,0.0896476838298142
1772648317984584400,8.30158447265625,0.48975773962587116,0.43067806640863415,-0.2557527305267751
1772648317994625300,8.311625244140625,0.6604544980272651,0.31696459346711636,-0.5820765423610806
1772648318004665300,8.321665283203124,0.8179466146796941,0.33043256232738494,-0.9214201408967375
1772648318014706400,8.33170654296875,0.8472557112723589,0.38546705180704594,-1.1999619185976684
1772648318024747300,8.341747314453125,0.7309428694874048,0.3870832548320293,-1.474566210719198
1772648318034787300,8.351787353515626,0.7414677706331014,0.3263303877055645,-1.836710108475387
1772648318044828400,8.361828369140625,0.8319742632493377,0.14654197583198547,-2.1799292332701383
1772648318054869500,8.371869384765626,0.7625532287597656,-0.09337269570231436,-2.410936521857977
1772648318064909600,8.38190966796875,0.6404159186050296,-0.2923439469516277,-2.497942605137825
1772648318074950400,8.391950439453124,0.5634504600852728,-0.44349780049324034,-2.4657979928582905
1772648318084991500,8.401991455078125,0.47758097961992024,-0.4900643213570118,-2.35629088556543
1772648318095032600,8.412032470703124,0.3495224627226591,-0.4228291064739227,-2.1252933877192435
1772648318105072400,8.422072265625,0.29870412963330745,-0.25657529895603653,-1.8840734788052738
1772648318115113200,8.43211328125,0.2581114224821329,-0.0055360068172216415,-1.5657393505506216
1772648318125154300,8.442154296875,0.1708934500172734,0.29329730215370653,-1.2342545026913285
1772648318135194400,8.4521943359375,0.038187984097003934,0.5836626425087451,-0.9696925888955592
1772648318145235200,8.462235107421876,-0.08389642682671547,0.8520973060846329,-0.7644011947140097
1772648318155276300,8.4722763671875,-0.13666647850573063,0.9965227281540632,-0.5580336957335472
1772648318165316400,8.48231640625,-0.15474983220696448,1.0561451299458742,-0.46736616733670233
1772648318175357400,8.492357421875,-0.1724468169391155,1.1094359906286,-0.4687352637328207
1772648318185398300,8.502398193359374,-0.152270290350914,0.9894611192047595,-0.4812552842184901
1772648318195438300,8.512438232421875,-0.0703948479577899,0.6613391719073057,-0.4325048434443772
1772648318205479400,8.5224794921875,-0.054899757184088224,0.2504512631177902,-0.4422476543016731
1772648318215520300,8.532520263671875,-0.031791561058163643,-0.107056937661767,-0.43805005648136136
1772648318225560300,8.542560302734374,0.08794482543468475,-0.4179723140925169,-0.4235542058780789
1772648318235601400,8.552601318359375,0.17344108867347238,-0.7236217328190803,-0.424131275113672
1772648318245642500,8.562642578125,0.1414823543548584,-0.8815636390656232,-0.4428961813382804
1772648318255682600,8.5726826171875,0.06972644717693328,-0.9611778585284948,-0.41038200509399175
1772648318265723400,8.582723388671875,-0.07824497693628073,-1.0220908846527337,-0.2737843540407717
1772648318275764500,8.592764404296876,-0.23007833717465398,-1.013117889124155,-0.09935425432994961
1772648318285804300,8.60280419921875,-0.31753245648294687,-0.8556704883962869,0.031696722381561994
1772648318295845400,8.612845458984374,-0.31763650137931104,-0.6750964791029691,0.12236059751659631
1772648318305886200,8.62288623046875,-0.33745880770236253,-0.5741624082356691,0.1503496975518763
1772648318315926300,8.63292626953125,-0.28133360037654637,-0.6204150408446788,0.09435052775852382
1772648318325967400,8.64296728515625,-0.2445548985555768,-0.762330525919795,-0.043426469272375104
1772648318336008200,8.65300830078125,-0.25756109512299297,-0.9123983377903699,-0.14556743171140551
1772648318346048300,8.66304833984375,-0.22135113310068844,-1.0083663106828928,-0.23276136571355163
1772648318356089300,8.67308935546875,-0.15282850875556467,-1.1085393340498209,-0.3155788381971419
1772648318366130400,8.68313037109375,-0.11072568930238484,-1.1731640741735696,-0.3988892087642103
1772648318376171300,8.693171142578125,-0.08496201023161411,-1.262752575162053,-0.4747536472395062
1772648318386211300,8.70321142578125,-0.0779734665185213,-1.2955845851838588,-0.43648916384018954
1772648318396252400,8.71325244140625,-0.1282379651173949,-1.319661626341939,-0.3501760312605649
1772648318406293500,8.72329345703125,-0.19509879373013972,-1.2535106995642185,-0.2889773200627416
1772648318416333300,8.733333251953125,-0.23528350460231304,-1.10937987652719,-0.3251431506823748
1772648318426374400,8.74337451171875,-0.27981062859296796,-0.9432505721718072,-0.35199287142418323
1772648318436415500,8.75341552734375,-0.4686041846990585,-0.7599708110511303,-0.3611536446098238
1772648318446455300,8.763455322265624,-0.7456804198920727,-0.5443418549895286,-0.37353308758102355
1772648318456496000,8.77349609375,-0.9721776837095618,-0.30211598390340805,-0.38891960341371595
1772648318466537200,8.783537109375,-1.0757757130891084,-0.0935848771482706,-0.3893054609261453
1772648318476577300,8.793577392578126,-1.1944631750509143,0.01512508841753006,-0.2589785607054829
1772648318486618400,8.803618408203125,-1.1699494960412382,-0.006278349617123604,-0.10355777043439447
1772648318496659200,8.8136591796875,-1.0028694668322802,-0.07460194425880909,0.05818060548566281
1772648318506699300,8.82369921875,-0.7907894354239106,-0.1268546940654516,0.25370281225964425
1772648318516740400,8.833740234375,-0.6569906213089823,-0.18086159406304358,0.4849819035261869
1772648318526781400,8.843781494140625,-0.6699971101373434,-0.2852589571267366,0.6996449371650815
1772648318536821200,8.8538212890625,-0.8552309279352426,-0.3098760965108871,0.7995239460214972
1772648318546862300,8.8638623046875,-1.0331383483678103,-0.35425942811667915,0.798678581238538
1772648318556903400,8.8739033203125,-1.198077858416736,-0.4544570014029741,0.7101686692669987
1772648318566943500,8.883943603515625,-1.3516013636991382,-0.5603565857231617,0.6312406785026192
1772648318576984300,8.893984375,-1.5154402190297842,-0.6678688659369945,0.6309471023835241
1772648318587025400,8.904025390625,-1.739799009513855,-0.7599298945188522,0.6869250101931392
1772648318597066500,8.91406640625,-1.8351409594625234,-0.8148182535260915,0.6063397537410259
1772648318607106600,8.9241064453125,-1.8452602024167775,-0.6805155815422534,0.5903299914434552
1772648318617147400,8.9341474609375,-1.757342849510908,-0.03874444893598556,0.4059558592148125
1772648318627188500,8.9441884765625,-1.010228889684379,0.894557560673356,-0.15794161398559808
1772648318637228300,8.954228271484375,-0.8379331716537475,1.9657178889214992,-0.4214803222134709
1772648318647269400,8.964269287109374,-1.1073805194035171,3.1718712095052,-0.46687224633991714
1772648318657310200,8.974310302734375,-0.8903823208153248,4.164116990992427,-0.28522315516099334
1772648318667350300,8.984350341796874,-0.633525866830349,4.326538673001528,-0.01692819231674075
1772648318677391400,8.994391357421875,-0.5225096701487899,3.714465344044566,0.05193769250810146
1772648318687432200,9.00443212890625,-0.3745540281265974,2.648564543759823,-0.5125945714645087
1772648318697472300,9.01447216796875,0.005105798706412315,1.5300859994977711,-1.3800010903619229
1772648318707513300,9.024513427734375,0.14664017550945282,0.6481956126958132,-1.7045860957048833
1772648318717554400,9.034554443359376,0.13795271892398595,0.21533084989786147,-1.6279704735361038
1772648318727594500,9.044594482421875,0.22739421265721318,-0.126024088460207,-1.7081380890980362
1772648318737635300,9.05463525390625,0.4084247335463762,-0.3879863411515951,-1.8113567637711763
1772648318747676400,9.064676513671875,0.5623062584862113,-0.49072892274558544,-1.8766585263736546
1772648318757716500,9.074716552734374,0.8612140939980745,-0.4844125792056322,-1.7961184242375194
1772648318767757300,9.08475732421875,1.3543345880553126,-0.5876940899819135,-1.6784189503997564
1772648318777798400,9.09479833984375,1.8264307065233587,-0.8163041081696748,-1.544827349294722
1772648318787838500,9.10483837890625,2.0570614168837666,-0.9699638070523738,-1.4217751162521541
1772648318797879600,9.114879638671875,2.2404668502107263,-0.959070072594285,-1.1923546584643423
1772648318807920400,9.12492041015625,2.2785832303762437,-0.7952110512584447,-0.925094299364835
1772648318817961500,9.13496142578125,2.2012302338436243,-0.4666770160287618,-0.6997441597558558
1772648318828001300,9.145001220703126,2.148007762221992,-0.06983166111707687,-0.5373273000523447
1772648318838042400,9.15504248046875,1.9818138681977986,0.28208091161251064,-0.49875031663775443
1772648318848083200,9.165083251953124,1.780321574038267,0.583618218845129,-0.5717103389084339
1772648318858123300,9.175123291015625,1.5724235044896602,0.7508814956665039,-0.6702106067575514
1772648318868164400,9.185164306640624,1.3718342966496944,0.7785363953113555,-0.7185780395634472
1772648318878205200,9.195205078125,1.1140379314661026,0.6774526868402958,-0.7383953774504363
1772648318888245200,9.205245361328124,0.9331891968846321,0.4134446075350046,-0.757410605174303
1772648318898286300,9.215286376953125,0.911879866874218,0.07327975574433804,-0.8028694570571183
1772648318908327400,9.225327392578125,0.951080242884159,-0.23929975450634955,-0.8161391268663107
1772648318918367500,9.235367431640626,0.9546870352044701,-0.37090836510062214,-0.7038366897664964
1772648318928408300,9.245408203125,0.8832122830554843,-0.3764396957427263,-0.6010206045448779
1772648318938449400,9.255449462890626,0.870769565589726,-0.30375089162886143,-0.4999979786112904
1772648318948489500,9.265489501953125,0.9036410308390855,-0.21309680723547933,-0.41038931161761283
1772648318958530300,9.2755302734375,0.8525345284581184,-0.18486732257306573,-0.36903701827079055
1772648318968571400,9.2855712890625,0.825298731008172,-0.1694108102440834,-0.4468091169983148
1772648318978612500,9.295612548828124,0.8780629374682902,-0.18391338284909725,-0.5120379604950547
1772648318988652800,9.30565283203125,0.7981190476596355,-0.21190730518996714,-0.5941248536817729
1772648318998693600,9.315693603515625,0.699106884765625,-0.18999942476451395,-0.6235827110953629
1772648319008734700,9.325734619140626,0.6104957043766975,-0.17146014398932455,-0.5581520614162087
1772648319018774800,9.33577490234375,0.5463745298609137,-0.18853052125573158,-0.4815856852166354
1772648319028816000,9.34581591796875,0.5180611663073301,-0.1742950751543045,-0.4411820708967745
1772648319038856700,9.355856689453125,0.5180006682917475,-0.13061726146936417,-0.3553685584023595
1772648319048896800,9.365896728515626,0.458401647375524,-0.07442541864812374,-0.24721374250128864
1772648319058937900,9.375937744140625,0.3973383991256356,-0.011770517292618752,-0.12490268321484327
1772648319068978700,9.385978759765624,0.3998091731533408,0.03372165233790874,-0.04686798802837729
1772648319079018800,9.396018798828125,0.45706455355286596,0.07834989861547946,-0.008061872033029794
1772648319089059800,9.406059814453124,0.4795791676998138,0.10968144094645976,0.04974705059602856
1772648319099101000,9.416100830078125,0.4402598414853215,0.13623276326358316,0.24041443774998186
1772648319109141000,9.42614111328125,0.40422523602992294,0.10850713647007941,0.38893604309186336
1772648319119181800,9.436181884765626,0.367749316547811,0.05389174918532371,0.46278848415762186
1772648319129223000,9.446222900390625,0.3010840105071664,-0.033199089768528936,0.46871027542203664
1772648319139263000,9.456262939453126,0.17882336623370645,-0.08356324934959411,0.45727220495417714
1772648319149303800,9.4663037109375,0.030821839243173596,-0.13698328936994075,0.39638270583599805
1772648319159345000,9.476344970703124,0.01059504377245903,-0.23710019863545892,0.2538331606410444
1772648319169386000,9.486385986328125,0.01521568931043148,-0.394734061846137,0.08319616960287093
1772648319179425800,9.49642578125,0.010299275696277617,-0.5322451744824648,-0.07652838227674365
1772648319189466600,9.506466552734375,-0.00461713840663433,-0.5849743096292018,-0.1748918720036745
1772648319199507700,9.5165078125,-0.016436755537986753,-0.5438736529558896,-0.17849910271540284
1772648319209547800,9.5265478515625,-0.056962534932792186,-0.4373199886411428,-0.11569383310377597
1772648319219588900,9.5365888671875,-0.16593319726139305,-0.2779612013339996,0.02184358301758766
1772648319229629700,9.546629638671876,-0.16721505376547574,-0.12866437383592128,0.13427607623785734
1772648319239669800,9.556669677734375,-0.10194558599740267,-0.1015583402454853,0.17025442146137357
1772648319249710800,9.5667109375,-0.01948123780041933,-0.01518295608460903,0.24662059891372917
1772648319259751700,9.576751708984375,-0.043350481426715846,0.0743441701054573,0.3881787949837744
1772648319269791700,9.586791748046876,-0.03794043907672166,0.06160510004162788,0.4337560125492513
1772648319279832800,9.596832763671875,-0.04692717086970806,-0.004963175365328788,0.447879376578331
1772648319289874000,9.6068740234375,-0.03890723828226328,-0.09749299050271511,0.4879145959772169
1772648319299914800,9.616914794921875,-0.059569210299849504,-0.09590075287520886,0.5380234656229614
