time,seconds_elapsed,z,y,x
1772648309751253000,0.0682529296875,-0.0756717398762703,0.15999074280261993,-0.04180355370044708
1772648309761292800,0.078292724609375,-0.07476279884576797,0.17869092524051666,-0.038686059415340424
1772648309771333600,0.088333740234375,-0.07454590499401093,0.19833311438560486,-0.02940116822719574
1772648309781375000,0.098375,-0.07419143617153168,0.2124508023262024,-0.013951372355222702
1772648309791414800,0.108414794921875,-0.07518985122442245,0.23220762610435486,0.004012557677924633
1772648309801455600,0.11845556640625,-0.07511208206415176,0.25945523381233215,0.015105422586202621
1772648309811496700,0.12849658203125,-0.08242852240800858,0.2831033170223236,0.020134881138801575
1772648309821536800,0.138536865234375,-0.08971013873815536,0.2963232398033142,0.027281738817691803
1772648309831577900,0.148577880859375,-0.09290761500597,0.3040943741798401,0.06380525231361389
1772648309841618700,0.15861865234375,-0.0878625214099884,0.3286287486553192,0.09200014173984528
1772648309851658800,0.16865869140625,-0.08647844195365906,0.3525288701057434,0.10587804764509201
1772648309861699800,0.178699951171875,-0.0797470360994339,0.3812084496021271,0.10551612824201584
1772648309871740000,0.188739990234375,-0.07207191735506058,0.40293145179748535,0.09669153392314911
1772648309881780700,0.19878076171875,-0.06752190738916397,0.4033852517604828,0.1282995343208313
1772648309891821800,0.20882177734375,-0.05700517073273659,0.3800312280654907,0.1661524921655655
1772648309901862000,0.21886181640625,-0.044658225029706955,0.347396582365036,0.16551066935062408
1772648309911903000,0.228903076171875,-0.0236943531781435,0.345679372549057,0.11919564008712769
1772648309921943800,0.23894384765625,0.00069780508056283,0.3319135010242462,0.12369265407323837
1772648309931983600,0.248983642578125,0.01664838008582592,0.2708093822002411,0.16091307997703552
1772648309942024700,0.259024658203125,0.04181871563196182,0.22919592261314392,0.20459584891796112
1772648309952065800,0.269065673828125,0.06444274634122849,0.20229488611221313,0.20916572213172913
1772648309962105900,0.27910595703125,0.08286090195178986,0.20889021456241608,0.1826811134815216
1772648309972146700,0.289146728515625,0.08893199265003204,0.21826374530792236,0.16537386178970337
1772648309982187000,0.29918701171875,0.08367437869310379,0.20611999928951263,0.18089395761489868
1772648309992228000,0.30922802734375,0.06875377148389816,0.1804748773574829,0.20046496391296387
1772648310002269000,0.31926904296875,0.04332857206463814,0.14381353557109833,0.21969617903232574
1772648310012309000,0.32930908203125,0.017135171219706535,0.1189262866973877,0.20989990234375
1772648310022350000,0.33935009765625,-0.005209816619753838,0.10146713256835938,0.2023272067308426
1772648310032391200,0.34939111328125,-0.02938368171453476,0.06568814814090729,0.20425811409950256
1772648310042431000,0.359430908203125,-0.0484527163207531,0.017472952604293823,0.21114477515220642
1772648310052471800,0.369471923828125,-0.0608782060444355,-0.03867601603269577,0.21804951131343842
1772648310062513000,0.379512939453125,-0.07449628412723541,-0.084163598716259,0.22623632848262787
1772648310072553000,0.389552978515625,-0.08592648804187775,-0.12559914588928223,0.2338804304599762
1772648310082593800,0.39959375,-0.10012193769216537,-0.1496725231409073,0.2251572459936142
1772648310092633900,0.4096337890625,-0.10629497468471527,-0.140287384390831,0.2012450098991394
1772648310102675000,0.419675048828125,-0.1000240296125412,-0.07159380614757538,0.19064588844776154
1772648310112716000,0.429716064453125,-0.09466506540775299,0.04120751842856407,0.19084399938583374
1772648310122756000,0.439756103515625,-0.09525389224290848,0.18085063993930817,0.19134174287319183
1772648310132797000,0.449796875,-0.10136890411376953,0.3089067041873932,0.17865043878555298
1772648310142838000,0.459838134765625,-0.1163148283958435,0.4109289348125458,0.13424861431121826
1772648310152878000,0.469878173828125,-0.13537588715553284,0.4872637689113617,0.07504937052726746
1772648310162919200,0.479919189453125,-0.1602569967508316,0.5178741812705994,0.01802816241979599
1772648310172960000,0.4899599609375,-0.19257371127605438,0.5438891649246216,-0.03694051131606102
1772648310183000000,0.5,-0.22224026918411255,0.5905945897102356,-0.076835997402668
1772648310193041200,0.510041259765625,-0.24504496157169342,0.6304121613502502,-0.11759138852357864
1772648310203081000,0.5200810546875,-0.25493061542510986,0.6532621383666992,-0.15575741231441498
1772648310213121800,0.530121826171875,-0.2506284713745117,0.6673901081085205,-0.185282364487648
1772648310223163000,0.540162841796875,-0.24381662905216217,0.6766096949577332,-0.19772198796272278
1772648310233203000,0.550202880859375,-0.21777677536010742,0.6861926317214966,-0.19189371168613434
1772648310243244000,0.560244140625,-0.18035270273685455,0.6798295378684998,-0.1893751621246338
1772648310253284900,0.570284912109375,-0.1333644539117813,0.6457223296165466,-0.183054581284523
1772648310263325000,0.580324951171875,-0.08248981833457947,0.5964013934135437,-0.17601877450942993
1772648310273366000,0.590365966796875,-0.03655107691884041,0.5328065156936646,-0.16650743782520294
1772648310283406800,0.60040673828125,0.0012658077757805586,0.46650344133377075,-0.15501298010349274
1772648310293447000,0.610447021484375,0.02885412983596325,0.409435898065567,-0.1498684585094452
1772648310303488000,0.620488037109375,0.044836025685071945,0.36128726601600647,-0.14870145916938782
1772648310313528000,0.630528076171875,0.04872019216418266,0.3183137774467468,-0.14300696551799774
1772648310323569200,0.640569091796875,0.0460977777838707,0.2949272394180298,-0.1433209478855133
1772648310333610000,0.65060986328125,0.03853733837604523,0.2956185042858124,-0.1338021606206894
1772648310343649800,0.66064990234375,0.031129488721489906,0.3125559389591217,-0.11957528442144394
1772648310353691000,0.67069091796875,0.024907879531383514,0.34097734093666077,-0.10099928081035614
1772648310363732000,0.68073193359375,0.011360913515090942,0.37535715103149414,-0.08124528080224991
1772648310373772000,0.69077197265625,-0.007827289402484894,0.40276601910591125,-0.07354981452226639
1772648310383812900,0.700812744140625,-0.029006078839302063,0.4089786410331726,-0.07064590603113174
1772648310393854000,0.71085400390625,-0.05174439027905464,0.4114379286766052,-0.07517550140619278
1772648310403894000,0.72089404296875,-0.0755503848195076,0.40610361099243164,-0.07559522241353989
1772648310413934800,0.730934814453125,-0.09876961261034012,0.38396188616752625,-0.08554848283529282
1772648310423975000,0.740974853515625,-0.12221342325210571,0.34430527687072754,-0.09361306577920914
1772648310434016000,0.75101611328125,-0.15089114010334015,0.30116596817970276,-0.10348902642726898
1772648310444057000,0.76105712890625,-0.18069402873516083,0.24790647625923157,-0.10913199931383133
1772648310454097200,0.77109716796875,-0.20677176117897034,0.1968248188495636,-0.12151806056499481
1772648310464138000,0.781137939453125,-0.23145394027233124,0.16039331257343292,-0.12924842536449432
1772648310474179000,0.791178955078125,-0.2487964928150177,0.13572818040847778,-0.12800505757331848
1772648310484219100,0.80121923828125,-0.25813379883766174,0.12513704597949982,-0.11455317586660385
1772648310494260000,0.811260009765625,-0.2573939263820648,0.13679194450378418,-0.09819500148296356
1772648310504301000,0.821301025390625,-0.24127328395843506,0.1641354262828827,-0.07512270659208298
1772648310514340900,0.8313408203125,-0.2224721759557724,0.2123967409133911,-0.05368006229400635
1772648310524382000,0.8413818359375,-0.20495231449604034,0.24336503446102142,-0.0268108993768692
1772648310534422000,0.851422119140625,-0.18048329651355743,0.25488224625587463,-0.006707163527607918
1772648310544462800,0.861462890625,-0.15058664977550507,0.26323312520980835,0.005977472756057978
1772648310554504000,0.87150390625,-0.12155067920684814,0.26896581053733826,0.008334179408848286
1772648310564544000,0.8815439453125,-0.09848157316446304,0.2737669348716736,-0.011661900207400322
1772648310574585000,0.891585205078125,-0.08091828972101212,0.2775341272354126,-0.03790271282196045
1772648310584626000,0.9016259765625,-0.07452856749296188,0.26848524808883667,-0.07701575756072998
1772648310594666000,0.911666015625,-0.06600063294172287,0.2572011649608612,-0.126866415143013
1772648310604707000,0.92170703125,-0.048878107219934464,0.2388429492712021,-0.15958814322948456
1772648310614748000,0.931747802734375,-0.03396482393145561,0.19388681650161743,-0.16079702973365784
1772648310624788000,0.9417880859375,-0.013890715315937996,0.1377449929714203,-0.1555607169866562
1772648310634829000,0.9518291015625,0.021620020270347595,0.10763522982597351,-0.14957398176193237
1772648310644869000,0.961869140625,0.05812263488769531,0.0818323940038681,-0.13875995576381683
1772648310654910200,0.97191015625,0.08866428583860397,0.0469563789665699,-0.1335241198539734
1772648310664951000,0.981950927734375,0.11272834241390228,0.004544207360595465,-0.13749969005584717
1772648310674990800,0.991990966796875,0.12904465198516846,-0.03887719288468361,-0.13464896380901337
1772648310685032000,1.002031982421875,0.1437745988368988,-0.08652008324861526,-0.11917173862457275
1772648310695072800,1.01207275390625,0.15359067916870117,-0.1398235708475113,-0.09320967644453049
1772648310705112800,1.02211279296875,0.16516077518463135,-0.20546889305114746,-0.05647217109799385
1772648310715154000,1.03215380859375,0.18411681056022644,-0.26638689637184143,-0.010045047849416733
1772648310725195000,1.042195068359375,0.20822907984256744,-0.29812777042388916,0.038319554179906845
1772648310735235000,1.052235107421875,0.23149816691875458,-0.31767526268959045,0.07528571784496307
1772648310745276000,1.06227587890625,0.24660521745681763,-0.34881559014320374,0.11203467845916748
1772648310755316000,1.07231591796875,0.25517237186431885,-0.39592763781547546,0.16338832676410675
1772648310765357000,1.082357177734375,0.2528301477432251,-0.43800583481788635,0.21456070244312286
1772648310775398000,1.09239794921875,0.23455938696861267,-0.46423712372779846,0.243325337767601
1772648310785438000,1.10243798828125,0.20596954226493835,-0.4558905065059662,0.23545755445957184
1772648310795479000,1.11247900390625,0.18090437352657318,-0.3926626741886139,0.20626647770404816
1772648310805520100,1.12252001953125,0.1662692427635193,-0.2791537046432495,0.1798125058412552
1772648310815560000,1.132559814453125,0.16289710998535156,-0.1462535560131073,0.15871690213680267
1772648310825600800,1.142600830078125,0.170765683054924,-0.027617450803518295,0.15612564980983734
1772648310835640800,1.152640869140625,0.17209511995315552,0.08159500360488892,0.1656147986650467
1772648310845682000,1.162681884765625,0.16269417107105255,0.12758566439151764,0.1727704405784607
1772648310855723000,1.172722900390625,0.13405275344848633,0.11901821941137314,0.19411875307559967
1772648310865763000,1.18276318359375,0.08725115656852722,0.06963974982500076,0.21376729011535645
1772648310875804000,1.192803955078125,0.02553531341254711,0.011157478205859661,0.198878675699234
1772648310885845000,1.202844970703125,-0.04026287794113159,-0.04671407863497734,0.15550430119037628
1772648310895885000,1.212885009765625,-0.09042277932167053,-0.10771606862545013,0.1457284390926361
1772648310905926000,1.22292578125,-0.11432571709156036,-0.14876176416873932,0.16651707887649536
1772648310915967000,1.232967041015625,-0.1107783392071724,-0.1917317807674408,0.21973420679569244
1772648310926007000,1.243007080078125,-0.09386087954044342,-0.23148983716964722,0.2819296717643738
1772648310936048000,1.253048095703125,-0.08725977689027786,-0.26110851764678955,0.30971360206604004
1772648310946088200,1.263088134765625,-0.07158893346786499,-0.2643250823020935,0.31944745779037476
1772648310956129000,1.27312890625,-0.053505074232816696,-0.25151515007019043,0.31852075457572937
1772648310966170000,1.283170166015625,-0.05198387801647186,-0.2491510510444641,0.33138835430145264
1772648310976210200,1.293210205078125,-0.06678824871778488,-0.26960569620132446,0.3411257565021515
1772648310986251000,1.3032509765625,-0.05883418768644333,-0.2951211631298065,0.3319748640060425
1772648310996292000,1.3132919921875,-0.06351910531520844,-0.315382182598114,0.2998931407928467
1772648311006332200,1.323332275390625,-0.08048130571842194,-0.3142404854297638,0.25425589084625244
1772648311016373200,1.333373291015625,-0.08014946430921555,-0.3188784718513489,0.20844696462154388
1772648311026414000,1.3434140625,-0.05648994445800781,-0.3077635169029236,0.18338900804519653
1772648311036454100,1.3534541015625,-0.019071295857429504,-0.2971184551715851,0.1740141659975052
1772648311046495200,1.3634951171875,-0.03358978405594826,-0.2955860495567322,0.16333302855491638
1772648311056535300,1.373535400390625,-0.02907922863960266,-0.2963562607765198,0.13047708570957184
1772648311066576100,1.383576171875,-0.020222622901201248,-0.2829536199569702,0.09701552242040634
1772648311076617200,1.3936171875,-0.011989476159214973,-0.2581031322479248,0.06697153300046921
1772648311086657300,1.4036572265625,-0.0055930959060788155,-0.23231546580791473,0.041328754276037216
1772648311096698400,1.413698486328125,0.005590745247900486,-0.20260924100875854,0.021762149408459663
1772648311106739200,1.4237392578125,0.04080865532159805,-0.1710348129272461,0.01927262730896473
1772648311116779000,1.433779052734375,0.07481259107589722,-0.12302679568529129,0.024677686393260956
1772648311126820000,1.443820068359375,0.10757000744342804,-0.06273655593395233,0.03618786484003067
1772648311136861200,1.453861083984375,0.15300779044628143,-0.019329963251948357,0.036519963294267654
1772648311146901200,1.4639013671875,0.1902257353067398,-0.0096626877784729,0.05280279368162155
1772648311156942000,1.473942138671875,0.21916325390338898,-0.0329892672598362,0.07669572532176971
1772648311166982100,1.483982177734375,0.24172209203243256,-0.07700706273317337,0.10665815323591232
1772648311177023200,1.494023193359375,0.2480737417936325,-0.13055545091629028,0.12037897109985352
1772648311187064000,1.50406396484375,0.24204355478286743,-0.18751300871372223,0.10717502236366272
1772648311197104000,1.514104248046875,0.23772597312927246,-0.2318420112133026,0.08089262992143631
1772648311207145200,1.524145263671875,0.23540128767490387,-0.27325549721717834,0.08277921378612518
1772648311217186300,1.534186279296875,0.23825417459011078,-0.3084302842617035,0.0885985791683197
1772648311227226400,1.544226318359375,0.23021835088729858,-0.34646075963974,0.08872880786657333
1772648311237267200,1.55426708984375,0.2151908576488495,-0.4016234874725342,0.07703787833452225
1772648311247308300,1.564308349609375,0.19975197315216064,-0.4565591812133789,0.06603662669658661
1772648311257348400,1.574348388671875,0.18701210618019104,-0.498645156621933,0.050782788544893265
1772648311267389200,1.58438916015625,0.17756827175617218,-0.515037477016449,0.024297652766108513
1772648311277429000,1.594428955078125,0.17382022738456726,-0.5057412981987,-0.01871614344418049
1772648311287470000,1.604469970703125,0.1634914129972458,-0.4984447658061981,-0.07531976699829102
1772648311297511200,1.61451123046875,0.14538413286209106,-0.48696276545524597,-0.09973958879709244
1772648311307551200,1.62455126953125,0.09863127768039703,-0.5463395714759827,-0.1033226028084755
1772648311317592000,1.634592041015625,0.04860461875796318,-0.6115093231201172,-0.12104827910661697
1772648311327633200,1.644633056640625,0.0349857471883297,-0.5711759924888611,-0.07339926809072495
1772648311337673200,1.654673095703125,0.02642059326171875,-0.4799097180366516,0.007230690680444241
1772648311347714300,1.66471435546875,0.01611975207924843,-0.33685746788978577,0.08404025435447693
1772648311357755100,1.674755126953125,0.047843530774116516,-0.20843379199504852,0.15571394562721252
1772648311367795200,1.684795166015625,0.09238569438457489,-0.19260449707508087,0.2197142243385315
1772648311377836300,1.694836181640625,0.13321471214294434,-0.2159174382686615,0.29029861092567444
1772648311387876400,1.70487646484375,0.20334453880786896,-0.22419027984142303,0.34862184524536133
1772648311397917200,1.714917236328125,0.26644623279571533,-0.21397902071475983,0.34999561309814453
1772648311407958300,1.724958251953125,0.3050658106803894,-0.19493556022644043,0.32389023900032043
1772648311417998000,1.734998046875,0.33133989572525024,-0.17324000597000122,0.2926556169986725
1772648311428039200,1.7450390625,0.3500179648399353,-0.1356247216463089,0.23999586701393127
1772648311438080000,1.755080078125,0.34422755241394043,-0.08377303183078766,0.17218367755413055
1772648311448120000,1.7651201171875,0.2632240355014801,-0.0693216547369957,0.12212716042995453
1772648311458161200,1.7751611328125,0.1994171440601349,-0.09474801272153854,0.08045680820941925
1772648311468201200,1.785201171875,0.14360953867435455,-0.11336564272642136,0.02678932249546051
1772648311478242000,1.795241943359375,0.04184071347117424,-0.1552383154630661,-0.04524097591638565
1772648311488283100,1.805283203125,-0.06824104487895966,-0.22281256318092346,-0.11869016289710999
1772648311498323200,1.8153232421875,-0.17710615694522858,-0.2819880247116089,-0.16137941181659698
1772648311508364300,1.8253642578125,-0.2500053942203522,-0.2949483096599579,-0.1739220917224884
1772648311518405000,1.835405029296875,-0.3224274814128876,-0.27428296208381653,-0.1664288491010666
1772648311528445200,1.845445068359375,-0.3015783727169037,-0.2110898643732071,-0.15466193854808807
1772648311538486300,1.855486328125,-0.32300886511802673,-0.133140429854393,-0.13550826907157898
1772648311548527400,1.86552734375,-0.23836001753807068,-0.02899404801428318,-0.1424465924501419
1772648311558567200,1.875567138671875,-0.21305106580257416,0.08784730732440948,-0.14325018227100372
1772648311568608300,1.885608154296875,-0.07371102273464203,0.22714847326278687,-0.13302844762802124
1772648311578648000,1.89564794921875,-0.04120150953531265,0.3834036886692047,-0.12055748701095581
1772648311588689200,1.905689208984375,0.09243831038475037,0.523813009262085,-0.1169760674238205
1772648311598730000,1.91572998046875,0.07789723575115204,0.6304695010185242,-0.1257070153951645
1772648311608770000,1.92577001953125,0.16796959936618805,0.6909900903701782,-0.1551956683397293
1772648311618811100,1.93581103515625,0.09997741878032684,0.7075278759002686,-0.19490672647953033
1772648311628852200,1.945852294921875,0.1583387404680252,0.6822970509529114,-0.2372501939535141
1772648311638892300,1.955892333984375,0.05073232203722,0.6406720280647278,-0.27141451835632324
1772648311648933000,1.96593310546875,0.0870213508605957,0.5907785296440125,-0.30666279792785645
1772648311658974200,1.97597412109375,-0.04792464151978493,0.5460126399993896,-0.3272334635257721
1772648311669014300,1.98601416015625,-0.008627036586403847,0.5013410449028015,-0.33904168009757996
1772648311679055000,1.99605517578125,-0.1348961740732193,0.460463285446167,-0.3388153612613678
1772648311689096200,2.00609619140625,-0.05164016783237457,0.42988619208335876,-0.32794061303138733
1772648311699136300,2.01613623046875,-0.1581324189901352,0.41619640588760376,-0.3114836812019348
1772648311709177300,2.02617724609375,-0.059828225523233414,0.417856901884079,-0.2932964265346527
1772648311719217400,2.036217529296875,-0.1685221940279007,0.434879332780838,-0.28187552094459534
1772648311729258200,2.04625830078125,-0.08809979259967804,0.47316014766693115,-0.28145578503608704
1772648311739299300,2.05629931640625,-0.20159555971622467,0.5166919231414795,-0.2799064517021179
1772648311749339100,2.066339111328125,-0.13386206328868866,0.5679481625556946,-0.27192601561546326
1772648311759380200,2.076380126953125,-0.2364562600851059,0.6104528307914734,-0.2567598223686218
1772648311769421000,2.086421142578125,-0.16932116448879242,0.6506918668746948,-0.23684363067150116
1772648311779461000,2.096461181640625,-0.24688465893268585,0.6720576286315918,-0.20620694756507874
1772648311789502200,2.106502197265625,-0.17648079991340637,0.6797696352005005,-0.17488445341587067
1772648311799542300,2.116542236328125,-0.24300828576087952,0.6638233661651611,-0.14445047080516815
1772648311809583000,2.1265830078125,-0.16639713943004608,0.6392098665237427,-0.12136593461036682
1772648311819624200,2.136624267578125,-0.22006924450397491,0.6033912301063538,-0.09206543862819672
1772648311829664300,2.146664306640625,-0.13478682935237885,0.5689099431037903,-0.07034976035356522
1772648311839705300,2.156705322265625,-0.17948757112026215,0.5410901308059692,-0.05681231617927551
1772648311849746200,2.16674609375,-0.1185334101319313,0.5176694989204407,-0.05860142782330513
1772648311859786200,2.1767861328125,-0.18209166824817657,0.49131497740745544,-0.0710478350520134
1772648311869827300,2.186827392578125,-0.13696493208408356,0.48491087555885315,-0.08767448365688324
1772648311879868200,2.1968681640625,-0.20389343798160553,0.4780983626842499,-0.1069631427526474
1772648311889908000,2.206907958984375,-0.1717405617237091,0.4588402509689331,-0.13119445741176605
1772648311899949000,2.216948974609375,-0.2460341453552246,0.4262090027332306,-0.1570698469877243
1772648311909990100,2.226990234375,-0.22568680346012115,0.3761828541755676,-0.1750349998474121
1772648311920030200,2.2370302734375,-0.2871705889701843,0.3097575902938843,-0.18077659606933594
1772648311930071000,2.247071044921875,-0.2593320310115814,0.26229020953178406,-0.1783861219882965
1772648311940111000,2.257111083984375,-0.29798007011413574,0.21402005851268768,-0.1794741451740265
1772648311950152200,2.267152099609375,-0.2595783472061157,0.18483659625053406,-0.18925780057907104
1772648311960193300,2.277193359375,-0.28025341033935547,0.15803442895412445,-0.1928025186061859
1772648311970233000,2.287233154296875,-0.22549830377101898,0.1414131075143814,-0.19437670707702637
1772648311980273700,2.297273681640625,-0.22107446193695068,0.14319083094596863,-0.19337165355682373
1772648311990314800,2.307314697265625,-0.15847046673297882,0.1707524210214615,-0.18524368107318878
1772648312000354800,2.317354736328125,-0.14985807240009308,0.2193160057067871,-0.16757787764072418
1772648312010395600,2.327395751953125,-0.10558196157217026,0.28354984521865845,-0.1444467306137085
1772648312020435700,2.337435791015625,-0.10609446465969086,0.34864139556884766,-0.11542844772338867
1772648312030476800,2.347476806640625,-0.0839441567659378,0.38783061504364014,-0.08394375443458557
1772648312040518000,2.357517822265625,-0.1038423627614975,0.4075533449649811,-0.06089995801448822
1772648312050557700,2.3675576171875,-0.11768867075443268,0.4182661771774292,-0.04999244585633278
1772648312060598500,2.3775986328125,-0.1580769270658493,0.42373546957969666,-0.057236332446336746
1772648312070639600,2.3876396484375,-0.19411082565784454,0.41596516966819763,-0.07345019280910492
1772648312080679700,2.3976796875,-0.23381705582141876,0.3962455093860626,-0.10397911071777344
1772648312090720800,2.407720703125,-0.2325371503829956,0.3791709244251251,-0.1500083953142166
1772648312100761600,2.41776171875,-0.220427006483078,0.33805665373802185,-0.16677828133106232
1772648312110801700,2.4278017578125,-0.19213944673538208,0.25805744528770447,-0.16617481410503387
1772648312120842800,2.4378427734375,-0.12172592431306839,0.16371218860149384,-0.16574424505233765
1772648312130882800,2.4478828125,-0.02159932069480419,0.05958019569516182,-0.15623116493225098
1772648312140923600,2.457923583984375,0.09284469485282898,-0.03188207745552063,-0.14387623965740204
1772648312150964700,2.46796484375,0.20575180649757385,-0.1451180875301361,-0.12908689677715302
1772648312161004800,2.4780048828125,0.2902930676937103,-0.2746434211730957,-0.10771892219781876
1772648312171046000,2.4880458984375,0.35136839747428894,-0.39017748832702637,-0.086042121052742
1772648312181086700,2.498086669921875,0.38433533906936646,-0.4876316487789154,-0.04811368137598038
1772648312191126800,2.508126708984375,0.3981499671936035,-0.563917338848114,-0.0024511211086064577
1772648312201168000,2.51816796875,0.3955801725387573,-0.5965368747711182,0.059958163648843765
1772648312211208700,2.528208740234375,0.3888663649559021,-0.5823638439178467,0.13862794637680054
1772648312221248500,2.53824853515625,0.3859439194202423,-0.5317910313606262,0.2224879413843155
1772648312231289600,2.54828955078125,0.388207346200943,-0.45277050137519836,0.29889246821403503
1772648312241330700,2.55833056640625,0.38946545124053955,-0.357438862323761,0.3417995870113373
1772648312251370800,2.568370849609375,0.3860693871974945,-0.25429967045783997,0.3428989350795746
1772648312261411600,2.57841162109375,0.3822647035121918,-0.13784483075141907,0.3355071544647217
1772648312271451600,2.58845166015625,0.3695718050003052,-0.014496003277599812,0.33599743247032166
1772648312281492700,2.59849267578125,0.3553183674812317,0.07945440709590912,0.3422282934188843
1772648312291533800,2.608533935546875,0.3391132950782776,0.13052263855934143,0.33705511689186096
1772648312301573600,2.61857373046875,0.3059598207473755,0.1322394460439682,0.29436445236206055
1772648312311614700,2.62861474609375,0.26379692554473877,0.09599380940198898,0.22119411826133728
1772648312321655800,2.63865576171875,0.22108666598796844,0.020121300593018532,0.13112875819206238
1772648312331695900,2.64869580078125,0.1802058070898056,-0.08716067671775818,0.057067036628723145
1772648312341736700,2.65873681640625,0.1379362791776657,-0.22165557742118835,0.03463182970881462
1772648312351777800,2.66877783203125,0.0932798683643341,-0.3889271318912506,0.08951904624700546
1772648312361817900,2.67881787109375,0.06270794570446014,-0.5721592903137207,0.18280473351478577
1772648312371859000,2.68885888671875,0.03522119298577309,-0.718732476234436,0.2109450250864029
1772648312381898800,2.698898681640625,0.01945708505809307,-0.8115838766098022,0.21955573558807373
1772648312391939600,2.708939697265625,0.016853047534823418,-0.8867089748382568,0.30298912525177
1772648312401980700,2.718980712890625,-0.002058557700365782,-0.9522152543067932,0.37052226066589355
1772648312412020700,2.729020751953125,-0.026400115340948105,-0.9889751076698303,0.39450109004974365
1772648312422061600,2.7390615234375,-0.044167451560497284,-0.9665006995201111,0.38526517152786255
1772648312432102700,2.7491025390625,-0.048337165266275406,-0.9076054096221924,0.3569680154323578
1772648312442142700,2.759142822265625,-0.04103292152285576,-0.8271008133888245,0.3250906765460968
1772648312452183800,2.769183837890625,-0.03453267738223076,-0.7554168105125427,0.2980894148349762
1772648312462224600,2.779224609375,-0.02903343364596367,-0.6750479936599731,0.27424708008766174
1772648312472264700,2.7892646484375,-0.043317295610904694,-0.6095613837242126,0.2542989253997803
1772648312482305800,2.799305908203125,-0.04596475139260292,-0.5459873676300049,0.21884016692638397
1772648312492345900,2.809345947265625,-0.02767709270119667,-0.4796770513057709,0.19548504054546356
1772648312502386700,2.81938671875,-0.020742686465382576,-0.4178619980812073,0.19427615404129028
1772648312512427800,2.829427734375,-0.01830083318054676,-0.36426135897636414,0.20335566997528076
1772648312522467600,2.839467529296875,-0.018786214292049408,-0.3078240156173706,0.22637996077537537
1772648312532508700,2.8495087890625,-0.01163669303059578,-0.24367272853851318,0.2459549903869629
1772648312542549500,2.859549560546875,0.007690674625337124,-0.1811809539794922,0.25866183638572693
1772648312552589600,2.869589599609375,0.03105032444000244,-0.11316701769828796,0.2558996081352234
1772648312562630700,2.879630615234375,0.06776323169469833,-0.04493257775902748,0.2265152633190155
1772648312572671700,2.889671630859375,0.10886938869953156,0.017787527292966843,0.18524505198001862
1772648312582711800,2.8997119140625,0.15937340259552002,0.06039438024163246,0.1452079862356186
1772648312592752600,2.909752685546875,0.1497146487236023,0.08366189152002335,0.126255601644516
1772648312602792700,2.919792724609375,0.16089661419391632,0.09437423199415207,0.09817080944776535
1772648312612833800,2.929833740234375,0.1717577874660492,0.10299834609031677,0.07356293499469757
1772648312622874600,2.93987451171875,0.17860811948776245,0.1037343442440033,0.06353315711021423
1772648312632914700,2.949914794921875,0.19285441935062408,0.10383713990449905,0.07262971997261047
1772648312642955800,2.959955810546875,0.2078038603067398,0.08595806360244751,0.0868036076426506
1772648312652996900,2.969996826171875,0.2173779159784317,0.06063379347324371,0.0857231616973877
1772648312663037000,2.980036865234375,0.23585715889930725,0.026128016412258148,0.07673615217208862
1772648312673077800,2.990077880859375,0.23723481595516205,-0.04680611193180084,0.063632071018219
1772648312683118800,3.000118896484375,0.25054478645324707,-0.13042712211608887,0.06469458341598511
1772648312693158700,3.01015869140625,0.269527792930603,-0.22242362797260284,0.07798641920089722
1772648312703199700,3.02019970703125,0.27014079689979553,-0.324179083108902,0.08753249049186707
1772648312713240600,3.030240478515625,0.25095564126968384,-0.4175494909286499,0.0899951159954071
1772648312723280600,3.04028076171875,0.22285649180412292,-0.5118004679679871,0.08622327446937561
1772648312733321700,3.05032177734375,0.20230089128017426,-0.573513388633728,0.0696038156747818
1772648312743361800,3.06036181640625,0.19326643645763397,-0.5704100131988525,0.04021484777331352
1772648312753402600,3.070402587890625,0.18076449632644653,-0.5355436205863953,0.007764764130115509
1772648312763443700,3.080443603515625,0.16622844338417053,-0.5076825618743896,-0.038744308054447174
1772648312773483800,3.09048388671875,0.15523889660835266,-0.45058757066726685,-0.10180556029081345
1772648312783524900,3.10052490234375,0.13821880519390106,-0.40928852558135986,-0.15785013139247894
1772648312793565700,3.110565673828125,0.08895459026098251,-0.4138539731502533,-0.16902820765972137
1772648312803605800,3.120605712890625,0.016782663762569427,-0.48906210064888,-0.13704316318035126
1772648312813646800,3.130646728515625,-0.03730560839176178,-0.49178093671798706,-0.05819015949964523
1772648312823687700,3.140687744140625,-0.08605027943849564,-0.42300480604171753,0.0917830765247345
1772648312833727700,3.150727783203125,-0.096697598695755,-0.2962189018726349,0.21561047434806824
1772648312843768800,3.160768798828125,-0.11016218364238739,-0.13792893290519714,0.33762016892433167
1772648312853808600,3.17080859375,-0.10571150481700897,0.014369524084031582,0.4239281415939331
1772648312863849700,3.180849609375,-0.09409482032060623,0.14396128058433533,0.4282132089138031
1772648312873890600,3.190890625,-0.09530389308929443,0.24035626649856567,0.3821016550064087
1772648312883930600,3.2009306640625,-0.10890722274780273,0.2784577012062073,0.3474733531475067
1772648312893971700,3.2109716796875,-0.1356421709060669,0.30436253547668457,0.33096015453338623
1772648312904012800,3.2210126953125,-0.13561083376407623,0.3888704776763916,0.2787109613418579
1772648312914052600,3.231052490234375,-0.12148650735616684,0.49321871995925903,0.22253797948360443
1772648312924093700,3.24109375,-0.1015850305557251,0.5797582864761353,0.17463363707065582
1772648312934134800,3.251134765625,-0.08846523612737656,0.5968815684318542,0.15290357172489166
1772648312944174800,3.2611748046875,-0.08368051052093506,0.5338971018791199,0.1440805196762085
1772648312954215700,3.271215576171875,-0.08501315116882324,0.4246806204319,0.11236785352230072
1772648312964256800,3.2812568359375,-0.10155980288982391,0.26419562101364136,0.05864986032247543
1772648312974296800,3.291296875,-0.13981744647026062,0.07412127405405045,0.0029357350431382656
1772648312984338000,3.301337890625,-0.17399251461029053,-0.09528026729822159,-0.03980834037065506
1772648312994378000,3.3113779296875,-0.20281217992305756,-0.22270481288433075,-0.06097914278507233
1772648313004419000,3.321419189453125,-0.2183050960302353,-0.2977448105812073,-0.10709725320339203
1772648313014460200,3.331460205078125,-0.230858713388443,-0.30389270186424255,-0.14421479403972626
1772648313024500200,3.341500244140625,-0.23784327507019043,-0.25901108980178833,-0.17151141166687012
1772648313034541000,3.351541015625,-0.22647184133529663,-0.16312451660633087,-0.1904270350933075
1772648313044582100,3.36158203125,-0.1866438239812851,-0.016483889892697334,-0.20757687091827393
1772648313054622200,3.371622314453125,-0.12140701711177826,0.1617303192615509,-0.21006692945957184
1772648313064663300,3.381663330078125,-0.046548739075660706,0.3357301354408264,-0.19938556849956512
1772648313074704100,3.3917041015625,0.028866657987236977,0.48616012930870056,-0.2078419029712677
1772648313084744200,3.401744140625,0.07608672976493835,0.5861722826957703,-0.215117409825325
1772648313094785300,3.411785400390625,0.10385524481534958,0.6168737411499023,-0.23515823483467102
1772648313104825000,3.4218251953125,0.10485469549894333,0.592676043510437,-0.2668938636779785
1772648313114866000,3.431865966796875,0.08662162721157074,0.5297799110412598,-0.3012219965457916
1772648313124907000,3.441906982421875,0.055410973727703094,0.4645661413669586,-0.3174591362476349
1772648313134947000,3.451947021484375,0.02342028170824051,0.4137466251850128,-0.32587552070617676
1772648313144988200,3.46198828125,-0.010992893949151039,0.3808884918689728,-0.3146545886993408
1772648313155029000,3.472029052734375,-0.042867470532655716,0.35934510827064514,-0.3021206855773926
1772648313165069000,3.482069091796875,-0.07016090303659439,0.34692126512527466,-0.28202933073043823
1772648313175110100,3.492110107421875,-0.0878773182630539,0.3377951383590698,-0.2531084716320038
1772648313185151000,3.50215087890625,-0.09219508618116379,0.34629347920417786,-0.23050186038017273
1772648313195191000,3.51219091796875,-0.09260042011737823,0.3742590546607971,-0.20737522840499878
1772648313205232000,3.522232177734375,-0.0899691954255104,0.39998993277549744,-0.188942089676857
1772648313215272200,3.532272216796875,-0.0925508663058281,0.4267706871032715,-0.18270178139209747
1772648313225313300,3.542313232421875,-0.10331089794635773,0.44371896982192993,-0.18203994631767273
1772648313235354000,3.55235400390625,-0.12171520292758942,0.4489733874797821,-0.19449475407600403
1772648313245394000,3.562393798828125,-0.13479630649089813,0.44700536131858826,-0.20195263624191284
1772648313255435000,3.57243505859375,-0.1386919766664505,0.4408545196056366,-0.2018575519323349
1772648313265476000,3.58247607421875,-0.13452975451946259,0.42644718289375305,-0.19456279277801514
1772648313275516200,3.59251611328125,-0.13493481278419495,0.4081624448299408,-0.17485061287879944
1772648313285557000,3.602556884765625,-0.14638333022594452,0.3839706778526306,-0.14160339534282684
1772648313295598000,3.61259814453125,-0.15677684545516968,0.35258185863494873,-0.10624592751264572
1772648313305638100,3.62263818359375,-0.16809968650341034,0.31537625193595886,-0.08656565099954605
1772648313315679000,3.632678955078125,-0.1817489117383957,0.26316070556640625,-0.06776612997055054
1772648313325720000,3.642719970703125,-0.2034613937139511,0.201100155711174,-0.04934147372841835
1772648313335760100,3.652760009765625,-0.23335669934749603,0.11472319066524506,-0.04939233884215355
1772648313345801200,3.66280126953125,-0.26677602529525757,0.023942939937114716,-0.07191099971532822
1772648313355841300,3.67284130859375,-0.291472852230072,-0.027582569047808647,-0.10286518931388855
1772648313365882000,3.682882080078125,-0.304970920085907,-0.04252534732222557,-0.12255272269248962
1772648313375923200,3.692923095703125,-0.3195946216583252,-0.02656848542392254,-0.13897190988063812
1772648313385963300,3.70296337890625,-0.33971521258354187,-0.0016093372832983732,-0.150106742978096
1772648313396004000,3.713004150390625,-0.339185506105423,0.0396701917052269,-0.16874808073043823
1772648313406045200,3.723045166015625,-0.312391996383667,0.10578680038452148,-0.18622314929962158
1772648313416085000,3.7330849609375,-0.2709881067276001,0.18158860504627228,-0.20873378217220306
1772648313426126000,3.7431259765625,-0.23628070950508118,0.25587812066078186,-0.23021116852760315
1772648313436167000,3.7531669921875,-0.20736438035964966,0.33102986216545105,-0.2549058794975281
1772648313446207000,3.76320703125,-0.18233469128608704,0.4163455367088318,-0.2636663615703583
1772648313456248000,3.773248046875,-0.1642310470342636,0.5053039193153381,-0.2620953619480133
1772648313466288000,3.7832880859375,-0.14588698744773865,0.6052325367927551,-0.25213778018951416
1772648313476329200,3.7933291015625,-0.12842623889446259,0.70452481508255,-0.2367659956216812
1772648313486370000,3.8033701171875,-0.10507455468177795,0.7933059930801392,-0.23916490375995636
1772648313496410000,3.81341015625,-0.07643651962280273,0.8543738722801208,-0.27758845686912537
1772648313506451200,3.823451171875,-0.04534709081053734,0.8601395487785339,-0.3012330234050751
1772648313516492000,3.833491943359375,-0.02038528397679329,0.7155187129974365,-0.2972414791584015
1772648313526532000,3.843531982421875,0.03631386160850525,0.5129132270812988,-0.3268493115901947
1772648313536573200,3.8535732421875,0.13563352823257446,0.3494877517223358,-0.34790506958961487
1772648313546614300,3.8636142578125,0.23724700510501862,0.20635372400283813,-0.34984108805656433
1772648313556654300,3.873654296875,0.311173677444458,0.09558458626270294,-0.3444138169288635
1772648313566695200,3.883695068359375,0.34254178404808044,0.012913145124912262,-0.29824942350387573
1772648313576736300,3.893736328125,0.34486672282218933,-0.05246160179376602,-0.23779648542404175
1772648313586776000,3.903776123046875,0.3445485234260559,-0.09567362070083618,-0.14842386543750763
1772648313596817000,3.91381689453125,0.33156508207321167,-0.14908571541309357,-0.032556913793087006
1772648313606857000,3.92385693359375,0.32961955666542053,-0.22352531552314758,0.06368882954120636
1772648313616898000,3.93389794921875,0.35352861881256104,-0.30486971139907837,0.1162676215171814
1772648313626939100,3.943939208984375,0.39815428853034973,-0.35959890484809875,0.14985062181949615
1772648313636979200,3.953979248046875,0.4424210786819458,-0.3664240539073944,0.19116370379924774
1772648313647020000,3.96402001953125,0.4740304946899414,-0.33897122740745544,0.2446593940258026
1772648313657061000,3.97406103515625,0.471853107213974,-0.3198681175708771,0.286212682723999
1772648313667101200,3.98410107421875,0.43090128898620605,-0.3209121823310852,0.28230711817741394
1772648313677142000,3.99414208984375,0.36966538429260254,-0.3043228089809418,0.2262481302022934
1772648313687183000,4.00418310546875,0.2946590185165405,-0.2455906867980957,0.15697066485881805
1772648313697223200,4.01422314453125,0.22782377898693085,-0.18674281239509583,0.12038522958755493
1772648313707264300,4.02426416015625,0.1825416386127472,-0.14376337826251984,0.06969237327575684
1772648313717305000,4.03430517578125,0.1515943706035614,-0.12380006909370422,0.011375540867447853
1772648313727345000,4.044344970703125,0.11867554485797882,-0.13110293447971344,-0.045130468904972076
1772648313737386000,4.054385986328125,0.08798554539680481,-0.16939572989940643,-0.0797656774520874
1772648313747426000,4.064426025390625,0.06507594138383865,-0.2574193775653839,-0.07819308340549469
1772648313757467100,4.074467041015625,0.04296344518661499,-0.3759457468986511,-0.07102332264184952
1772648313767508000,4.084508056640625,0.01836773380637169,-0.5080466270446777,-0.04396261274814606
1772648313777548000,4.094548095703125,-0.001187857473269105,-0.6194815635681152,0.0035838682670146227
1772648313787589000,4.104589111328125,-0.00020362972281873226,-0.6917997598648071,0.07130082696676254
1772648313797630000,4.1146298828125,0.03280492126941681,-0.7239167094230652,0.17380458116531372
1772648313807670000,4.124669921875,0.0651010200381279,-0.7491618394851685,0.26973608136177063
1772648313817711000,4.134711181640625,0.062000565230846405,-0.7749282121658325,0.31765514612197876
1772648313827752200,4.144752197265625,0.06172880157828331,-0.7740327715873718,0.33341866731643677
1772648313837792300,4.154792236328125,0.06021080166101456,-0.7606056332588196,0.3396850824356079
1772648313847833000,4.1648330078125,0.04748308286070824,-0.7380146384239197,0.32533109188079834
1772648313857874200,4.174874267578125,0.018900709226727486,-0.7133881449699402,0.2833956182003021
1772648313867914200,4.184914306640625,-0.00037171156145632267,-0.676757276058197,0.22571340203285217
1772648313877955000,4.194955078125,-0.011793477460741997,-0.6537629961967468,0.17195004224777222
1772648313887995000,4.204994873046875,-0.02758295089006424,-0.6486594676971436,0.11947058886289597
1772648313898036000,4.215035888671875,-0.0549812838435173,-0.6667790412902832,0.06724520027637482
1772648313908077000,4.2250771484375,-0.07500181347131729,-0.6970173716545105,0.025611279532313347
1772648313918117000,4.2351171875,-0.06569859385490417,-0.7182390689849854,0.015154112130403519
1772648313928158000,4.245157958984375,-0.04908088967204094,-0.7338066101074219,0.030285757035017014
1772648313938199000,4.255198974609375,-0.028233401477336884,-0.7434155344963074,0.049605924636125565
1772648313948239000,4.265239013671875,-0.010466422885656357,-0.7329633235931396,0.06250637024641037
1772648313958280200,4.2752802734375,0.002743121702224016,-0.700376033782959,0.072547547519207
1772648313968321000,4.285321044921875,0.024970758706331253,-0.6488544344902039,0.06790804117918015
1772648313978361000,4.295361083984375,0.04974188283085823,-0.5769386887550354,0.0501713901758194
1772648313988402000,4.30540185546875,0.08511979877948761,-0.49289289116859436,0.021168535575270653
1772648313998443000,4.315443115234375,0.1167440339922905,-0.41204115748405457,-0.006707305088639259
1772648314008482800,4.32548291015625,0.1400577872991562,-0.34648099541664124,-0.022072553634643555
1772648314018524000,4.33552392578125,0.16236816346645355,-0.30949583649635315,-0.029044706374406815
1772648314028565000,4.34556494140625,0.17857208847999573,-0.27444761991500854,-0.021562587469816208
1772648314038605000,4.35560498046875,0.1891498863697052,-0.21712389588356018,-0.0008378678467124701
1772648314048646000,4.36564599609375,0.18197523057460785,-0.15412163734436035,0.027038030326366425
1772648314058686000,4.37568603515625,0.15915831923484802,-0.08016673475503922,0.05175136774778366
1772648314068727000,4.38572705078125,0.13969044387340546,-0.011271337978541851,0.06786149740219116
1772648314078768000,4.39576806640625,0.125247061252594,0.03425753116607666,0.08009286224842072
1772648314088808000,4.405807861328125,0.11170914024114609,0.042538899928331375,0.08657393604516983
1772648314098849000,4.41584912109375,0.10123945772647858,0.027897635474801064,0.0741438940167427
1772648314108890000,4.42589013671875,0.0970550924539566,-0.0034506989177316427,0.06822662055492401
1772648314118930000,4.435929931640625,0.07794079184532166,-0.036710117012262344,0.07763317227363586
1772648314128970800,4.445970703125,0.059974052011966705,-0.07122505456209183,0.07028988748788834
1772648314139011800,4.45601171875,0.03658750280737877,-0.09453064203262329,0.06828399002552032
1772648314149052000,4.466052001953125,0.02881190925836563,-0.07719655334949493,0.06696084141731262
1772648314159093000,4.476093017578125,0.03085348941385746,-0.033824581652879715,0.07002454251050949
1772648314169133800,4.4861337890625,0.02921394258737564,-0.014949426986277103,0.07636543363332748
1772648314179174000,4.496173828125,0.021617276594042778,-0.03579531982541084,0.048698119819164276
1772648314189215000,4.506215087890625,0.01994037814438343,-0.0683363825082779,-0.01218175794929266
1772648314199255000,4.516255126953125,0.007599289529025555,-0.11713826656341553,-0.09327740967273712
1772648314209296000,4.5262958984375,-0.020567528903484344,-0.15734560787677765,-0.14137932658195496
1772648314219337000,4.5363369140625,-0.06978461146354675,-0.23542603850364685,-0.14670032262802124
1772648314229377000,4.546376953125,-0.14268085360527039,-0.30506205558776855,-0.17220298945903778
1772648314239418000,4.556418212890625,-0.22561675310134888,-0.321429044008255,-0.14533035457134247
1772648314249459000,4.566458984375,-0.2571401000022888,-0.30262723565101624,-0.04470699653029442
1772648314259499000,4.5764990234375,-0.22708019614219666,-0.1787220537662506,0.11138539761304855
1772648314269540000,4.5865400390625,-0.13012871146202087,0.014668602496385574,0.25889891386032104
1772648314279581200,4.596581298828125,-0.04663035273551941,0.12746411561965942,0.33549970388412476
1772648314289621000,4.60662109375,-0.002759902738034725,0.1619432121515274,0.34023988246917725
1772648314299661800,4.616661865234375,0.010624878108501434,0.12221045047044754,0.3117256760597229
1772648314309703000,4.626702880859375,0.03145866468548775,0.09091921895742416,0.26457682251930237
1772648314319743000,4.636742919921875,0.06887181848287582,0.11282238364219666,0.21322894096374512
1772648314329783800,4.64678369140625,0.10425117611885071,0.14832621812820435,0.1507875919342041
1772648314339825000,4.656824951171875,0.12276547402143478,0.17602361738681793,0.087615005671978
1772648314349865000,4.666864990234375,0.11085443943738937,0.1770704984664917,0.041393425315618515
1772648314359906000,4.676906005859375,0.08528435975313187,0.17403316497802734,-0.00855895597487688
1772648314369947000,4.68694677734375,0.06140798330307007,0.17463818192481995,-0.04155528545379639
1772648314379987000,4.696987060546875,0.021619822829961777,0.14708352088928223,-0.04030519723892212
1772648314390028000,4.707028076171875,-0.04201966151595116,0.07949569821357727,-0.01398658100515604
1772648314400068000,4.717068115234375,-0.11314577609300613,-0.006386191584169865,0.005052889697253704
1772648314410109000,4.72710888671875,-0.1794152706861496,-0.06857946515083313,0.009029241278767586
1772648314420150000,4.73714990234375,-0.23899230360984802,-0.10447195917367935,0.012718251906335354
1772648314430190000,4.747190185546875,-0.2823137640953064,-0.1049429178237915,0.0288834311068058
1772648314440231200,4.757231201171875,-0.30225950479507446,-0.0722920298576355,0.03958507627248764
1772648314450272000,4.76727197265625,-0.3070484697818756,-0.004758147522807121,0.03973802551627159
1772648314460311800,4.777311767578125,-0.29626694321632385,0.09732428193092346,0.023159580305218697
1772648314470353000,4.787352783203125,-0.25940316915512085,0.2310275286436081,-0.00029998132959008217
1772648314480394000,4.79739404296875,-0.19921255111694336,0.37880927324295044,-0.0047485255636274815
1772648314490434000,4.80743408203125,-0.1175464317202568,0.5440739989280701,0.0018277302151545882
1772648314500475000,4.817474853515625,-0.0391261950135231,0.6895976662635803,0.012179969809949398
1772648314510516000,4.827515869140625,0.02165948785841465,0.7994750142097473,0.02271941490471363
1772648314520556000,4.83755615234375,0.06236377730965614,0.8688045740127563,0.017699889838695526
1772648314530596900,4.847596923828125,0.08087422698736191,0.888751745223999,-0.013592729344964027
1772648314540638000,4.857637939453125,0.08068274706602097,0.8544725775718689,-0.06408466398715973
1772648314550678000,4.867677978515625,0.054287850856781006,0.7742404937744141,-0.12764385342597961
1772648314560719000,4.877718994140625,0.003088313154876232,0.6731817722320557,-0.20000912249088287
1772648314570759200,4.88775927734375,-0.05825396627187729,0.5866326689720154,-0.279641330242157
1772648314580800000,4.897800048828125,-0.11928004026412964,0.528605043888092,-0.33555200695991516
1772648314590841000,4.907841064453125,-0.1729292869567871,0.4952411651611328,-0.35714155435562134
1772648314600881000,4.917880859375,-0.2073887288570404,0.4936922788619995,-0.3588228225708008
1772648314610922000,4.927921875,-0.21456202864646912,0.5195252895355225,-0.3348798155784607
1772648314620963000,4.937963134765625,-0.20824980735778809,0.540553092956543,-0.29731857776641846
1772648314631003000,4.9480029296875,-0.19389060139656067,0.5535630583763123,-0.26327961683273315
1772648314641044000,4.9580439453125,-0.18205684423446655,0.5662977695465088,-0.2380235344171524
1772648314651084800,4.968084716796875,-0.1791076511144638,0.5868707895278931,-0.2238239049911499
1772648314661124900,4.978124755859375,-0.18174897134304047,0.6161823272705078,-0.21314942836761475
1772648314671166000,4.988166015625,-0.18175365030765533,0.6587790250778198,-0.2072189599275589
1772648314681207000,4.99820703125,-0.19095593690872192,0.6992889046669006,-0.2012004852294922
1772648314691247000,5.0082470703125,-0.19739265739917755,0.7225449085235596,-0.18642696738243103
1772648314701288000,5.018287841796875,-0.20763170719146729,0.7128331661224365,-0.1690482348203659
1772648314711329000,5.0283291015625,-0.21544672548770905,0.6904182434082031,-0.14983411133289337
1772648314721369000,5.038369140625,-0.21430528163909912,0.6575282216072083,-0.13011473417282104
1772648314731410000,5.048409912109375,-0.21851490437984467,0.6172694563865662,-0.11197689175605774
1772648314741451000,5.058450927734375,-0.22227981686592102,0.5703999400138855,-0.09528739750385284
1772648314751491000,5.068490966796875,-0.2235005795955658,0.5272927284240723,-0.08413788676261902
1772648314761532200,5.0785322265625,-0.22789612412452698,0.4934748709201813,-0.07705841213464737
1772648314771572000,5.088572021484375,-0.2375873178243637,0.474328875541687,-0.06913303583860397
1772648314781612800,5.09861279296875,-0.2572142779827118,0.45981651544570923,-0.0641460046172142
1772648314791654000,5.10865380859375,-0.2789715826511383,0.4488752484321594,-0.06817763298749924
1772648314801694000,5.11869384765625,-0.3079015016555786,0.446815550327301,-0.08726583421230316
1772648314811735000,5.128735107421875,-0.34376007318496704,0.43731582164764404,-0.10157843679189682
1772648314821776000,5.13877587890625,-0.3747808635234833,0.44559770822525024,-0.09576448798179626
1772648314831816000,5.14881591796875,-0.38307327032089233,0.48798826336860657,-0.0758148580789566
1772648314841857000,5.15885693359375,-0.3754822015762329,0.568459689617157,-0.05268396437168121
1772648314851897900,5.16889794921875,-0.3582669198513031,0.6587780117988586,-0.042550988495349884
1772648314861938000,5.17893798828125,-0.34138861298561096,0.7325310707092285,-0.04578859359025955
1772648314871979000,5.18897900390625,-0.3255659341812134,0.7839145064353943,-0.05496912822127342
1772648314882020000,5.19902001953125,-0.31185972690582275,0.8155709505081177,-0.07757190614938736
1772648314892060200,5.20906005859375,-0.300074964761734,0.8233827948570251,-0.10800651460886002
1772648314902101000,5.21910107421875,-0.29305407404899597,0.8256465196609497,-0.13792578876018524
1772648314912142000,5.22914208984375,-0.2903229594230652,0.8206918835639954,-0.16472484171390533
1772648314922182100,5.23918212890625,-0.29344630241394043,0.8000739812850952,-0.17821669578552246
1772648314932223000,5.249222900390625,-0.294953316450119,0.7738355994224548,-0.1825800985097885
1772648314942264000,5.25926416015625,-0.30700892210006714,0.7513920664787292,-0.18716205656528473
1772648314952303900,5.269303955078125,-0.30776283144950867,0.7245519757270813,-0.19854433834552765
1772648314962345000,5.279344970703125,-0.2839203476905823,0.688184380531311,-0.2411559820175171
1772648314972385000,5.289385009765625,-0.250825434923172,0.6478390693664551,-0.22976717352867126
1772648314982426000,5.299426025390625,-0.21793939173221588,0.5983628630638123,-0.20949305593967438
1772648314992467200,5.30946728515625,-0.14599022269248962,0.5691130757331848,-0.2068185806274414
1772648315002507300,5.31950732421875,-0.06391452997922897,0.49214425683021545,-0.2054968625307083
1772648315012548000,5.329548095703125,0.02125455252826214,0.380952388048172,-0.21192201972007751
1772648315022589200,5.339589111328125,0.128251314163208,0.26891958713531494,-0.2520236372947693
1772648315032629200,5.349629150390625,0.2111189216375351,0.15419912338256836,-0.281633585691452
1772648315042670300,5.35967041015625,0.25987792015075684,0.03295418620109558,-0.2857534885406494
1772648315052711200,5.369711181640625,0.28341275453567505,-0.07445040345191956,-0.25825920701026917
1772648315062751200,5.379751220703125,0.29088321328163147,-0.1767922192811966,-0.184484601020813
1772648315072792300,5.389792236328125,0.28292614221572876,-0.2664248049259186,-0.06429232656955719
1772648315082833400,5.39983349609375,0.2773292362689972,-0.30991077423095703,0.07823632657527924
1772648315092873200,5.409873291015625,0.28801706433296204,-0.28252264857292175,0.20990045368671417
1772648315102914300,5.419914306640625,0.3008556365966797,-0.2367279976606369,0.313860684633255
1772648315112955400,5.429955322265625,0.3030012249946594,-0.18939948081970215,0.38842228055000305
1772648315122995200,5.4399951171875,0.3071696162223816,-0.1130644828081131,0.44419607520103455
1772648315133036000,5.4500361328125,0.30864500999450684,-0.020654447376728058,0.4717473089694977
1772648315143077000,5.4600771484375,0.30075910687446594,0.04480205848813057,0.46270403265953064
1772648315153117200,5.4701171875,0.28277280926704407,0.09236717969179153,0.4149917662143707
1772648315163158300,5.480158203125,0.26331204175949097,0.13783106207847595,0.35030972957611084
1772648315173199000,5.49019921875,0.24167534708976746,0.17181193828582764,0.2808530628681183
1772648315183239200,5.5002392578125,0.23795251548290253,0.18145842850208282,0.23600196838378906
1772648315193280300,5.5102802734375,0.22529397904872894,0.15979832410812378,0.1882859170436859
1772648315203321300,5.5203212890625,0.17554666101932526,0.10268149524927139,0.10560435056686401
1772648315213361200,5.530361083984375,0.11439970135688782,-0.0024546191561967134,0.049364931881427765
1772648315223402200,5.54040234375,0.054915063083171844,-0.11329059302806854,0.02003021165728569
1772648315233442300,5.5504423828125,0.004506269004195929,-0.2322492003440857,0.02622928097844124
1772648315243483400,5.5604833984375,-0.040332842618227005,-0.35911980271339417,0.061533477157354355
1772648315253524200,5.570524169921875,-0.0786614716053009,-0.45727628469467163,0.11057344079017639
1772648315263564300,5.580564208984375,-0.09056898951530457,-0.520673930644989,0.18201886117458344
1772648315273605400,5.59060546875,-0.06653086841106415,-0.5558781027793884,0.27346059679985046
1772648315283646500,5.600646484375,-0.035586535930633545,-0.5788199305534363,0.3554409444332123
1772648315293686300,5.610686279296875,-0.0026631313376128674,-0.6193435192108154,0.4200860261917114
1772648315303727000,5.62072705078125,0.012362423352897167,-0.6659533977508545,0.4522570073604584
1772648315313768200,5.630768310546875,0.02269296534359455,-0.7125118970870972,0.43642285466194153
1772648315323808300,5.640808349609375,0.04176066443324089,-0.7250567078590393,0.39405888319015503
1772648315333849000,5.65084912109375,0.05523740127682686,-0.7391477227210999,0.35470375418663025
1772648315343890200,5.66089013671875,0.046199698001146317,-0.7650030255317688,0.3210022449493408
1772648315353930200,5.67093017578125,0.0198904350399971,-0.7975199222564697,0.2904375493526459
1772648315363971300,5.680971435546875,-0.013457400724291801,-0.8383775949478149,0.25711795687675476
1772648315374012200,5.69101220703125,-0.047101255506277084,-0.8778237700462341,0.23879411816596985
1772648315384052200,5.70105224609375,-0.07500452548265457,-0.9009746313095093,0.22837184369564056
1772648315394093300,5.71109326171875,-0.08829494565725327,-0.9006074666976929,0.23041754961013794
1772648315404134400,5.721134521484375,-0.09845437109470367,-0.8815980553627014,0.23300348222255707
1772648315414174200,5.73117431640625,-0.10408814996480942,-0.8493592143058777,0.2329602837562561
1772648315424215300,5.74121533203125,-0.10061725229024887,-0.799274742603302,0.2183443307876587
1772648315434256400,5.75125634765625,-0.08007162809371948,-0.7161750793457031,0.1791134625673294
1772648315444296200,5.761296142578125,-0.04906763508915901,-0.6104787588119507,0.11956572532653809
1772648315454337000,5.7713369140625,-0.012429454363882542,-0.5131558179855347,0.05182433873414993
1772648315464378000,5.781378173828125,0.025470523163676262,-0.43901339173316956,-0.022786252200603485
1772648315474418200,5.791418212890625,0.06340458989143372,-0.3757808804512024,-0.08398782461881638
1772648315484459300,5.801459228515625,0.09846830368041992,-0.31751757860183716,-0.11417075991630554
1772648315494500000,5.8115,0.13409848511219025,-0.26501306891441345,-0.11214543133974075
1772648315504540200,5.8215400390625,0.1635810136795044,-0.2414611279964447,-0.07021769136190414
1772648315514581200,5.831581298828125,0.18648909032344818,-0.24433588981628418,-0.002722314791753888
1772648315524621300,5.841621337890625,0.20445211231708527,-0.24259312450885773,0.08433295786380768
1772648315534662100,5.851662109375,0.22176802158355713,-0.23692288994789124,0.18142297863960266
1772648315544703200,5.861703125,0.24075236916542053,-0.22806787490844727,0.24828536808490753
1772648315554743300,5.871743408203125,0.2622848451137543,-0.21789667010307312,0.2897011935710907
1772648315564784400,5.881784423828125,0.30030226707458496,-0.2070770412683487,0.3228367865085602
1772648315574825200,5.8918251953125,0.33003631234169006,-0.2199704349040985,0.335075706243515
1772648315584865300,5.901865234375,0.3470832109451294,-0.27596792578697205,0.31874972581863403
1772648315594906400,5.91190625,0.35642942786216736,-0.3566869795322418,0.2856768071651459
1772648315604947500,5.921947509765625,0.34805405139923096,-0.446668803691864,0.26732468605041504
1772648315614987000,5.931987060546875,0.3155159056186676,-0.5317910313606262,0.25446590781211853
1772648315625028000,5.942028076171875,0.2823781669139862,-0.5586487650871277,0.24513843655586243
1772648315635069200,5.952069091796875,0.25227439403533936,-0.561461865901947,0.24945415556430817
1772648315645109200,5.962109130859375,0.2075873613357544,-0.6044878959655762,0.22672994434833527
1772648315655150000,5.972150146484375,0.15966807305812836,-0.6221041679382324,0.23955674469470978
1772648315665191200,5.982191162109375,0.13097862899303436,-0.5467220544815063,0.3647649884223938
1772648315675231200,5.992231201171875,0.09857269376516342,-0.4311935603618622,0.5037438869476318
1772648315685272300,6.002272216796875,0.0647774487733841,-0.3268061578273773,0.5503313541412354
1772648315695313200,6.012313232421875,0.035069260746240616,-0.23133568465709686,0.5208250880241394
1772648315705353200,6.022353271484375,0.027662476524710655,-0.12820982933044434,0.45694440603256226
1772648315715394300,6.032394287109375,0.011439275927841663,-0.01661650836467743,0.3843107223510742
1772648315725435100,6.04243505859375,-0.02923651598393917,0.08396629244089127,0.2898198962211609
1772648315735475200,6.05247509765625,-0.06256052106618881,0.2199137955904007,0.1656586080789566
1772648315745516300,6.062516357421875,-0.08578807860612869,0.366916298866272,0.041043173521757126
1772648315755557400,6.072557373046875,-0.10322963446378708,0.5120117664337158,-0.061514899134635925
1772648315765597400,6.082597412109375,-0.1110425516963005,0.6242325901985168,-0.11642927676439285
1772648315775638300,6.09263818359375,-0.10788975656032562,0.6673301458358765,-0.1288711279630661
1772648315785679400,6.102679443359375,-0.12746691703796387,0.6116357445716858,-0.10206108540296555
1772648315795719200,6.11271923828125,-0.16274267435073853,0.491394579410553,-0.07604286819696426
1772648315805760300,6.12276025390625,-0.20093879103660583,0.35073307156562805,-0.0557841993868351
1772648315815801000,6.132801025390625,-0.23065978288650513,0.2158343642950058,-0.04390367493033409
1772648315825841200,6.142841064453125,-0.23852063715457916,0.10232431441545486,-0.016897888854146004
1772648315835882200,6.15288232421875,-0.2150925248861313,0.021833784878253937,0.012486092746257782
1772648315845923000,6.162923095703125,-0.16740062832832336,-0.024884186685085297,0.012101531960070133
1772648315855963100,6.172963134765625,-0.10781265050172806,-0.028468746691942215,-0.016977829858660698
1772648315866004200,6.183004150390625,-0.036238860338926315,-0.0183362178504467,-0.0592842735350132
1772648315876044300,6.193044189453125,0.027228903025388718,-0.014094600453972816,-0.09495562314987183
1772648315886085400,6.20308544921875,0.07722202688455582,0.0033530991058796644,-0.13859550654888153
1772648315896126200,6.213126220703125,0.12156769633293152,0.034055195748806,-0.17516611516475677
1772648315906166300,6.223166259765625,0.16541104018688202,0.06496597081422806,-0.19287292659282684
1772648315916207400,6.233207275390625,0.19363711774349213,0.06987928599119186,-0.1962839663028717
1772648315926248200,6.243248291015625,0.20173391699790955,0.06455989181995392,-0.186924546957016
1772648315936288000,6.2532880859375,0.19098082184791565,0.04679644852876663,-0.16747482120990753
1772648315946329000,6.2633291015625,0.1729179322719574,0.021346746012568474,-0.162730410695076
1772648315956370200,6.2733701171875,0.15096615254878998,-0.013658586889505386,-0.183761328458786
1772648315966410200,6.28341015625,0.1212276965379715,-0.045974716544151306,-0.21560421586036682
1772648315976451000,6.293451171875,0.09867694973945618,-0.06980414688587189,-0.24202187359333038
1772648315986492000,6.303491943359375,0.08025027811527252,-0.08817862719297409,-0.2676353454589844
1772648315996532000,6.313531982421875,0.06596996635198593,-0.10490982979536057,-0.29852160811424255
1772648316006573000,6.323572998046875,0.05638818442821503,-0.11775532364845276,-0.3237758278846741
1772648316016614000,6.33361376953125,0.05197738856077194,-0.12554682791233063,-0.33898505568504333
1772648316026653700,6.34365380859375,0.05196433886885643,-0.12666775286197662,-0.33494532108306885
1772648316036694800,6.35369482421875,0.04885975643992424,-0.11416122317314148,-0.32761305570602417
1772648316046736000,6.36373583984375,0.030100451782345772,-0.09984567016363144,-0.31467461585998535
1772648316056776000,6.37377587890625,-0.0065756021067500114,-0.0915364995598793,-0.31114980578422546
1772648316066816800,6.383816650390625,-0.04630224034190178,-0.08229826390743256,-0.310512512922287
1772648316076857900,6.39385791015625,-0.0743521898984909,-0.05666597560048103,-0.3016882538795471
1772648316086898000,6.40389794921875,-0.09391950070858002,-0.032068755477666855,-0.27812325954437256
1772648316096938800,6.413938720703125,-0.10131192207336426,-0.003753811586648226,-0.24121738970279694
1772648316106979800,6.423979736328125,-0.10270262509584427,0.03379835560917854,-0.1933438777923584
1772648316117020000,6.43402001953125,-0.09811288118362427,0.07317611575126648,-0.14413578808307648
1772648316127061000,6.44406103515625,-0.09485556930303574,0.12407977879047394,-0.09617011994123459
1772648316137101800,6.454101806640625,-0.10073678940534592,0.1710377037525177,-0.057509977370500565
1772648316147142000,6.464141845703125,-0.1143263652920723,0.20358605682849884,-0.04021221399307251
1772648316157183000,6.474182861328125,-0.13581375777721405,0.23805631697177887,-0.038465265184640884
1772648316167223800,6.484223876953125,-0.16056863963603973,0.28148794174194336,-0.0396551676094532
1772648316177263600,6.494263671875,-0.18471306562423706,0.3174501955509186,-0.046034734696149826
1772648316187304700,6.5043046875,-0.20635338127613068,0.3470352590084076,-0.061262160539627075
1772648316197346000,6.514345947265625,-0.22253723442554474,0.3608497679233551,-0.07290175557136536
1772648316207385900,6.5243857421875,-0.23340772092342377,0.36350518465042114,-0.07206419110298157
1772648316217426700,6.5344267578125,-0.23630504310131073,0.35498666763305664,-0.060583215206861496
1772648316227467800,6.5444677734375,-0.23351538181304932,0.33389922976493835,-0.047348637133836746
1772648316237507800,6.5545078125,-0.22462119162082672,0.3212054669857025,-0.026346607133746147
1772648316247549000,6.564548828125,-0.20867684483528137,0.32434454560279846,-0.0008417798671871424
1772648316257589800,6.57458984375,-0.19039757549762726,0.35088926553726196,0.024362312629818916
1772648316267629800,6.5846298828125,-0.17149871587753296,0.395600825548172,0.052103929221630096
1772648316277671000,6.5946708984375,-0.1514137238264084,0.46343064308166504,0.06363655626773834
1772648316287711700,6.604711669921875,-0.14066679775714874,0.524771511554718,0.07117623835802078
1772648316297751800,6.614751708984375,-0.14343100786209106,0.5562874674797058,0.07354404032230377
1772648316307793000,6.62479296875,-0.15367111563682556,0.5622143149375916,0.06451591849327087
1772648316317834000,6.634833984375,-0.15643374621868134,0.5535539984703064,0.04545508325099945
1772648316327874000,6.6448740234375,-0.14914654195308685,0.544097900390625,0.02041044645011425
1772648316337915000,6.654914794921875,-0.12947893142700195,0.5269511342048645,-0.02437310293316841
1772648316347956000,6.6649560546875,-0.16530589759349823,0.5150968432426453,-0.04658519849181175
1772648316357995800,6.674995849609375,-0.034724991768598557,0.3956572711467743,-0.049486178904771805
1772648316368036900,6.685036865234375,0.06747621297836304,0.3696642816066742,-0.013909809291362762
1772648316378077700,6.69507763671875,0.17068226635456085,0.36060672998428345,-0.00776970200240612
1772648316388117800,6.70511767578125,0.28036054968833923,0.3348070979118347,-0.041973479092121124
1772648316398158800,6.715158935546875,0.35924214124679565,0.2660810947418213,-0.07590238749980927
1772648316408199700,6.72519970703125,0.3870684504508972,0.18169161677360535,-0.09223555773496628
1772648316418239700,6.73523974609375,0.3760600686073303,0.09708800166845322,-0.0859154760837555
1772648316428280800,6.74528076171875,0.34671950340270996,-0.006590450648218393,-0.046092689037323
1772648316438322000,6.755322021484375,0.3101530969142914,-0.1144387274980545,0.01844337396323681
1772648316448362000,6.765362060546875,0.2777416408061981,-0.2045995146036148,0.07734237611293793
1772648316458402800,6.77540283203125,0.258727490901947,-0.2643352746963501,0.1546550691127777
1772648316468444000,6.78544384765625,0.24909910559654236,-0.2840312421321869,0.2289159893989563
1772648316478484000,6.79548388671875,0.23584428429603577,-0.28177979588508606,0.31349503993988037
1772648316488524800,6.80552490234375,0.2144511193037033,-0.26879289746284485,0.3603259325027466
1772648316498566000,6.81556591796875,0.1822771579027176,-0.2467270940542221,0.352431058883667
1772648316508606000,6.82560595703125,0.14595484733581543,-0.22050002217292786,0.36141735315322876
1772648316518647000,6.83564697265625,0.0987999439239502,-0.19854241609573364,0.33803558349609375
1772648316528687900,6.84568798828125,0.05033733323216438,-0.15562798082828522,0.27203232049942017
1772648316538727700,6.855727783203125,0.005427468102425337,-0.09588826447725296,0.17024806141853333
1772648316548768800,6.865768798828125,-0.03209167718887329,-0.017565229907631874,0.06851983070373535
1772648316558809900,6.875809814453125,-0.05681420862674713,0.05263148620724678,-0.0041921003721654415
1772648316568850000,6.885849853515625,-0.07529095560312271,0.08506639301776886,-0.03363307937979698
1772648316578890800,6.895890869140625,-0.09574656188488007,0.06899107247591019,-0.03920195251703262
1772648316588931800,6.905931884765625,-0.11498843133449554,0.020841918885707855,-0.0460880883038044
1772648316598972000,6.915971923828125,-0.12000712752342224,-0.054214801639318466,-0.04264425113797188
1772648316609012700,6.9260126953125,-0.1082487404346466,-0.11886117607355118,-0.01835036464035511
1772648316619053800,6.9360537109375,-0.09294185787439346,-0.18614912033081055,0.03335287794470787
1772648316629094000,6.946093994140625,-0.07555540651082993,-0.26149794459342957,0.10624386370182037
1772648316639135000,6.956135009765625,-0.05227502062916756,-0.3233734667301178,0.16509278118610382
1772648316649175800,6.96617578125,-0.03139983117580414,-0.36398905515670776,0.20151497423648834
1772648316659216000,6.9762158203125,-0.01090384554117918,-0.3902297616004944,0.21657496690750122
1772648316669257000,6.986257080078125,0.003896938404068351,-0.4095081388950348,0.23414863646030426
1772648316679298000,6.996298095703125,0.010982981882989407,-0.424288272857666,0.24154503643512726
1772648316689337900,7.006337890625,0.015947112813591957,-0.3992939591407776,0.21105104684829712
1772648316699379000,7.01637890625,0.016149140894412994,-0.38477015495300293,0.1648123413324356
1772648316709420000,7.026419921875,0.0026959157548844814,-0.38335201144218445,0.1255301833152771
1772648316719459800,7.0364599609375,-0.013295226730406284,-0.3948424458503723,0.08189884573221207
1772648316729500700,7.046500732421875,-0.03712252900004387,-0.41715678572654724,0.04117724671959877
1772648316739540700,7.056540771484375,-0.07089779525995255,-0.4309091866016388,-0.0018513344693928957
1772648316749581800,7.066581787109375,-0.08610774576663971,-0.434186190366745,-0.02619352750480175
1772648316759623000,7.076622802734375,-0.08824360370635986,-0.4440734386444092,-0.02967374585568905
1772648316769663700,7.086663818359375,-0.0892050564289093,-0.4696248769760132,-0.005781525280326605
1772648316779703800,7.096703857421875,-0.09321790188550949,-0.480061799287796,0.012564457952976227
1772648316789745000,7.106744873046875,-0.08741669356822968,-0.44424086809158325,0.01529332622885704
1772648316799785700,7.11678564453125,-0.07652942836284637,-0.4012864828109741,0.013373985886573792
1772648316809825800,7.12682568359375,-0.06719209998846054,-0.36602163314819336,0.008809312246739864
1772648316819867000,7.136866943359375,-0.045968037098646164,-0.3388235867023468,0.0010824166238307953
1772648316829908000,7.146907958984375,-0.02456831932067871,-0.3045928180217743,-0.015809452161192894
1772648316839948000,7.156947998046875,-0.002739987336099148,-0.2546132504940033,-0.03715788573026657
1772648316849988900,7.16698876953125,0.015620792284607887,-0.1963445097208023,-0.049939412623643875
1772648316860030000,7.177030029296875,0.03249084949493408,-0.14517641067504883,-0.05361803621053696
1772648316870069800,7.18706982421875,0.04672425240278244,-0.10157118737697601,-0.03845033422112465
1772648316880110800,7.19711083984375,0.0554325245320797,-0.07239226251840591,-0.02196829579770565
1772648316890151000,7.20715087890625,0.06578996032476425,-0.03880932182073593,-0.0063574654050171375
1772648316900191700,7.217191650390625,0.08390665054321289,-0.013408621773123741,0.01614597998559475
1772648316910232800,7.22723291015625,0.10806164890527725,0.00021483132150024176,0.03670913353562355
1772648316920273700,7.237273681640625,0.12813974916934967,-0.0010645511792972684,0.05595553293824196
1772648316930313700,7.247313720703125,0.13648486137390137,-0.018048221245408058,0.059024546295404434
1772648316940354800,7.257354736328125,0.1524113565683365,-0.02966706082224846,0.052112042903900146
1772648316950396000,7.26739599609375,0.15530525147914886,-0.043884776532649994,0.04466986283659935
1772648316960436000,7.27743603515625,0.15644721686840057,-0.07679852098226547,0.03894220292568207
1772648316970476800,7.287476806640625,0.15837980806827545,-0.119510717689991,0.028697077184915543
1772648316980518000,7.297517822265625,0.15499812364578247,-0.16207309067249298,0.023522555828094482
1772648316990558000,7.307557861328125,0.14647176861763,-0.19473403692245483,0.022603461518883705
1772648317000598800,7.317598876953125,0.14066635072231293,-0.22155606746673584,0.022017300128936768
1772648317010640000,7.327639892578125,0.12975235283374786,-0.25970330834388733,0.0191086083650589
1772648317020680000,7.337679931640625,0.11898173391819,-0.309338241815567,0.006292144767940044
1772648317030721000,7.347720947265625,0.11385814100503922,-0.3439784348011017,-0.019919460639357567
1772648317040761900,7.357761962890625,0.11659454554319382,-0.3697402775287628,-0.03969369828701019
1772648317050802000,7.367802001953125,0.1191580593585968,-0.3897817134857178,-0.05542571097612381
1772648317060843000,7.377843017578125,0.11930586397647858,-0.3946340084075928,-0.0755096822977066
1772648317070884000,7.387884033203125,0.11437707394361496,-0.38953080773353577,-0.11611079424619675
1772648317080924200,7.397924072265625,0.10854049026966095,-0.37089693546295166,-0.15695542097091675
1772648317090965000,7.407965087890625,0.10438111424446106,-0.33716702461242676,-0.16476187109947205
1772648317101006000,7.418006103515625,0.07854419201612473,-0.3206322491168976,-0.14462518692016602
1772648317111047000,7.428046875,0.051739104092121124,-0.29199662804603577,-0.10617829859256744
1772648317121086700,7.438086669921875,0.028036704286932945,-0.2659607529640198,-0.04725879058241844
1772648317131127800,7.4481279296875,-0.013547543436288834,-0.2598629295825958,-0.004484754521399736
1772648317141169000,7.4581689453125,-0.06177179887890816,-0.21990592777729034,0.05689551681280136
1772648317151209000,7.468208984375,-0.0930926501750946,-0.1437714695930481,0.1572357565164566
1772648317161249800,7.478249755859375,-0.09522850811481476,-0.0501302033662796,0.23733432590961456
1772648317171291000,7.488290771484375,-0.07027006149291992,0.05586477741599083,0.31462857127189636
1772648317181331000,7.4983310546875,-0.02314063534140587,0.21144159138202667,0.376446396112442
1772648317191372000,7.5083720703125,-0.02422793209552765,0.3042433261871338,0.3947216868400574
1772648317201412900,7.518412841796875,-0.0766618475317955,0.34512844681739807,0.35192176699638367
1772648317211453000,7.528452880859375,-0.10395941883325577,0.40775907039642334,0.31661877036094666
1772648317221494000,7.538493896484375,-0.11042450368404388,0.45717641711235046,0.278707355260849
1772648317231534800,7.548534912109375,-0.10199469327926636,0.5032210946083069,0.23954859375953674
1772648317241575000,7.558574951171875,-0.07190150767564774,0.5721263885498047,0.18059206008911133
1772648317251616000,7.568615966796875,-0.04031962901353836,0.6362382769584656,0.11750180274248123
1772648317261657000,7.578656982421875,-0.030958088114857674,0.6577650904655457,0.06872068345546722
1772648317271697200,7.588697265625,-0.043367478996515274,0.6365101337432861,0.0254687312990427
1772648317281738000,7.598738037109375,-0.06039786338806152,0.5726422071456909,-0.01419505663216114
1772648317291779000,7.608779052734375,-0.0838949978351593,0.47102245688438416,-0.06243358179926872
1772648317301819000,7.61881884765625,-0.12069961428642273,0.3427332043647766,-0.11146584153175354
1772648317311860000,7.62885986328125,-0.15649203956127167,0.20337390899658203,-0.14269331097602844
1772648317321900800,7.63890087890625,-0.1933688372373581,0.09144684672355652,-0.15625865757465363
1772648317331940900,7.64894091796875,-0.22383782267570496,0.025304632261395454,-0.14931800961494446
1772648317341982000,7.65898193359375,-0.2390918731689453,0.017140978947281837,-0.13332465291023254
1772648317352022800,7.669022705078125,-0.2380673736333847,0.05357712134718895,-0.12622132897377014
1772648317362062800,7.679062744140625,-0.22241917252540588,0.12712565064430237,-0.13050688803195953
1772648317372104000,7.68910400390625,-0.19002798199653625,0.23063157498836517,-0.13258129358291626
1772648317382145000,7.69914501953125,-0.13359692692756653,0.36990585923194885,-0.1275915950536728
1772648317392185000,7.70918505859375,-0.07355020940303802,0.504207968711853,-0.14453339576721191
1772648317402226000,7.719225830078125,-0.017109032720327377,0.6209327578544617,-0.17318394780158997
1772648317412267000,7.72926708984375,0.016414040699601173,0.686444878578186,-0.20859147608280182
1772648317422307000,7.73930712890625,0.03552328795194626,0.6821324229240417,-0.2453518807888031
1772648317432348000,7.749347900390625,0.03829258307814598,0.6351007223129272,-0.27132391929626465
1772648317442389000,7.759388916015625,0.025727521628141403,0.5652790665626526,-0.2883897125720978
1772648317452429000,7.769428955078125,-0.0037880712188780308,0.47890567779541016,-0.31716349720954895
1772648317462470100,7.77947021484375,-0.050975289195775986,0.3917617201805115,-0.3395766615867615
1772648317472511000,7.789510986328125,-0.10318853706121445,0.3371039032936096,-0.35546427965164185
1772648317482550800,7.79955078125,-0.15416064858436584,0.297583669424057,-0.3632385730743408
1772648317492591900,7.809591796875,-0.1917911320924759,0.257433146238327,-0.3546989858150482
1772648317502633000,7.819633056640625,-0.20949316024780273,0.2334790974855423,-0.33819565176963806
1772648317512673000,7.829673095703125,-0.22735664248466492,0.2070801854133606,-0.31673377752304077
1772648317522713900,7.8397138671875,-0.2291947603225708,0.2053975909948349,-0.294827401638031
1772648317532755000,7.8497548828125,-0.21946382522583008,0.2201428860425949,-0.2657168209552765
1772648317542795000,7.859794921875,-0.20911425352096558,0.23193323612213135,-0.23833712935447693
1772648317552835800,7.8698359375,-0.20205922424793243,0.2455904483795166,-0.21319176256656647
1772648317562877000,7.879876953125,-0.20181527733802795,0.2535295784473419,-0.191913902759552
1772648317572917000,7.8899169921875,-0.20091380178928375,0.27016156911849976,-0.16656433045864105
1772648317582958000,7.8999580078125,-0.19531184434890747,0.2906157076358795,-0.14442014694213867
1772648317592999000,7.9099990234375,-0.18641239404678345,0.29530569911003113,-0.11796984821557999
1772648317603039000,7.9200390625,-0.18011987209320068,0.2856605350971222,-0.1020236387848854
1772648317613080000,7.930080078125,-0.17616179585456848,0.26362138986587524,-0.08664201945066452
1772648317623121000,7.940120849609375,-0.1696687489748001,0.2364499419927597,-0.07511692494153976
1772648317633160700,7.95016064453125,-0.16630618274211884,0.21713148057460785,-0.06996005028486252
1772648317643201800,7.960201904296875,-0.1605641394853592,0.19258619844913483,-0.07640437036752701
1772648317653243000,7.970242919921875,-0.16130998730659485,0.16691827774047852,-0.08345566689968109
1772648317663283000,7.980282958984375,-0.16206125915050507,0.1415785700082779,-0.0839342325925827
1772648317673323800,7.99032373046875,-0.17123405635356903,0.10943441838026047,-0.08596756309270859
1772648317683364900,8.00036474609375,-0.18227313458919525,0.0750194564461708,-0.08410894870758057
1772648317693406000,8.010406005859375,-0.1924872249364853,0.053042735904455185,-0.09092746675014496
1772648317703446000,8.020446044921876,-0.20160642266273499,0.05704546347260475,-0.09769561886787415
1772648317713486800,8.03048681640625,-0.2060958445072174,0.06883294135332108,-0.09349068254232407
1772648317723528000,8.04052783203125,-0.2081691026687622,0.08151810616254807,-0.07693327963352203
1772648317733568000,8.050568115234375,-0.21797047555446625,0.09408246725797653,-0.052040670067071915
1772648317743608800,8.06060888671875,-0.22611095011234283,0.11821044236421585,-0.02216852456331253
1772648317753650000,8.07064990234375,-0.22377651929855347,0.16321296989917755,0.00018552830442786217
1772648317763690000,8.08068994140625,-0.21523095667362213,0.2270132601261139,0.019640985876321793
1772648317773731000,8.09073095703125,-0.20807388424873352,0.2998712360858917,0.04215864837169647
1772648317783772000,8.10077197265625,-0.200362429022789,0.3821176290512085,0.06178055331110954
1772648317793812000,8.11081201171875,-0.198028102517128,0.45644649863243103,0.0719919353723526
1772648317803853000,8.12085302734375,-0.18952248990535736,0.5391136407852173,0.06724325567483902
1772648317813894100,8.13089404296875,-0.17996713519096375,0.6100343465805054,0.04694979265332222
1772648317823934000,8.140933837890625,-0.17849494516849518,0.6564756035804749,0.029155345633625984
1772648317833974800,8.150974853515624,-0.1819438934326172,0.6788395643234253,0.011854641139507294
1772648317844015900,8.161015869140625,-0.18610535562038422,0.6785447597503662,-0.006333150900900364
1772648317854056000,8.171055908203124,-0.176085963845253,0.6643621921539307,-0.03984615579247475
1772648317864096800,8.1810966796875,-0.1502024382352829,0.6123666763305664,-0.06789111346006393
1772648317874137900,8.191137939453125,-0.11790517717599869,0.49909985065460205,-0.0762348622083664
1772648317884178000,8.201177978515625,-0.06608512252569199,0.3969756066799164,-0.07463537156581879
1772648317894219000,8.211218994140625,0.010087573900818825,0.32600611448287964,-0.08207209408283234
1772648317904259800,8.221259765625,0.09806696325540543,0.2653163969516754,-0.09263178706169128
1772648317914300000,8.2312998046875,0.16576863825321198,0.17475111782550812,-0.10403402149677277
1772648317924341000,8.241341064453126,0.22887249290943146,0.09511726349592209,-0.10317222774028778
1772648317934382000,8.251382080078125,0.2846490740776062,0.04768162965774536,-0.09292910248041153
1772648317944422000,8.261421875,0.32624658942222595,0.0074822790920734406,-0.08222399652004242
1772648317954463000,8.271462890625,0.35339584946632385,-0.03466416150331497,-0.06342290341854095
1772648317964504000,8.281504150390624,0.3668048679828644,-0.0812138170003891,-0.03163621202111244
1772648317974544100,8.291544189453125,0.37457504868507385,-0.13877789676189423,0.01082177646458149
1772648317984584400,8.30158447265625,0.3768635094165802,-0.19385206699371338,0.059045761823654175
1772648317994625300,8.311625244140625,0.3686426281929016,-0.2590416669845581,0.10589712113142014
1772648318004665300,8.321665283203124,0.3549633026123047,-0.3198043406009674,0.15562553703784943
1772648318014706400,8.33170654296875,0.32752305269241333,-0.34749701619148254,0.21000906825065613
1772648318024747300,8.341747314453125,0.29507720470428467,-0.3546507954597473,0.2571054995059967
1772648318034787300,8.351787353515626,0.2533496022224426,-0.3472606837749481,0.2803306579589844
1772648318044828400,8.361828369140625,0.20987564325332642,-0.31319350004196167,0.2829892933368683
1772648318054869500,8.371869384765626,0.17199590802192688,-0.2536161541938782,0.2683948874473572
1772648318064909600,8.38190966796875,0.1343473345041275,-0.1869460642337799,0.23154953122138977
1772648318074950400,8.391950439453124,0.0980425477027893,-0.12648901343345642,0.18469902873039246
1772648318084991500,8.401991455078125,0.07150813937187195,-0.0740705356001854,0.136654794216156
1772648318095032600,8.412032470703124,0.04317265376448631,-0.042704299092292786,0.09341595321893692
1772648318105072400,8.422072265625,0.017907511442899704,-0.03170331194996834,0.05126982927322388
1772648318115113200,8.43211328125,-0.0072542885318398476,-0.04207509756088257,0.02648523822426796
1772648318125154300,8.442154296875,-0.03769342228770256,-0.08212930709123611,0.021595407277345657
1772648318135194400,8.4521943359375,-0.06399057060480118,-0.14436626434326172,0.03309166058897972
1772648318145235200,8.462235107421876,-0.07333453744649887,-0.21595177054405212,0.05614824220538139
1772648318155276300,8.4722763671875,-0.0827132984995842,-0.2968675494194031,0.09699766337871552
1772648318165316400,8.48231640625,-0.09863927215337753,-0.39061346650123596,0.15675154328346252
1772648318175357400,8.492357421875,-0.10589326173067093,-0.4751855731010437,0.2319777011871338
1772648318185398300,8.502398193359374,-0.10078611969947815,-0.5295465588569641,0.2908945381641388
1772648318195438300,8.512438232421875,-0.09453775733709335,-0.5596269369125366,0.3224780857563019
1772648318205479400,8.5224794921875,-0.08971184492111206,-0.5793918967247009,0.332482248544693
1772648318215520300,8.532520263671875,-0.0785718709230423,-0.577670693397522,0.30689704418182373
1772648318225560300,8.542560302734374,-0.07335127145051956,-0.5614001154899597,0.26290106773376465
1772648318235601400,8.552601318359375,-0.07337003946304321,-0.576275110244751,0.24707981944084167
1772648318245642500,8.562642578125,-0.07635517418384552,-0.5882875323295593,0.21979041397571564
1772648318255682600,8.5726826171875,-0.06780990958213806,-0.5815908312797546,0.19133083522319794
1772648318265723400,8.582723388671875,-0.06290090084075928,-0.5629018545150757,0.16085655987262726
1772648318275764500,8.592764404296876,-0.07326890528202057,-0.5493364930152893,0.13472557067871094
1772648318285804300,8.60280419921875,-0.08453328162431717,-0.544276773929596,0.10551734268665314
1772648318295845400,8.612845458984374,-0.08518140763044357,-0.5481396317481995,0.08868271857500076
1772648318305886200,8.62288623046875,-0.07449174672365189,-0.5576391220092773,0.07661700248718262
1772648318315926300,8.63292626953125,-0.06675191968679428,-0.5606468915939331,0.06597384810447693
1772648318325967400,8.64296728515625,-0.04646316170692444,-0.5525410175323486,0.05462798476219177
1772648318336008200,8.65300830078125,-0.020003627985715866,-0.5424546599388123,0.04030050337314606
1772648318346048300,8.66304833984375,0.010378512553870678,-0.5277478694915771,0.02068871632218361
1772648318356089300,8.67308935546875,0.03696642071008682,-0.5025640726089478,-0.0076347654685378075
1772648318366130400,8.68313037109375,0.04664195328950882,-0.4753425419330597,-0.03868482634425163
1772648318376171300,8.693171142578125,0.05523942783474922,-0.43367570638656616,-0.0815594419836998
1772648318386211300,8.70321142578125,0.07088097184896469,-0.37461715936660767,-0.12283710390329361
1772648318396252400,8.71325244140625,0.08603839576244354,-0.32190749049186707,-0.15025414526462555
1772648318406293500,8.72329345703125,0.09506997466087341,-0.2813302278518677,-0.1675710827112198
1772648318416333300,8.733333251953125,0.09870671480894089,-0.24272990226745605,-0.17022308707237244
1772648318426374400,8.74337451171875,0.11221933364868164,-0.19164834916591644,-0.15547583997249603
1772648318436415500,8.75341552734375,0.12730132043361664,-0.13606280088424683,-0.11230900138616562
1772648318446455300,8.763455322265624,0.14460812509059906,-0.08679191768169403,-0.050606757402420044
1772648318456496000,8.77349609375,0.16145087778568268,-0.04253055527806282,0.014212141744792461
1772648318466537200,8.783537109375,0.1861940324306488,0.00594270508736372,0.06850015372037888
1772648318476577300,8.793577392578126,0.2144351601600647,0.0437333881855011,0.11037277430295944
1772648318486618400,8.803618408203125,0.24251419305801392,0.043590642511844635,0.12125977873802185
1772648318496659200,8.8136591796875,0.26180917024612427,0.01408675778657198,0.10490437597036362
1772648318506699300,8.82369921875,0.2772831916809082,-0.04186359420418739,0.07206014543771744
1772648318516740400,8.833740234375,0.28564050793647766,-0.11051429063081741,0.04244478791952133
1772648318526781400,8.843781494140625,0.2891015410423279,-0.17793914675712585,0.020503800362348557
1772648318536821200,8.8538212890625,0.27992182970046997,-0.24270498752593994,0.0061382707208395
1772648318546862300,8.8638623046875,0.26627421379089355,-0.3020351231098175,-0.0002847411669790745
1772648318556903400,8.8739033203125,0.250592976808548,-0.3433161675930023,-0.014402806758880615
1772648318566943500,8.883943603515625,0.2400532364845276,-0.3536982536315918,-0.03766658529639244
1772648318576984300,8.893984375,0.23216266930103302,-0.3439771831035614,-0.06821560114622116
1772648318587025400,8.904025390625,0.21089333295822144,-0.36419907212257385,-0.10766234248876572
1772648318597066500,8.91406640625,0.19373111426830292,-0.36615318059921265,-0.14724715054035187
1772648318607106600,8.9241064453125,0.1781630665063858,-0.37929534912109375,-0.14030775427818298
1772648318617147400,8.9341474609375,0.1367402970790863,-0.42811161279678345,-0.13664273917675018
1772648318627188500,8.9441884765625,0.10392241925001144,-0.44234541058540344,-0.09991269558668137
1772648318637228300,8.954228271484375,0.06786542385816574,-0.40844783186912537,-0.010574002750217915
1772648318647269400,8.964269287109374,0.044422946870326996,-0.3255806565284729,0.07586022466421127
1772648318657310200,8.974310302734375,0.046157944947481155,-0.20975176990032196,0.1589004546403885
1772648318667350300,8.984350341796874,0.0800461396574974,-0.1047758162021637,0.23801951110363007
1772648318677391400,8.994391357421875,0.10250558704137802,-0.04381862282752991,0.30006274580955505
1772648318687432200,9.00443212890625,0.08040507882833481,-0.029757395386695862,0.3063933551311493
1772648318697472300,9.01447216796875,0.07788034528493881,0.009249551221728325,0.3008308410644531
1772648318707513300,9.024513427734375,0.09676455706357956,0.11267634481191635,0.290115088224411
1772648318717554400,9.034554443359376,0.1071973666548729,0.23526547849178314,0.27329808473587036
1772648318727594500,9.044594482421875,0.11254899203777313,0.34605565667152405,0.2505301833152771
1772648318737635300,9.05463525390625,0.11108917742967606,0.4262392222881317,0.23900915682315826
1772648318747676400,9.064676513671875,0.10810138285160065,0.47479450702667236,0.2226240485906601
1772648318757716500,9.074716552734374,0.10057944804430008,0.49549832940101624,0.18477657437324524
1772648318767757300,9.08475732421875,0.07415290176868439,0.48071378469467163,0.13430540263652802
1772648318777798400,9.09479833984375,0.024271061643958092,0.41576796770095825,0.09332552552223206
1772648318787838500,9.10483837890625,-0.033897433429956436,0.32953640818595886,0.054947249591350555
1772648318797879600,9.114879638671875,-0.08752517402172089,0.24283887445926666,0.023174423724412918
1772648318807920400,9.12492041015625,-0.13062816858291626,0.1709068864583969,-0.004726715385913849
1772648318817961500,9.13496142578125,-0.15815147757530212,0.11777651309967041,-0.03201241418719292
1772648318828001300,9.145001220703126,-0.18083788454532623,0.08237830549478531,-0.05225909873843193
1772648318838042400,9.15504248046875,-0.19497250020503998,0.06190940737724304,-0.06427452713251114
1772648318848083200,9.165083251953124,-0.18787597119808197,0.05713622272014618,-0.07426804304122925
1772648318858123300,9.175123291015625,-0.1560642272233963,0.07276023924350739,-0.08258592337369919
1772648318868164400,9.185164306640624,-0.10654088109731674,0.11159206181764603,-0.0845382809638977
1772648318878205200,9.195205078125,-0.04823185130953789,0.16439354419708252,-0.08562260121107101
1772648318888245200,9.205245361328124,-0.003620442468672991,0.22281718254089355,-0.10325778275728226
1772648318898286300,9.215286376953125,0.026161640882492065,0.2777423560619354,-0.14924651384353638
1772648318908327400,9.225327392578125,0.04186629876494408,0.2969019412994385,-0.1859201043844223
1772648318918367500,9.235367431640626,0.04350640997290611,0.29291632771492004,-0.20261485874652863
1772648318928408300,9.245408203125,0.03169582039117813,0.2773357629776001,-0.2228436917066574
1772648318938449400,9.255449462890626,0.010648630559444427,0.2578783929347992,-0.24697531759738922
1772648318948489500,9.265489501953125,-0.01238265261054039,0.2611865699291229,-0.26503604650497437
1772648318958530300,9.2755302734375,-0.04614906758069992,0.2693350911140442,-0.27093735337257385
1772648318968571400,9.2855712890625,-0.0784691870212555,0.2912294864654541,-0.2778434753417969
1772648318978612500,9.295612548828124,-0.10928861796855927,0.32579225301742554,-0.2748034596443176
1772648318988652800,9.30565283203125,-0.13463498651981354,0.3700292110443115,-0.2677881717681885
1772648318998693600,9.315693603515625,-0.14142748713493347,0.42364612221717834,-0.256585955619812
1772648319008734700,9.325734619140626,-0.13756990432739258,0.4755537807941437,-0.2394479662179947
1772648319018774800,9.33577490234375,-0.12624984979629517,0.5172560811042786,-0.21556435525417328
1772648319028816000,9.34581591796875,-0.10940136760473251,0.5494430661201477,-0.18883900344371796
1772648319038856700,9.355856689453125,-0.09604733437299728,0.5780659914016724,-0.16866153478622437
1772648319048896800,9.365896728515626,-0.08577978610992432,0.5968087911605835,-0.15887653827667236
1772648319058937900,9.375937744140625,-0.08760159462690353,0.5958061814308167,-0.1522928774356842
1772648319068978700,9.385978759765624,-0.09637537598609924,0.5741698145866394,-0.15372459590435028
1772648319079018800,9.396018798828125,-0.10885631293058395,0.5333971381187439,-0.1492082178592682
1772648319089059800,9.406059814453124,-0.1234738752245903,0.4914696514606476,-0.13854838907718658
1772648319099101000,9.416100830078125,-0.13208991289138794,0.44587230682373047,-0.12903811037540436
1772648319109141000,9.42614111328125,-0.1358148753643036,0.3942360281944275,-0.12048722803592682
1772648319119181800,9.436181884765626,-0.13661757111549377,0.34348034858703613,-0.10404776781797409
1772648319129223000,9.446222900390625,-0.12896816432476044,0.31852734088897705,-0.08630339056253433
1772648319139263000,9.456262939453126,-0.11780566722154617,0.3104909360408783,-0.07151200622320175
1772648319149303800,9.4663037109375,-0.10983988642692566,0.30752789974212646,-0.060038842260837555
1772648319159345000,9.476344970703124,-0.10779454559087753,0.30266156792640686,-0.0560087151825428
1772648319169386000,9.486385986328125,-0.11413340270519257,0.29291361570358276,-0.05479910597205162
1772648319179425800,9.49642578125,-0.12397413700819016,0.2850799560546875,-0.06141640245914459
1772648319189466600,9.506466552734375,-0.13965988159179688,0.2882128953933716,-0.07893653959035873
1772648319199507700,9.5165078125,-0.15610773861408234,0.3016311228275299,-0.09435229003429413
1772648319209547800,9.5265478515625,-0.1636442095041275,0.33372753858566284,-0.08233024924993515
1772648319219588900,9.5365888671875,-0.17393405735492706,0.3619777262210846,-0.048655737191438675
1772648319229629700,9.546629638671876,-0.18967947363853455,0.37761634588241577,-0.04108943045139313
1772648319239669800,9.556669677734375,-0.198138028383255,0.3795124888420105,-0.07113958150148392
1772648319249710800,9.5667109375,-0.1933339536190033,0.3780112862586975,-0.11270593851804733
1772648319259751700,9.576751708984375,-0.18184120953083038,0.36701253056526184,-0.14140358567237854
1772648319269791700,9.586791748046876,-0.17348714172840118,0.3590709865093231,-0.1429346352815628
1772648319279832800,9.596832763671875,-0.1690705120563507,0.34923693537712097,-0.11723024398088455
1772648319289874000,9.6068740234375,-0.16885560750961304,0.33294904232025146,-0.08017129451036453
1772648319299914800,9.616914794921875,-0.16629382967948914,0.3285454511642456,-0.06544281542301178
