time,seconds_elapsed,z,y,x
1772649748166474000,0.062473876953125,-0.055825639857351776,-0.11453881784975528,0.03479907231107354
1772649748176515000,0.07251513671875,-0.09717354929000138,-0.11564181065559387,0.0400989322848618
1772649748186556200,0.08255615234375,-0.10676818384826182,-0.09499942012131214,0.01748231906816363
1772649748196597000,0.092596923828125,-0.09278905059546232,-0.08872165502607822,-0.013302256904542445
1772649748206639000,0.10263916015625,-0.09071165979951619,-0.0691641371190548,-0.050547845584899186
1772649748216680000,0.112679931640625,-0.10012421578913927,-0.06228782160878181,-0.05298004116788506
1772649748226721000,0.122720947265625,-0.14817337642610073,-0.034955578047037125,-0.06609028263166547
1772649748236762000,0.13276220703125,-0.18922171839028595,-0.017090835532546044,-0.034074557428807016
1772649748246803000,0.142802978515625,-0.17201164039224384,-0.026489362996816635,-0.046909050691127774
1772649748256844000,0.152843994140625,-0.12445084779411554,-0.05430968233644962,-0.05901143028661608
1772649748266886000,0.162885986328125,-0.08259235849082469,-0.012046996146440505,-0.0787659320704639
1772649748276927000,0.172927001953125,-0.04463409149646759,0.03816284965574741,-0.06434343896433711
1772649748286968000,0.182968017578125,-0.012213877145946026,0.07231587914824486,-0.061438803564012046
1772649748297009000,0.1930087890625,0.011668225961923599,0.08691840499639511,-0.05694353797137737
1772649748307050000,0.203050048828125,-0.025901626236736773,0.06532032117247581,-0.0804712746836245
1772649748317091000,0.213091064453125,-0.04099281238466501,0.0026081366717815397,-0.08339300734922289
1772649748327132700,0.223132568359375,-0.04846592474430799,-0.08373509878516197,-0.09683525724634527
1772649748337173800,0.233173828125,-0.07073737778514623,-0.1498433554649353,-0.13635259025096894
1772649748347214600,0.243214599609375,-0.08624152864813804,-0.1743558654308319,-0.14427622285708785
1772649748357255700,0.253255615234375,-0.15581073943674564,-0.1780021129786968,-0.13052023083567618
1772649748367296800,0.263296875,-0.16290829648226499,-0.14790098922550676,-0.08187076621800661
1772649748377338600,0.273338623046875,-0.1493789528235793,-0.10833996320962905,-0.027815789294987917
1772649748387379700,0.283379638671875,-0.11996522681266068,-0.025371757143735883,0.010806202305108308
1772649748397420500,0.293420654296875,-0.08049041777551173,0.04139584022760391,0.04737959081232548
1772649748407461600,0.303461669921875,-0.05265636217147111,0.06471592553853989,0.07545826882719993
1772649748417502700,0.313502685546875,-0.038542496623098846,0.05673018748164177,0.07945800598785281
1772649748427543600,0.32354345703125,-0.03555763559341431,0.007467851662635803,0.10643822124153375
1772649748437585700,0.333585693359375,-0.026266075634956358,-0.08828560169637202,0.10586261331066489
1772649748447626500,0.34362646484375,0.016506313642859458,-0.2018710643440485,0.0755741502918303
1772649748457667600,0.35366748046875,0.14822364530861376,-0.2735042219251394,0.010116904866695404
1772649748467708700,0.363708740234375,0.15299597427695988,-0.2623550514012575,-0.031769641487300396
1772649748477749500,0.37374951171875,0.0028562662139534948,-0.18472060757875441,-0.03394289387315511
1772649748487790600,0.38379052734375,-0.09862930105626583,-0.06371697762906552,-0.032981355364620685
1772649748497832400,0.39383251953125,-0.19633768787533043,0.008859598281979561,-0.004934387662261724
1772649748507873500,0.40387353515625,-0.17945903378874062,0.09083236356973648,-0.00842193751707673
1772649748517914600,0.41391455078125,-0.12176409292817116,0.14090017055273055,-0.028992870250344274
1772649748527955500,0.42395556640625,-0.057257426226139066,0.14017945506274698,0.0035252515166997907
1772649748537996500,0.43399658203125,0.0015036825612187385,0.05607727653086185,0.05450622782185673
1772649748548038400,0.444038330078125,0.09046616060584783,-0.0837859521895647,0.09152326844334602
1772649748558079500,0.45407958984375,0.19879735598713158,-0.2519371177613735,0.023623013780266044
1772649748568120600,0.46412060546875,0.30941724682748317,-0.3778852183759212,-0.0906036693803966
1772649748578161700,0.47416162109375,0.4047738098233938,-0.4083540063977241,-0.21468612225353717
1772649748588202800,0.48420263671875,0.4359411015033722,-0.41518765181004996,-0.3338834334336221
1772649748598243800,0.494243896484375,0.4717249470680952,-0.3984463603675365,-0.46771322720870373
1772649748608285700,0.50428564453125,0.4809399346590042,-0.3484153782635927,-0.5684077902317046
1772649748618326800,0.514326904296875,0.4799073767408728,-0.2772515917599201,-0.6962412662014364
1772649748628367600,0.52436767578125,0.5257406148940325,-0.20233809733390806,-0.8584085350580513
1772649748638408700,0.53440869140625,0.5449053340911865,-0.12187222947776317,-1.085003414031118
1772649748648449500,0.544449462890625,0.550159893618524,-0.1198924538373947,-1.2530275922223926
1772649748658490600,0.55449072265625,0.4934723762348294,-0.2551490655452013,-1.3574489206835627
1772649748668532700,0.56453271484375,0.32917174861133097,-0.4366039493262768,-1.3436260009057819
1772649748678573600,0.574573486328125,0.2646174433752894,-0.6392869145750999,-1.3131295942246912
1772649748688614700,0.58461474609375,0.30809067439883947,-0.8287211066722869,-1.2650197894416748
1772649748698655500,0.594655517578125,0.5080646729499101,-1.1071966872692107,-1.0894653618760406
1772649748708696600,0.604696533203125,0.675562927570939,-1.4326438623994588,-0.9777698046281933
1772649748718737700,0.614737548828125,0.5850767470903694,-1.7023317409068346,-0.893529971191287
1772649748728779500,0.624779541015625,0.29933205227330323,-1.858648091778159,-0.6533465657182037
1772649748738820600,0.634820556640625,0.28460210065320135,-1.9274311206251382,-0.438760396707803
1772649748748861400,0.644861328125,0.7479911810524761,-2.0353736089497803,-0.40770007253363727
1772649748758902500,0.654902587890625,1.2891750104025006,-2.243046637570858,-0.5098461495392024
1772649748768943600,0.664943603515625,1.366609255477786,-2.513440618520975,-0.4731638938300311
1772649748778985500,0.6749853515625,1.163164950467646,-2.7709295251905917,-0.3731894617751241
1772649748789026600,0.685026611328125,0.877212019727379,-2.9623417393624782,-0.3140107120975852
1772649748799067400,0.6950673828125,0.6661196841821074,-3.137552175796032,-0.11194076418057083
1772649748809108500,0.7051083984375,1.0100468111157417,-3.4040397969573735,-0.17731252327933905
1772649748819149600,0.715149658203125,1.3197759003713727,-3.741008483055234,-0.36753961931988594
1772649748829190400,0.7251904296875,1.0275083796568214,-4.123265340644121,-0.4499244725398719
1772649748839232800,0.735232666015625,0.5666264597728848,-4.244549541100859,-0.29571430016756056
1772649748849273600,0.745273681640625,0.008879033634811639,-4.250687020942569,0.031043665300309657
1772649748859314700,0.755314697265625,-0.8771012528292834,-4.1301299657166,0.3861138252779841
1772649748869355800,0.765355712890625,-1.390848063068837,-3.6146512171179053,0.7226892742745578
1772649748879396600,0.775396728515625,-1.138919859266281,-2.7560511050105094,0.7529993646033107
1772649748889437700,0.785437744140625,-0.9845223476283251,-1.806522767743468,0.8109162776514888
1772649748899479600,0.7954794921875,-0.5917388353280723,-0.840923585641384,0.800293615219742
1772649748909520600,0.805520751953125,-0.396865813177824,-0.04507014482617378,0.7442175077326595
1772649748919561700,0.815561767578125,-0.6082534784078598,0.7503250308275222,0.9329828606575727
1772649748929602600,0.8256025390625,-0.9120141607783734,1.3679787902653215,1.1917277587376534
1772649748939643600,0.8356435546875,-0.7871522479653358,1.786270837831497,1.475864872227609
1772649748949684700,0.845684814453125,-0.4840509062863886,1.66802381311357,1.605396238156408
1772649748959726600,0.8557265625,-0.36392435143217444,1.4112223041862249,1.5937100381463765
1772649748969767700,0.865767578125,-0.7352231771551072,1.4271277293264866,1.7115123878367244
1772649748979808500,0.87580859375,-0.8651451498366892,1.8213672856539487,1.8217010476529598
1772649748989849600,0.885849609375,-0.7244716276466846,2.344451833081245,1.6720381633214652
1772649748999890700,0.895890625,-0.826098941475153,2.9599709185779095,1.36496996383816
1772649749009931500,0.905931640625,-1.3344267954058944,3.6630332629710436,1.2557638853184878
1772649749019973600,0.9159736328125,-1.4676342194989322,4.373004071578383,1.297204149209708
1772649749030014500,0.926014404296875,-1.1104062969654798,5.004358439588547,1.2347392174683511
1772649749040055600,0.9360556640625,-0.8306500289082527,5.542590287265181,1.175707328915596
1772649749050096400,0.946096435546875,-0.9187501910351217,5.954894492593407,1.2562246346980332
1772649749060137500,0.956137451171875,-1.3652636860877274,6.232782628691196,1.4255861989729106
1772649749070178600,0.966178466796875,-1.8437801929920912,6.453377682727575,1.4019083862654864
1772649749080220700,0.976220703125,-2.1497920152902603,6.7648045158118,0.9416022204428911
1772649749090261800,0.98626171875,-2.4320297248996794,7.255435238879919,0.38145723164379597
1772649749100302600,0.996302490234375,-2.584747612887621,7.660673743605614,-0.06795812233015895
1772649749110343700,1.00634375,-2.884246692290902,8.052830063918233,-0.232083247256279
1772649749120384800,1.016384765625,-3.282771963113546,8.281421961927414,0.019540128380805252
1772649749130425600,1.026425537109375,-3.6249516618579625,8.462078388807177,0.5523860452353954
1772649749140467700,1.0364677734375,-3.89616572701931,8.582782743549346,1.3702007040984927
1772649749150508500,1.046508544921875,-3.773434834885597,8.581989547345042,2.039304664788395
1772649749160549600,1.056549560546875,-3.4984874284148213,8.41556096778214,2.5224551151037216
1772649749170590700,1.0665908203125,-3.2794729215681553,8.104182065492868,2.8853032156065104
1772649749180631600,1.076631591796875,-2.955667668426037,7.753409310448169,3.215352623835206
1772649749190672600,1.086672607421875,-2.724182387062907,7.319232880529761,3.4292619164973495
1772649749200714500,1.096714599609375,-2.618437116521597,6.801320767304301,3.5237931345850226
1772649749210755600,1.106755615234375,-2.229664739558846,6.221315478259324,3.290883373376727
1772649749220796700,1.116796630859375,-1.6214565615974366,5.65044626635015,2.890342086556554
1772649749230837500,1.12683740234375,-0.3779674898318946,4.948597973921895,2.3146366866625843
1772649749240878600,1.136878662109375,1.2903414238333701,3.862604818201065,1.333541829264909
1772649749250919700,1.146919677734375,2.661305659650266,2.2392051597118376,0.15010712096765635
1772649749260961500,1.15696142578125,3.3693501763701437,0.31109657821655273,-0.7257775956787168
1772649749271002600,1.167002685546875,3.68058879340589,-1.5481167462289331,-1.3990963975846766
1772649749281043500,1.17704345703125,3.7177170393168923,-3.229728355190158,-1.9983111217513678
1772649749291084500,1.18708447265625,3.8017411841765045,-4.579499873113632,-2.4765122790962457
1772649749301125600,1.197125732421875,3.8605750659391282,-5.6537470614612095,-2.798839860901236
1772649749311166500,1.20716650390625,3.921521409811079,-6.617309769299626,-2.782063205884397
1772649749321208800,1.217208740234375,3.9522184536308047,-7.562710212981701,-2.590609198397398
1772649749331249700,1.227249755859375,4.100414626410603,-8.62850463028252,-2.5237013157725334
1772649749341290800,1.237290771484375,4.1265927315011615,-9.584851415392755,-2.788771471351385
1772649749351331600,1.24733154296875,3.697587274479866,-10.4538034101665,-3.024427900919318
1772649749361372700,1.25737255859375,3.0576521251291036,-11.338911005449294,-3.044741790151596
1772649749371413800,1.267413818359375,2.3957665713854133,-12.023103229677677,-2.922602434170246
1772649749381455600,1.27745556640625,1.7389602206021546,-12.282348040103912,-2.7006659023970365
1772649749391496700,1.28749658203125,1.098707237473875,-11.929202126187086,-2.332707765404135
1772649749401537500,1.29753759765625,0.4862725278586149,-11.192317591691017,-1.8516215541422365
1772649749411578600,1.30757861328125,0.13050488713607192,-10.436084213602543,-1.245986879930645
1772649749421619700,1.31761962890625,0.25466201268061994,-9.767261407941579,-0.8726543564230204
1772649749431660500,1.32766064453125,0.6122077689915895,-9.336172422644495,-0.9391146414108574
1772649749441702700,1.33770263671875,0.8863006044596433,-8.986837591448426,-1.1812751921758056
1772649749451743500,1.347743408203125,1.1670920607835054,-8.803995637223125,-1.5242803819589317
1772649749461784600,1.35778466796875,1.4975811756037174,-8.657311038050056,-1.8442675381176172
1772649749471825700,1.36782568359375,1.674091150328517,-8.697275968691706,-2.0962717297658324
1772649749481866500,1.377866455078125,1.7212573906511068,-8.829543335455655,-2.266794154513627
1772649749491907600,1.387907470703125,1.8624599051512776,-8.960007452189922,-2.4023778062187136
1772649749501949400,1.397949462890625,2.1202951410405335,-9.23629575187564,-2.561843122640252
1772649749511990500,1.407990478515625,2.542303724911809,-9.381075978732108,-2.7946272116422652
1772649749522031600,1.418031494140625,2.596314132040739,-9.451261275592445,-3.1061832240641114
1772649749532072400,1.428072509765625,2.771807769329846,-8.843627390387654,-3.709149701979756
1772649749542113500,1.438113525390625,3.0289269659042355,-7.839292527177929,-4.030774688473343
1772649749552154600,1.448154541015625,1.3079413779318332,-6.874324628716707,-3.7166461952149867
1772649749562196500,1.458196533203125,0.4151533111490309,-5.1792064724504945,-3.858904210117459
1772649749572237600,1.468237548828125,2.7615093704164027,-1.9954449186652898,-5.553011143514514
1772649749582278400,1.4782783203125,11.173107864308356,3.0652520787388084,-6.118802029246091
1772649749592319500,1.488319580078125,0.682524144885689,8.507201140603422,-2.739677477836609
1772649749602360600,1.498360595703125,0.7630968341171741,8.522034552597999,-2.7632661509558556
1772649749612401400,1.5084013671875,0.8871138205386697,8.547075470352173,-2.8052789540380236
1772649749622443800,1.51844384765625,0.9039445438303053,14.90605871311426,8.113491161108016
1772649749632484600,1.528484619140625,-0.10042597521468996,8.037851690495014,4.200806553225219
1772649749642525700,1.538525634765625,-4.334176620534062,4.886532270631194,6.354416373237967
1772649749652566800,1.54856689453125,-4.224221038821339,1.6435615720301866,5.72715248941183
1772649749662607600,1.558607666015625,-2.592117264872789,1.302026016408205,3.680099256323278
1772649749672648700,1.568648681640625,-2.869004114973545,3.5272406446903943,1.7799384199395776
1772649749682690600,1.578690673828125,-4.557014485061169,7.20746352739334,2.3319271364204583
1772649749692731600,1.588731689453125,-4.778057282865047,10.68021913318038,3.172184805499017
1772649749702772700,1.598772705078125,-4.795074468639493,10.670717145341634,3.2179999234735965
1772649749712813600,1.6088134765625,-4.794243278512359,10.665581536018848,3.2560867852836846
1772649749722854700,1.618854736328125,-4.779313420405984,10.666685113346576,3.2669612305194136
1772649749732895500,1.6288955078125,-4.76231084767878,10.672565403556822,3.2456519005089994
1772649749742937600,1.6389375,-4.75285679063499,10.679890631878376,3.2052000631332396
1772649749752978700,1.648978759765625,-4.750833175852894,10.68762268743515,3.15428411488831
1772649749763019500,1.65901953125,-4.747618889981508,10.69694698061943,3.096165103396773
1772649749773060600,1.669060546875,-3.876007905131578,10.572238066411018,2.8366958365648984
1772649749783101400,1.679101318359375,-3.67247621409893,8.881198119369149,3.7710631373181935
1772649749793142500,1.689142578125,-2.7214474091410636,7.948040486666559,4.2800002091884615
1772649749803184400,1.699184326171875,-1.6218826780550182,7.340112586951255,4.430552005183697
1772649749813225500,1.7092255859375,-0.48935281208679077,6.0065124516278505,4.000041112035513
1772649749823266600,1.7192666015625,0.9608547640539705,4.034132766729593,3.151608758199215
1772649749833307400,1.729307373046875,2.154678326027095,1.9737907207399605,2.2328603207297624
1772649749843348500,1.739348388671875,3.031403000628948,0.024825813698768615,1.0493163068391382
1772649749853389600,1.7493896484375,3.7088381518125533,-1.5582710604965686,-0.251817729165405
1772649749863431700,1.759431640625,3.8767069933116436,-2.794045612362027,-1.4893936313644052
1772649749873472800,1.76947265625,3.815613057662546,-3.8194063124656674,-2.4264929874300956
1772649749883513600,1.779513671875,3.8152079839929938,-4.943748780325055,-3.0383418599814176
1772649749893554700,1.7895546875,4.001942561742663,-6.3563236681640145,-3.9482317220821974
1772649749903595800,1.799595703125,4.116643876677752,-7.660389081445336,-5.0769133881896735
1772649749913636600,1.80963671875,4.209380612564087,-8.97254661576748,-5.944245088285207
1772649749923677700,1.819677734375,4.287559246265888,-10.337965200155972,-6.0410109335571525
1772649749933719600,1.829719482421875,4.232150662776828,-11.804744556391238,-5.998263094198704
1772649749943760600,1.8397607421875,3.8930215837746855,-13.14295832298994,-5.808801429572701
1772649749953801700,1.8498017578125,3.110761199504137,-13.889530723285674,-5.440284343522786
1772649749963842600,1.859842529296875,2.15818998740986,-13.67347740433216,-4.634132211533188
1772649749973883600,1.869883544921875,1.5912888023488223,-12.272835530871152,-3.7174800156906245
1772649749983924700,1.8799248046875,1.2568782763011752,-10.690932250374555,-2.7752152396857737
1772649749993966600,1.889966552734375,0.7916017747201025,-9.312102395749092,-1.6837205639392137
1772649750004007700,1.900007568359375,0.9530660098738968,-8.345765547022223,-1.0468332578517496
1772649750014048500,1.910048583984375,1.295281802845001,-8.335276886233688,-1.1030318226747213
1772649750024089600,1.920089599609375,1.5820980724163352,-8.8477564530164,-1.4462182142436504
1772649750034130700,1.930130615234375,1.8533173982746898,-9.373907402276993,-1.592918303246796
1772649750044171500,1.940171630859375,2.013908942247182,-9.527747718423605,-1.5769934427537022
1772649750054213600,1.950213623046875,2.0663205358773467,-9.526980241182446,-1.7308106702856718
1772649750064254500,1.96025439453125,2.0578044903360304,-9.329045347243547,-1.8165043557927012
1772649750074295600,1.970295654296875,1.9071232227422297,-9.320786637464165,-1.8450411528386175
1772649750084336600,1.980336669921875,1.649129727551341,-9.216799608767031,-1.8394218516521155
1772649750094377500,1.99037744140625,1.3622649426631628,-9.122278327551484,-1.885509795218706
1772649750104418600,2.00041845703125,0.921649711868912,-8.869592437249421,-1.8640458591684699
1772649750114460700,2.010460693359375,1.297103319183737,-8.197140335175394,-2.1221571355201303
1772649750124501800,2.020501708984375,1.7261849101811646,-7.037098192903399,-2.383675297705829
1772649750134542600,2.03054248046875,1.7126966291852295,-5.76503126142919,-2.661974644953012
1772649750144583700,2.040583740234375,2.3963328269660473,-4.163627161648869,-2.8385268513843416
1772649750154624800,2.050624755859375,1.1154928064495324,-2.1747271345824,-1.8914435691818594
1772649750164665600,2.06066552734375,-0.5344891540169715,0.5227765043914318,-0.9030384618360549
1772649750174707700,2.070707763671875,-0.43559272645711894,4.442621213161945,-1.6080442684471605
1772649750184748500,2.08074853515625,3.1139252164930102,10.588967082893848,-3.7897529324799772
1772649750194789600,2.09078955078125,3.1075761397272346,10.585261214113235,-3.7622771887943145
1772649750204830700,2.100830810546875,3.17343831269145,10.59300963628292,-3.762688399943709
1772649750214871600,2.11087158203125,3.2577427357971667,10.608754317903518,-3.8101837260901927
1772649750224912600,2.12091259765625,-1.0555587083600462,16.32184554873705,9.717216981834172
1772649750234953700,2.13095361328125,1.5051505879446863,8.206690253809095,6.059637892615795
1772649750244995600,2.14099560546875,-2.6138477429047224,6.038092415761947,5.789206502264737
1772649750255036700,2.15103662109375,-4.541521147853135,4.890252752459049,5.743853448843955
1772649750265077500,2.161077392578125,-4.891275665766001,4.959530286824703,3.4653859538018703
1772649750275118600,2.17111865234375,-4.800382511919737,7.4236641458630555,1.1523996646948158
1772649750285159700,2.18115966796875,-4.280378979372978,10.18541083216667,1.2112070968419313
1772649750295200500,2.191200439453125,-4.32013698926568,10.174690700709819,1.2415338460445404
1772649750305242600,2.20124267578125,-4.347705964192748,10.165890139138698,1.2730693865150213
1772649750315283500,2.211283447265625,-4.3598464838415385,10.16087026515007,1.2953921313516794
1772649750325324500,2.221324462890625,-4.369417445263267,10.157833089411259,1.3067986376374958
1772649750335366000,2.231365966796875,-4.384008865195512,10.155170007681846,1.3104856555871665
1772649750345406700,2.24140673828125,-4.399191821280121,10.153403582531213,1.3073473575614392
1772649750355447800,2.25144775390625,-4.406559135177731,10.153294861459731,1.3006060666076837
1772649750365488600,2.261488525390625,-4.400751910203695,10.155781417578458,1.2890130978390573
1772649750375530800,2.27153076171875,-2.312988188803196,10.761607961100339,3.3501869184777138
1772649750385571800,2.28157177734375,-1.808494360077381,8.68290783612132,3.7544758673936127
1772649750395612700,2.29161279296875,-1.1009097159542143,6.899988646805286,3.6852751976564524
1772649750405653800,2.30165380859375,-0.364797919396311,4.954717918106914,3.00303264619112
1772649750415694600,2.311694580078125,0.6908372152008115,2.543324300131202,1.7831782786436379
1772649750425735700,2.321735595703125,1.9251643447369335,-0.02572130123376846,0.49412484879419205
1772649750435777800,2.33177783203125,2.769823025253415,-2.301587089344859,-0.777759857980907
1772649750445818600,2.341818603515625,3.04777428971529,-4.356074564087391,-1.9967871270544826
1772649750455859700,2.351859619140625,2.8779584058016536,-6.209878138443827,-3.1298321029379963
1772649750465900500,2.361900634765625,3.1802497462719677,-8.085988821676374,-3.900645210520923
1772649750475941600,2.371941650390625,3.9966567302942275,-9.858246916246413,-4.74430552764982
1772649750485982700,2.381982666015625,4.656510632079839,-11.189684905099869,-5.891378590494394
1772649750496024600,2.392024658203125,4.059250841373205,-11.827018347519635,-6.3223728832453485
1772649750506065700,2.402065673828125,3.3658699330389497,-12.482069817459582,-6.223149707949161
1772649750516106500,2.4121064453125,3.325904417875409,-13.046191893196106,-5.857384550955891
1772649750526147600,2.422147705078125,3.700399409291148,-12.936049264478683,-4.937831080713868
1772649750536189000,2.43218896484375,3.272089241057634,-12.227337516021727,-3.9005788672864434
1772649750546229800,2.442229736328125,2.1590672086358067,-10.802137539887427,-3.2886481616705656
1772649750556270800,2.452270751953125,1.4081196619957685,-9.328837841972708,-2.854263349698484
1772649750566312700,2.462312744140625,0.7553004811525345,-8.781842257604003,-2.31096150528118
1772649750576353800,2.472353759765625,-0.17483027800954878,-8.94384191480875,-1.8599458765037358
1772649750586395000,2.482394775390625,-0.4656016418822109,-8.962612666252255,-1.4026878462053836
1772649750596435700,2.492435791015625,0.3325304113894701,-8.827361315241456,-1.5596104924067853
1772649750606476800,2.502476806640625,1.1166273634374142,-9.002169016093015,-1.702980706334859
1772649750616518000,2.512517822265625,1.475618496251106,-9.454978834810852,-1.694100795917213
1772649750626559700,2.522559814453125,1.7787386887609957,-9.710512515759467,-1.8057244569726287
1772649750636600800,2.532600830078125,2.039404471901059,-9.511454170748591,-1.9356068282961845
1772649750646641700,2.5426416015625,2.2839006260067225,-8.992998452165722,-1.8516285684049127
1772649750656682800,2.552682861328125,2.0052274770110845,-8.561672150981426,-1.656924473080784
1772649750666723800,2.562723876953125,1.3316653678685426,-8.131589127856493,-1.3385606803402303
1772649750676764700,2.5727646484375,0.7163030073035508,-7.826986003312468,-1.0505391266323625
1772649750686806800,2.582806884765625,1.2171148595809935,-7.709259203076362,-1.2623556847989559
1772649750696847600,2.59284765625,2.3041759367942807,-7.332225633093715,-1.8421829869285224
1772649750706888700,2.602888671875,2.7479157293498515,-7.050242921158671,-2.475028762540221
1772649750716929800,2.6129296875,2.85483939602077,-6.271975990438461,-3.064909548911452
1772649750726970600,2.622970703125,1.7154203550606966,-4.965973471614718,-2.3408308661051094
1772649750737011700,2.63301171875,1.2994763319253921,-3.206332866555452,-1.347711078262329
1772649750747053600,2.643053466796875,2.5214924075514076,-0.4504711466372013,-1.9168349078088998
1772649750757094700,2.6530947265625,6.669965839210152,4.256477879303693,-4.628344275781512
1772649750767135700,2.6631357421875,8.34920078216791,12.67491761739254,-7.538934200596809
1772649750777176600,2.673176513671875,8.476150168779492,12.680370037579536,-7.497141470006108
1772649750787217700,2.6832177734375,8.644124808740616,12.699050188130139,-7.553083721980452
1772649750797258500,2.693258544921875,8.791231432718037,12.722559658533333,-7.651085246527194
1772649750807299600,2.703299560546875,-3.175177849835157,11.952308276486397,2.3545171538911758
1772649750817341700,2.713341796875,-4.732728779363632,8.411295127031206,1.542242301237583
1772649750827382800,2.7233828125,-6.446857341048121,5.556060009691119,2.0756316773191092
1772649750837423900,2.733423828125,-5.980758417168259,3.0812831760853525,2.3617447670571505
1772649750847464700,2.743464599609375,-4.340573043572903,1.8802964444845913,2.3426924221932888
1772649750857505800,2.753505859375,-4.127148319557309,4.346186791801452,4.01703550145626
1772649750867547000,2.763546875,-4.6614726384013885,9.374850820606946,6.243707927331328
1772649750877588700,2.773588623046875,-4.6829169929683205,9.367947617089747,6.278543093869089
1772649750887629800,2.7836298828125,-4.691756717506051,9.364388463303447,6.299534443971514
1772649750897670700,2.793670654296875,-4.6926662335664036,9.364055285826325,6.301437062722444
1772649750907711700,2.803711669921875,-4.683667519074678,9.36775647843182,6.279364347124099
1772649750917752800,2.8137529296875,-4.667354682177305,9.374127767029403,6.243401053339243
1772649750927793700,2.823793701171875,-4.650053418764472,9.38114787492454,6.204616856914758
1772649750937834800,2.833834716796875,-2.805702147886157,10.558853684180974,3.1515251715689896
1772649750947876600,2.843876708984375,-1.8682944565236568,7.8212202793926,2.2868128601916133
1772649750957917700,2.853917724609375,-0.742633161150664,4.871410104823112,1.3675541351124643
1772649750967958800,2.863958740234375,0.17028934664428233,2.336393614310026,0.44015565045848487
1772649750977999600,2.87399951171875,0.9118132313787937,0.4307353495538234,-0.04489025821462273
1772649750988040700,2.884040771484375,1.5432856728106736,-1.0843827979147433,-0.282634161581099
1772649750998081800,2.894081787109375,2.4746119984328745,-2.8861148242503405,-0.8921269725255667
1772649751008123600,2.90412353515625,3.3096459415137764,-4.962222594648599,-1.6917698687516152
1772649751018164700,2.914164794921875,4.461025469380617,-7.396330733257532,-2.7746134744003412
1772649751028205600,2.92420556640625,5.447922875577211,-9.97574984459877,-4.06332671250999
1772649751038246700,2.93424658203125,5.428053807502985,-11.581880388379096,-5.536726948189735
1772649751048287700,2.944287841796875,4.428212748581171,-11.897291907185316,-6.356889485353231
1772649751058328600,2.95432861328125,3.802648069888353,-11.954438274252414,-6.352212141191959
1772649751068369700,2.96436962890625,3.9842800638020037,-12.326783394157886,-5.875535124674439
1772649751078411800,2.974411865234375,4.313343091341853,-12.664765641212462,-5.190305958613753
1772649751088452900,2.984452880859375,3.721349258339405,-12.590236762189864,-4.496919497321546
1772649751098493700,2.99449365234375,2.3673703518539666,-11.884513089632987,-3.798677412691712
1772649751108534800,3.00453466796875,1.132603588791564,-10.375311472731829,-2.7486186169221996
1772649751118575900,3.014575927734375,0.6430028663583099,-9.269157572513818,-1.5132085144549607
1772649751128616700,3.02461669921875,0.9940741659581661,-9.038773530390857,-0.9520688885953277
1772649751138658800,3.034658935546875,1.3897405402183531,-8.849857224687934,-0.9288249372605234
1772649751148699600,3.04469970703125,1.445391554161161,-8.996187019073963,-1.16141131173335
1772649751158740700,3.05474072265625,1.4472493108570574,-9.319736251628399,-1.5231322348371148
1772649751168781800,3.06478173828125,1.5786358031332492,-9.67354384432435,-1.784161590592563
1772649751178822700,3.07482275390625,1.8038111706972122,-10.020269369804858,-1.9475895270347594
1772649751188863700,3.08486376953125,1.6201058776408432,-10.158370849549769,-2.2701237373277543
1772649751198904800,3.09490478515625,1.3644808651469646,-10.0232480933547,-2.4990467669874428
1772649751208946700,3.10494677734375,1.200601604740694,-9.714096219465135,-2.7273186392620206
1772649751218987800,3.11498779296875,1.3158394377052782,-9.440541144135594,-2.273307628060877
1772649751229028600,3.125028564453125,1.0175076485157013,-9.206920604309438,-2.0097252268217503
1772649751239069700,3.135069580078125,0.6972643987040966,-8.916588581702113,-2.196452644178271
1772649751249110800,3.14511083984375,0.8561819450497626,-8.22820299743712,-2.7248604324549435
1772649751259151600,3.155151611328125,1.1673498349368572,-6.925441067969799,-2.5677956013038754
1772649751269193700,3.16519384765625,1.5425614501893519,-5.207213838794827,-2.6344144378542897
1772649751279234600,3.175234619140625,0.7280617610931396,-2.987424158170819,-2.4535113427370785
1772649751289275600,3.185275634765625,0.8941128125805408,0.045403322303295135,-1.424635035727918
1772649751299316700,3.195316650390625,2.7634195879518986,3.557849133443832,-0.520381791274622
1772649751309357600,3.205357666015625,3.886189691928029,7.796528321206569,-0.4743632962150499
1772649751319398700,3.215398681640625,3.8560418064236637,7.794640315502882,-0.45135742795243855
1772649751329439700,3.225439697265625,3.872097453689575,7.794114245802164,-0.4173761382976547
1772649751339481600,3.235481689453125,3.9426737956941125,7.79667678976655,-0.4095887358244508
1772649751349522700,3.245522705078125,4.045793978428841,7.803155630391836,-0.4557829162444919
1772649751359563500,3.2555634765625,-4.939247961774468,13.553729911923408,8.136901847311854
1772649751369604600,3.2656044921875,-3.145157390102744,8.363319323891401,3.358914414812624
1772649751379645700,3.275645751953125,-6.018513855066895,7.148876313868165,1.6779913726374507
1772649751389686500,3.2856865234375,-7.351988902705908,7.990610046848654,2.7885172043293713
1772649751399728600,3.295728759765625,-5.337243071243167,8.924737985888124,2.475890640066564
1772649751409769500,3.30576953125,-5.3508004719525575,8.923964663428068,2.470246788960695
1772649751419810600,3.315810546875,-5.36431578708589,8.921900716635584,2.483262922400236
1772649751429851600,3.3258515625,-5.361333556404709,8.921286968651414,2.4958099770233035
1772649751439892500,3.335892578125,-5.345618100878596,8.922088932684064,2.503794253775477
1772649751449933600,3.34593359375,-5.324454901340603,8.92385009713769,2.50509481498003
1772649751459974400,3.355974365234375,-5.295680057755113,8.927302283418179,2.4923954924046994
1772649751470016500,3.3660166015625,-5.256801753306388,8.932661764624715,2.467753218579292
1772649751480057600,3.3760576171875,-5.212862658336758,8.93904708174765,2.439028936137259
1772649751490098700,3.3860986328125,-2.20268423204422,11.0353547596097,1.5010150955751538
1772649751500139800,3.396139892578125,-2.1979589570879936,8.504611708632112,1.140205222901702
1772649751510180600,3.4061806640625,-1.8477103720478711,6.07018266750574,0.824953205506131
1772649751520221700,3.4162216796875,-1.174172374433279,3.8579432561308145,0.21382607135809956
1772649751530263600,3.426263671875,-0.28087723491117356,1.9456588512331245,-0.39820327232666314
1772649751540304600,3.4363046875,0.9058120912678539,0.3559779224723577,-1.14939631816037
1772649751550345700,3.446345703125,1.8031892394065856,-1.141314645448327,-1.827567893859744
1772649751560386600,3.456386474609375,2.423864977014065,-2.75862417036891,-2.2378839941106734
1772649751570427600,3.466427734375,3.153465784242749,-4.60559468383491,-2.588649004240334
1772649751580468700,3.47646875,3.6831753027677534,-6.635610565143823,-2.9254721443876623
1772649751590509600,3.486509521484375,3.993041462406516,-8.262067857638002,-3.71489642893821
1772649751600551700,3.4965517578125,4.253385173985362,-9.44106896740198,-4.353516111776233
1772649751610592500,3.506592529296875,4.680316455081105,-10.994494341433047,-4.813455636243522
1772649751620633600,3.516633544921875,4.881033673214912,-12.412724478554725,-5.334596940648556
1772649751630674700,3.5266748046875,4.945042911788821,-13.404744634592532,-5.487438308885693
1772649751640715500,3.536715576171875,4.516984087967872,-13.878060065722465,-5.181630484727025
1772649751650756600,3.546756591796875,3.6544244245797395,-13.61954473861456,-4.368516697031259
1772649751660798500,3.556798583984375,2.591496502625942,-12.445415618801116,-3.177859636265039
1772649751670839600,3.566839599609375,1.5905319926321506,-10.754241816246509,-2.0007987007834016
1772649751680880600,3.576880615234375,0.8066600815117358,-9.43614612404704,-1.1172697529941797
1772649751690921500,3.58692138671875,0.6513480123121291,-8.922844134965539,-0.7113667930103839
1772649751700962600,3.596962646484375,1.0435844121236353,-8.946160713145137,-0.8520460142888129
1772649751711003600,3.607003662109375,1.1890661383129655,-9.282050371834636,-1.1634034353986382
1772649751721044500,3.61704443359375,1.4123551076084375,-9.591630700269342,-1.4641417012080549
1772649751731086600,3.627086669921875,1.6854935649611056,-9.711844056624173,-1.71031791735515
1772649751741127400,3.63712744140625,1.8720878574572501,-9.682631990665197,-1.8941269630469382
1772649751751168500,3.64716845703125,1.8783833043396472,-9.560805938416719,-2.0074203108802435
1772649751761209600,3.657209716796875,1.6486328839451074,-9.373132326251268,-1.9671337470687924
1772649751771250400,3.66725048828125,1.0150037028707564,-9.177147397336363,-1.5634893796667455
1772649751781291500,3.67729150390625,0.177506584546715,-8.977229805147648,-0.7489276581849903
1772649751791332600,3.68733251953125,-0.3966537778623402,-8.688543796181678,0.003152691877260804
1772649751801374700,3.697374755859375,-0.5627934574812651,-8.338471298360824,0.3285119695283472
1772649751811415600,3.70741552734375,0.07930456899181008,-7.718865820333361,-0.10766761690601706
1772649751821456600,3.71745654296875,1.2383658835329114,-6.821939776962995,-1.2326631418466567
1772649751831497700,3.727497802734375,3.0857652899354693,-5.5523009494185445,-2.674118087211251
1772649751841538600,3.73753857421875,4.360420484337211,-4.115715655916929,-3.9635783442959185
1772649751851579600,3.74757958984375,3.8609734176069495,-2.112833280727267,-4.199239157778025
1772649751861621500,3.75762158203125,1.927339935210347,0.49691024172902104,-3.6130268307864664
1772649751871662600,3.76766259765625,1.0248639295626432,3.9802983006894586,-2.807539592446387
1772649751881703700,3.77770361328125,1.427332311987877,9.017221039274334,-1.2190345755971967
1772649751891744500,3.78774462890625,1.4158721758186816,9.015725247758626,-1.1974478899501264
1772649751901785600,3.79778564453125,1.4466753103613852,9.01704334461987,-1.1646459097404032
1772649751911826700,3.80782666015625,1.5349252562224864,9.024318304058909,-1.1756268840905277
1772649751921867500,3.817867431640625,-6.292386325782537,15.633402681326865,8.463170860219002
1772649751931909600,3.82790966796875,-4.5541433135390275,9.78846552401185,6.845636294370889
1772649751941950500,3.837950439453125,-4.4382221014201635,6.881390329319238,4.679750637891888
1772649751951991600,3.847991455078125,-5.131282107236981,7.524766559034585,3.7904552355304357
1772649751962032600,3.85803271484375,-4.812846272173523,8.038919027465582,2.8296444567486643
1772649751972073500,3.868073486328125,-4.273522537606954,7.609683561080693,3.0832305107608438
1772649751982114600,3.878114501953125,-4.317247113043069,7.573684611460566,4.290268505224585
1772649751992156400,3.888156494140625,-4.034470620381832,8.103123496350646,5.2946653277546165
1772649752002197500,3.898197509765625,-3.719240887883305,9.430312595587969,6.060721011677384
1772649752012238600,3.908238525390625,-3.69660995388031,9.432350238895415,6.071447572875022
1772649752022279400,3.918279541015625,-3.678800156423449,9.434133030658959,6.078280049243569
1772649752032320500,3.928320556640625,-3.6689743434578177,9.435554587894677,6.076960783338547
1772649752042361600,3.938361572265625,-3.6637124774068592,9.437465974473954,6.0626183697313065
1772649752052402400,3.94840234375,-3.658839318412542,9.44036169591546,6.0366252658188335
1772649752062444800,3.95844482421875,-3.6494215017259117,9.444617599794269,6.003225685042143
1772649752072485600,3.968485595703125,-3.8929321519255637,10.230496174561976,0.7292810006897896
1772649752082526700,3.978526611328125,-3.4873780053794383,8.888743127921224,1.3576692854359744
1772649752092567800,3.98856787109375,-2.065944834432751,7.7971596048474305,1.449194745836407
1772649752102608600,3.998608642578125,-0.6952635072104633,6.610249329394102,0.9696014034807682
1772649752112649700,4.008649658203125,0.36141105343699453,5.438605012133717,0.5224643697023391
1772649752122690600,4.018690673828125,1.2071902624160051,4.217137802562117,0.32715171402581034
1772649752132732700,4.028732666015625,1.747068708255887,2.9382962623864413,0.040725320554897186
1772649752142773500,4.0387734375,2.2854776660650966,1.6328718357115983,-0.3660169397972524
1772649752152814600,4.048814697265625,2.8430232860207556,-0.000039162966609001156,-1.0008137033462523
1772649752162855700,4.058855712890625,3.2020728710234163,-1.909510848531127,-1.6526904887728393
1772649752172896500,4.068896484375,3.5513451583772895,-4.061652057296038,-2.21836812338829
1772649752182937600,4.0789375,3.8700522115975615,-6.218533154064416,-2.943493831029534
1772649752192978700,4.088978759765625,4.455136995863914,-8.216624787846207,-3.832693664062023
1772649752203020500,4.0990205078125,4.821763738122582,-9.836185891085863,-4.76432569463253
1772649752213061600,4.1090615234375,4.177360503447056,-11.098810455954075,-5.2279965145826335
1772649752223102500,4.1191025390625,3.6135453017026182,-12.352747856497764,-4.993419112423062
1772649752233143600,4.1291435546875,3.3050100984066724,-13.449825300812721,-4.804882745948434
1772649752243184600,4.1391845703125,3.2092700890511274,-13.99105048508644,-4.3047129179015755
1772649752253225500,4.1492255859375,2.8448306277036663,-13.69563312203884,-3.4143308893471955
1772649752263267600,4.159267578125,2.192301369717717,-12.356190690428019,-2.597754101715982
1772649752273308400,4.169308349609375,1.7405898676306009,-10.722044012475013,-2.0005033710986373
1772649752283349500,4.179349609375,1.3943033180892466,-9.634405427634716,-1.5206751970738173
1772649752293390600,4.189390625,1.2865122209340334,-9.157935331866145,-1.2819675632417202
1772649752303431400,4.199431396484375,1.176897488548234,-9.279177446746825,-1.274215780071169
1772649752313472500,4.209472412109375,1.0957330439686774,-9.470270511966943,-1.3618958170898259
1772649752323513600,4.219513671875,1.2302496509641407,-9.44013957759738,-1.5664847620904445
1772649752333555700,4.2295556640625,1.330082336460799,-9.291821239742637,-1.8798282424509525
1772649752343596800,4.2395966796875,1.3115139757215977,-9.167032830557227,-2.105768749168515
1772649752353637600,4.2496376953125,1.2580677783466874,-9.174761378982662,-2.1762579974114895
1772649752363678700,4.2596787109375,1.175647780748084,-9.212501034790277,-2.19557761490941
1772649752373719800,4.2697197265625,1.0126434034802019,-9.126810710284113,-2.1022145638182756
1772649752383760600,4.2797607421875,0.7308423317223787,-8.95566562359333,-2.036677969546616
1772649752393801700,4.2898017578125,0.5095506006587296,-8.417075463998318,-2.0067995486333965
1772649752403843600,4.299843505859375,1.0462550195723772,-7.826991264009475,-2.253227839845419
1772649752413884700,4.309884765625,0.8930039014905691,-6.8328966397851705,-2.0011479526124893
1772649752423925800,4.31992578125,1.3262965343117714,-5.4840083344370125,-2.209773459652811
1772649752433966600,4.329966552734375,2.2943998081892727,-3.989175434628129,-2.472638068011403
1772649752444007700,4.340007568359375,2.0314625729858875,-2.367348724544048,-2.364289921495318
1772649752454048500,4.350048583984375,1.1837485234867782,-0.6830693576782941,-2.205375809215754
1772649752464089600,4.360089599609375,-0.052664326282218094,1.6295236943274736,-2.109911694192141
1772649752474131700,4.370131591796875,0.5981604658734053,5.097891294288635,-1.9269579501554368
1772649752484172800,4.3801728515625,0.41661205858997996,9.840185189855099,-0.6137674195237457
1772649752494214000,4.3902138671875,0.48795595090091226,9.846488673913479,-0.6318271000884473
1772649752504254700,4.400254638671875,0.5692776318687945,9.855034383940696,-0.6654590283162891
1772649752514295800,4.4102958984375,-0.7642027495324611,12.850942877340316,8.57190245309472
1772649752524337000,4.4203369140625,-1.2871136939585208,7.179073883733153,5.305573090738058
1772649752534378800,4.430378662109375,-4.036549764743447,5.6135769636362784,5.111475583004951
1772649752544419800,4.440419921875,-4.932010411736369,6.06266688504815,4.531880628326535
1772649752554460700,4.450460693359375,-4.520912659588456,6.88122023344934,2.732377383956313
1772649752564501800,4.460501708984375,-4.621431719914079,8.361712473216652,1.6657906472340225
1772649752574542800,4.47054296875,-4.625421081811189,8.362190612122417,1.6549270156532525
1772649752584583700,4.480583740234375,-4.627424238327145,8.362416822093724,1.6497038741774857
1772649752594624800,4.490624755859375,-4.618858070033788,8.364372632336616,1.6372586724936962
1772649752604666600,4.50066650390625,-4.599097138509154,8.368702185973525,1.6116609976395964
1772649752614707700,4.510707763671875,-4.570055752941966,8.375472703021764,1.5717586108401418
1772649752624748800,4.520748779296875,-4.534223976582289,8.384177987524867,1.522550051034987
1772649752634789600,4.53078955078125,-4.493329071614146,8.394224749764799,1.469938112527132
1772649752644830700,4.540830810546875,-4.447513661378622,8.405130759182573,1.4193604563258588
1772649752654871800,4.550871826171875,-2.193216000344604,10.71445808739066,2.7431024838492273
1772649752664912600,4.56091259765625,-2.0542852301687002,8.753271996679901,2.512254623606801
1772649752674954800,4.570954833984375,-1.8306359031282364,6.892293416127562,1.9007316220089792
1772649752684995600,4.58099560546875,-1.3489683848470448,5.317918193048238,1.2858169321462511
1772649752695036700,4.59103662109375,-0.8490168757259845,3.875551393535733,0.699679423956573
1772649752705077800,4.601077880859375,-0.10700681490972637,2.407539865157008,0.03331000279709696
1772649752715118600,4.61111865234375,0.8975731091022491,0.8158271383076906,-0.514123388466984
1772649752725159700,4.62115966796875,1.8832536868549883,-0.8301368186891078,-0.9302449601262808
1772649752735200800,4.63120068359375,2.7342431778281924,-2.630980956274271,-1.4860022353604434
1772649752745243000,4.641242919921875,3.5492046392172574,-4.744006544703245,-1.858926762589067
1772649752755283700,4.65128369140625,4.055795732483268,-6.859983968675136,-2.326252305654436
1772649752765324800,4.66132470703125,4.492215557414293,-8.462087741157411,-2.874318003472686
1772649752775366000,4.671365966796875,4.7622927275002,-9.761711372599006,-3.844618202872574
1772649752785406700,4.68140673828125,4.747711244440079,-10.700351236104964,-4.787624152633548
1772649752795447800,4.69144775390625,4.649223982203006,-11.323188535660504,-5.24012475927174
1772649752805489700,4.70148974609375,4.429801479077339,-12.00787994158268,-5.4992906592428685
1772649752815530800,4.71153076171875,4.208378157523274,-12.721846541827917,-5.386431172782182
1772649752825571800,4.72157177734375,3.565531504639983,-13.070218080949783,-4.946287943413854
1772649752835612700,4.73161279296875,2.7326842579483985,-12.550991962516306,-4.20128995282799
1772649752845653800,4.74165380859375,2.077338188976049,-11.252435668045282,-3.5104818175911903
1772649752855694800,4.75169482421875,1.7886387360066174,-9.971845238375662,-3.032365123659372
1772649752865735700,4.761735595703125,1.6517460475295782,-9.055402009108661,-2.682097980049252
1772649752875777800,4.77177783203125,1.657117219173908,-8.448336863702535,-2.6289038577392696
1772649752885818600,4.781818603515625,1.5993220328092574,-8.26007405347228,-2.6375468906611204
1772649752895859700,4.791859619140625,1.5323212112039326,-8.396414368763566,-2.6939795565009117
1772649752905900800,4.80190087890625,1.5710397950462995,-8.651467572718857,-2.8125393004298207
1772649752915941600,4.811941650390625,1.6451383198276162,-8.817491078612209,-2.97865691434741
1772649752925982700,4.821982666015625,1.679685901595652,-8.924601792287826,-3.119880910027027
1772649752936023800,4.83202392578125,1.5928792864106596,-9.097826607862114,-3.1356393279120325
1772649752946065700,4.842065673828125,1.3840524115793407,-9.23360461309552,-2.92080502935946
1772649752956106800,4.852106689453125,0.9298229353219271,-9.36368937512338,-2.629542740164697
1772649752966147600,4.862147705078125,0.7270043609946966,-9.083968762901424,-2.3334632599465546
1772649752976188700,4.872188720703125,0.8176771500885486,-8.506732938569783,-2.1343546460531653
1772649752986229800,4.882229736328125,0.507173934655264,-7.394620422208309,-1.781660713687539
1772649752996270600,4.8922705078125,1.4292477902203797,-5.713345497855544,-2.0537699741229414
1772649753006311700,4.902311767578125,2.979287613466382,-4.005620957994461,-2.271702238690853
1772649753016353500,4.912353515625,3.2332366555720564,-2.2462463103950023,-1.5903952145099638
1772649753026394600,4.92239453125,1.3894324971824883,-0.058686582246422765,-0.8031987620767206
1772649753036435700,4.932435791015625,-0.10155600215792655,3.2128608070194717,-0.42314306779392064
1772649753046476800,4.942476806640625,0.13980294990055261,7.771800707185268,0.060610901372507214
1772649753056518000,4.952517822265625,0.13910159669816494,7.765393762752414,0.12990619059056044
1772649753066558700,4.962558837890625,0.15778350081443784,7.761013355711102,0.20168767060115933
1772649753076599800,4.972599853515625,0.20602241186983883,7.7620462058901785,0.2456391866609454
1772649753086641700,4.9826416015625,-3.824247322756052,13.46457863330841,6.304057474353909
1772649753096682800,4.992682861328125,-2.6390666475743054,9.43808615219891,4.450037334637344
1772649753106723800,5.002723876953125,-3.1278000125885006,7.737265984898805,2.8006840274631974
1772649753116764700,5.0127646484375,-4.45035209967494,8.055829830256103,2.5560569404542446
1772649753126805800,5.0228056640625,-5.09433857024312,8.467861648383735,1.8222013983905314
1772649753136846800,5.032846923828125,-5.319050996470451,8.887159658122062,1.0823810296382754
1772649753146887700,5.0428876953125,-5.309180175319313,8.89014598045647,1.0619992628015578
1772649753156929800,5.0529296875,-5.297077649593353,8.893620963090658,1.0398374076150356
1772649753166970600,5.062970703125,-5.283471733567119,8.898084372240305,1.0098862137265503
1772649753177011700,5.07301171875,-5.269922516164184,8.903436254662275,0.9719969203151761
1772649753187052800,5.083052734375,-5.253725414600968,8.910024985402822,0.9270149652291089
1772649753197093600,5.09309375,-5.230868270626664,8.918213552555441,0.877404035168141
1772649753207134700,5.103134765625,-5.200498266804218,8.92742737110257,0.8302711856584996
1772649753217175800,5.11317578125,-5.166138316562772,8.936664570525288,0.7903327046323567
1772649753227217700,5.1232177734375,-5.128813671296835,8.945553979423641,0.7590835798878223
1772649753237258800,5.1332587890625,-2.079191561757773,10.69396241185069,3.763632987317443
1772649753247299600,5.143299560546875,-2.012120013003796,9.170678493583202,3.2663837228924035
1772649753257340700,5.153340576171875,-1.4569113115631043,7.805468583509326,2.3799817038848996
1772649753267381800,5.1633818359375,-0.701733580007404,6.211704769349097,1.3396592892318964
1772649753277422600,5.173422607421875,0.31008900860920546,4.326527567085623,0.18720920952409506
1772649753287463700,5.183463623046875,1.3857622842371462,2.6618928118884564,-0.973300988651067
1772649753297505500,5.193505615234375,2.333054386884719,0.7812859862804412,-2.139293563760072
1772649753307546600,5.203546630859375,3.3753374340862035,-1.5691034201562404,-3.1330396668076514
1772649753317587700,5.213587646484375,4.255170303836465,-4.0188755763649935,-3.6253596581369636
1772649753327628500,5.223628662109375,4.564920728141069,-6.07630202716887,-3.704244978803396
1772649753337670400,5.23367041015625,4.901825701352954,-7.645919242066144,-3.9376889930188654
1772649753347711200,5.243711181640625,5.110391879421472,-8.752450743424891,-4.42405621342361
1772649753357753300,5.25375341796875,4.970416422498226,-9.579913374468683,-4.760604628282785
1772649753367794200,5.263794189453125,4.9510634872525925,-10.180056611657141,-4.557828139531612
1772649753377835300,5.273835205078125,4.773713700702786,-11.093387261861562,-4.571433471035957
1772649753387876400,5.28387646484375,4.466749107724428,-12.001083121049403,-4.668367658612132
1772649753397917200,5.293917236328125,3.707805886155367,-12.589467531383036,-4.286165161558985
1772649753407958300,5.303958251953125,2.454018123215437,-12.643766107803582,-3.4437060369133947
1772649753417999400,5.313999267578125,1.2684237526662647,-11.876148581391572,-2.2749390286549924
1772649753436826000,5.332826171875,0.4000442970834672,-9.763156310710311,-0.3331554114200175
1772649753446867500,5.342867431640625,0.8452693597607314,-9.215762082412839,-0.13193112054690717
1772649753456908500,5.352908447265625,1.0625530972920358,-9.377069665700196,-0.34338366770669815
1772649753466949400,5.362949462890625,1.3621722959436475,-9.548784076711534,-0.6505700867421925
1772649753476991500,5.372991455078125,1.695530828720331,-9.583009586918353,-1.0097812920473515
1772649753487032300,5.3830322265625,1.972059805294126,-9.446521387588977,-1.3937640966460108
1772649753497073400,5.393073486328125,2.1446832939743996,-9.345031436404586,-1.797330284245312
1772649753507114500,5.403114501953125,2.203289358330518,-9.240368700402975,-2.151099883018434
1772649753517155300,5.4131552734375,2.1338879053242503,-9.073306499111652,-2.3615954217143353
1772649753527196400,5.423196533203125,1.986076494078338,-8.97242912686765,-2.5092104336053134
1772649753537238300,5.43323828125,1.9147693535812198,-8.818802745732665,-2.6568156547546384
1772649753547279400,5.443279296875,2.3819946511425076,-8.406611937651038,-2.8188509677946567
1772649753557320400,5.453320556640625,2.723643457880616,-7.709295443433523,-2.700049816325307
1772649753567361300,5.463361328125,1.7740939316950737,-6.5779264379382125,-2.4356311103925106
1772649753577402400,5.47340234375,1.6397750392287969,-4.900636199307441,-2.8308760443702337
1772649753587443500,5.483443359375,1.5157231276243923,-2.9381811115741727,-2.7896321798339483
1772649753597484300,5.493484375,0.2768652958560735,-0.8612544260084628,-1.6245188717775045
1772649753607525400,5.503525390625,-1.157372046279907,1.3934183519482612,-1.1525139387242496
1772649753617567200,5.513567138671875,-1.128278638264537,4.510524536564946,-1.3454329041972755
1772649753627608300,5.5236083984375,1.5880027664154768,8.802444316127895,-1.4435449033811687
1772649753637649400,5.5336494140625,1.3711854773521424,14.1109335865736,-1.4047799961790441
1772649753647690200,5.543690185546875,-5.5129737321585415,19.20696843934059,3.841140589889884
1772649753657731300,5.5537314453125,-6.622367637211084,19.476081148308513,9.209047679466009
1772649753667772400,5.5637724609375,-2.0127017584145066,13.931120624780654,7.458056829330324
1772649753677814300,5.573814208984375,-0.8774338457845151,9.015169951963424,4.5100393833965065
1772649753687855400,5.58385546875,-2.708779650747776,7.453657717588544,4.421225081650912
1772649753697896200,5.593896240234375,-5.178569928112625,7.564475469088554,5.414069705814123
1772649753707937300,5.603937255859375,-5.7019093270838255,8.244981698280572,4.809381226411461
1772649753717978000,5.61397802734375,-4.979283619564772,9.00531140577197,3.5163124234408136
1772649753728019200,5.624019287109375,-4.1605619288593525,9.833549697363376,2.8401848477244376
1772649753738060300,5.634060302734375,-4.904287707552314,11.208097344624996,2.965570053759217
1772649753748101000,5.64410107421875,-6.293056772390008,12.862885828590393,3.37729295206815
1772649753758143500,5.6541435546875,-6.266264627054333,13.646147498857975,3.1656980738282203
1772649753768184300,5.664184326171875,-4.790722703170776,13.454347162151336,2.278693558882922
1772649753778225400,5.674225341796875,-3.5944209145158528,12.883383842217922,1.6239377108886837
1772649753788266500,5.6842666015625,-2.6009400382757186,12.346231606471537,1.4425759122185409
1772649753798307300,5.694307373046875,-1.6471844387024641,11.423313628232478,1.6905511406116187
1772649753808349400,5.704349365234375,-1.1152291870772837,9.471761042785644,1.8815274475842714
1772649753818390300,5.714390380859375,-0.694034842198342,7.4669514989256855,2.0704824778623876
1772649753828431400,5.724431396484375,-0.027045827835798262,5.390908025935292,2.044478560294956
1772649753838472400,5.734472412109375,0.6521348518408835,3.4179362203627823,1.6699083116859197
1772649753848513300,5.74451318359375,1.4346226151265202,1.5555273147463797,0.9591444530047476
1772649753858554400,5.754554443359375,2.460590487343073,-0.3414239119410515,-0.2714676015309989
1772649753868596200,5.76459619140625,3.3989965420931574,-2.246737308782339,-1.4557218095175921
1772649753878637300,5.77463720703125,3.8012358650028704,-4.1494092512041325,-2.309913165272027
1772649753888678400,5.784678466796875,3.9269899043500422,-5.910466152802109,-3.0344761244639753
1772649753898719200,5.79471923828125,4.053659889498353,-7.5071268574476235,-3.797042504966259
1772649753908760300,5.80476025390625,4.172697772333025,-8.86914820061326,-4.720416994801163
1772649753918801400,5.814801513671875,4.042900010553002,-9.941990198338031,-5.4310389607936145
1772649753928842200,5.82484228515625,4.08507151132822,-11.211116984707116,-5.735915057060122
1772649753938884400,5.83488427734375,3.9509704993963237,-12.336731956720351,-6.012638825553656
1772649753948925200,5.84492529296875,3.880055719217658,-13.14752811512351,-5.704096607995033
1772649753958966300,5.85496630859375,4.208341332644224,-13.419157775348424,-4.550010159257054
1772649753969007400,5.86500732421875,3.296737944623828,-12.603164048302173,-3.252117004869878
1772649753979048200,5.875048095703125,2.0569437818534673,-11.403889965838193,-1.7451783644646406
1772649753989089300,5.88508935546875,1.227372195831686,-10.634354038584231,-0.3925089331425726
1772649753999130400,5.89513037109375,1.511526991108805,-10.077723195385932,-0.05739968424104154
1772649754009172500,5.90517236328125,2.007020205646753,-9.73816741540432,-0.5039363409735262
1772649754019213300,5.91521337890625,2.072244080707431,-9.7390979742527,-0.9849942759890109
1772649754029254400,5.92525439453125,2.0015597482837735,-9.827297651231289,-1.3520087754562495
1772649754039295500,5.93529541015625,1.7543537506975233,-9.82621394764781,-1.6220048431299625
1772649754049336300,5.94533642578125,1.5826707577377557,-9.638234046012162,-1.8072113345295189
1772649754059377400,5.95537744140625,1.7076263401836156,-9.662672906219958,-2.0916893704116344
1772649754069418500,5.96541845703125,1.930002578548342,-9.597074937149882,-2.221911348953098
1772649754079460400,5.97546044921875,2.1734536075152455,-9.815393278425931,-2.3000123873740432
1772649754089501400,5.98550146484375,2.0256156005233525,-9.723013100892304,-2.015350665488094
1772649754099542300,5.995542236328125,1.3564688236050306,-9.660802436172961,-1.8162834065183997
1772649754109583400,6.005583251953125,1.2705436674296855,-8.755088690713048,-1.4236675058700143
1772649754119624400,6.01562451171875,1.778107989642024,-7.976655755776166,-1.7295742603585122
1772649754129665300,6.025665283203125,2.419093086437136,-6.78934917448163,-2.10713521521613
1772649754139706400,6.035706298828125,1.9987462982982396,-4.967944479426741,-2.411706044925749
1772649754149748200,6.045748291015625,1.525834187272191,-2.7239409795224665,-2.2850186702512203
1772649754159789300,6.055789306640625,1.1324300588555634,-0.006077858608961105,-2.3289687250062823
1772649754169830400,6.065830322265625,0.8834590974234044,3.372351696273684,-2.4334656029216943
1772649754179871200,6.075871337890625,2.317466649391502,7.456058933511376,-2.311237399613112
1772649754189912300,6.085912353515625,2.2916338506072758,7.452575767570734,-2.291088345553726
1772649754199953400,6.095953369140625,2.3619163242317733,7.460101486900449,-2.3042029709316787
1772649754209994200,6.105994140625,2.4632629214227197,7.473560103410482,-2.353798484227806
1772649754220036400,6.116036376953125,2.5486452028930184,7.488546075618267,-2.4373989968478678
1772649754230077200,6.1260771484375,-3.1165432900369168,13.705944088172911,4.846983519575
1772649754240118300,6.1361181640625,-3.5818928568542003,9.091288730525969,5.70225536404252
1772649754250159400,6.146159423828125,-4.550306511855125,6.7513388850390905,6.1004123860746615
1772649754260200200,6.1562001953125,-5.085289002346992,5.890615789428353,5.742282254004478
1772649754270241300,6.1662412109375,-4.408789670708775,5.596652716842294,4.9455736576646565
1772649754280282400,6.176282470703125,-4.455533301705121,6.102099900770187,4.843473465627431
1772649754290324500,6.186324462890625,-4.857229019257426,7.893761199468374,5.142676192432642
1772649754300365600,6.196365478515625,-5.313837645736337,10.28160910668373,5.232551693668961
1772649754310406400,6.206406494140625,-5.328108747673034,10.27866311635971,5.240053447601198
1772649754320447500,6.216447509765625,-5.3534033479273315,10.275295101231336,5.238398081609606
1772649754330488300,6.22648828125,-5.385860679417848,10.2725653840065,5.223943439799547
1772649754340528600,6.236528564453125,-5.4184816770374775,10.271141488683224,5.199825482109189
1772649754350569700,6.24656982421875,-5.445095543196797,10.271457130503654,5.169489380556345
1772649754360610800,6.25661083984375,-5.4589627405077215,10.273912122440338,5.136572614860534
1772649754370652700,6.266652587890625,-3.355186626461148,9.612758243972063,0.9186183813489973
1772649754380693800,6.27669384765625,-3.015422172164917,8.445967796483636,1.440218973828852
1772649754390734600,6.286734619140625,-2.7105805626899,7.362783268442749,1.8104273739665746
1772649754400775700,6.296775634765625,-1.7896796233616767,6.379894513365626,2.2049315725795924
1772649754410816800,6.306816650390625,-0.5821024074546992,5.125125922694802,2.418306027712673
1772649754420857600,6.316857666015625,0.6116169634915888,3.490361989626288,2.2418346314325928
1772649754430898700,6.326898681640625,1.6708990762889384,1.6377204447865485,1.7252875229500233
1772649754440940500,6.3369404296875,2.5755869858324525,-0.16237725834548472,1.026361109317839
1772649754450981600,6.346981689453125,3.0739982797741887,-1.9493641354918478,0.21296046750470995
1772649754461022700,6.357022705078125,3.2669507091253993,-3.6959950368523597,-0.6431580569200217
1772649754471063600,6.3670634765625,3.397281554868817,-5.31468870960772,-1.5408040851280091
1772649754481104600,6.377104736328125,3.644730713561177,-6.660166329729557,-2.528571552157402
1772649754491145700,6.387145751953125,3.796304838341474,-7.620621719202399,-3.4286554750367997
1772649754501186600,6.3971865234375,3.9411645601749417,-8.669148775359988,-4.224181875854731
1772649754511228700,6.407228759765625,4.070941863688827,-9.644562664511799,-5.000951261493563
1772649754521269800,6.417269775390625,4.227162937492132,-10.685964983355998,-5.400362667500972
1772649754531310800,6.427310791015625,4.459127526804805,-11.79017710185647,-5.69218463640511
1772649754541351700,6.4373515625,4.3024201307892795,-12.82335344414711,-5.534114719864726
1772649754551392800,6.447392822265625,3.300518047684431,-13.67260295958519,-4.876143563085794
1772649754561433900,6.457433837890625,2.2693543603904542,-13.892256933379173,-3.8885996756792065
1772649754571474700,6.467474609375,1.9118430908709763,-13.091099540936947,-2.996266220796108
1772649754581516800,6.477516845703125,1.9366003693781793,-11.695196970957516,-2.4623162882223726
1772649754591557600,6.4875576171875,1.7717367010444403,-10.367096602094172,-1.9286827281214296
1772649754601598700,6.4975986328125,1.704439088449627,-9.398488885825872,-1.6262281599134205
1772649754611639800,6.507639892578125,1.7757599652111529,-8.879095594131947,-1.575996248409897
1772649754621680600,6.5176806640625,1.8851101283766327,-8.66246885920465,-1.61162621858716
1772649754631721700,6.5277216796875,1.955367175298929,-8.610131353724002,-1.658551928152144
1772649754641762800,6.5377626953125,1.8798818723343311,-8.629204302984476,-1.6877751000270247
1772649754651804700,6.5478046875,1.7783885601490734,-8.672168999963999,-1.6976647720091045
1772649754661845800,6.557845703125,1.6461141791224478,-8.740212024098634,-1.7084680517047643
1772649754671886600,6.567886474609375,1.2893300548337399,-8.814486636099218,-1.6974369546025991
1772649754681927700,6.577927734375,0.726313456121087,-8.755125515592098,-1.8169865863516925
1772649754691968800,6.58796875,0.6095094698183238,-8.417752340346574,-2.0803512531869113
1772649754702009600,6.598009521484375,0.4817833997458219,-7.781586188140511,-2.0250836856037377
1772649754712050700,6.60805078125,0.6633475891202688,-6.6209910881608725,-2.008327781113982
1772649754722091800,6.618091796875,2.120836554440856,-5.0414931152403355,-2.330247074379027
1772649754732133600,6.628133544921875,2.5163357554405925,-3.3149931477606294,-2.2681837091758847
1772649754742174700,6.6381748046875,0.9195833539236337,-0.6293447817534208,-1.658840681965649
1772649754752215600,6.648215576171875,0.35798984681665896,3.4322681125760077,-0.6934017319265753
1772649754762256600,6.658256591796875,-0.24748605663664638,8.686124460080265,0.8185011798225342
1772649754772297700,6.668297607421875,-0.2555051124412566,8.682417422255874,0.8874166028775274
1772649754782338600,6.678338623046875,-0.2435592385817319,8.68011089887917,0.9702280109465121
1772649754792379600,6.688379638671875,-0.1416349145680666,18.2767977134943,7.575804087832569
1772649754802421800,6.698421875,-0.9424035999536514,9.217265472713112,6.144208273181319
1772649754812462800,6.708462890625,-1.9682547139227389,5.1072769622713325,3.861292858819663
1772649754822503700,6.718503662109375,-5.173147318542004,5.010919697800278,2.9947730596289035
1772649754832544800,6.728544677734375,-6.938447849059105,6.844172067037224,1.967363025780022
1772649754842585900,6.7385859375,-8.133072644412517,8.837874525949358,0.44078817620836197
1772649754852626700,6.748626708984375,-8.06874484140873,8.846241956800222,0.41252022269908334
1772649754862667800,6.758667724609375,-8.03563869062066,8.85135301620364,0.38352899641655386
1772649754872709600,6.768709716796875,-8.033762959876656,8.852934147915244,0.35285529693979767
1772649754882750700,6.778750732421875,-8.049564924642443,8.852448410224914,0.32319983459487556
1772649754892791800,6.788791748046875,-8.068464855423569,8.851671580633521,0.29439441320803017
1772649754902832600,6.79883251953125,-8.082052651271223,8.851711912643909,0.2640679197337478
1772649754912873700,6.808873779296875,-8.088898571643233,8.852515045720338,0.23583145734127609
1772649754922914800,6.818914794921875,-8.090126652133465,8.853595826694368,0.21509050180334596
1772649754932955600,6.82895556640625,-8.083260273495316,8.8552149523288,0.2013973093524575
1772649754942996700,6.838996826171875,-8.063404064902663,8.858371370533108,0.18776278828624635
1772649754953038600,6.84903857421875,-8.028730810928344,8.863938941532373,0.16531550375446677
1772649754963079700,6.85907958984375,-1.5871448344118892,9.856190568238496,2.4280989613220094
1772649754973120800,6.869120849609375,-1.1420973202586173,7.0234238878160715,1.7801339425116776
1772649754983161600,6.87916162109375,-0.6393208168447018,4.490027107459307,1.020646823324263
1772649754993202700,6.88920263671875,-0.043346974295377726,2.2685662787526844,0.3247326701853424
1772649755003243800,6.899243896484375,0.7734348343886435,0.19898878690600394,-0.5652712457716464
1772649755013284600,6.90928466796875,1.6234167557545005,-1.6793348962008952,-1.581470003645867
1772649755023326700,6.91932666015625,2.253403927064687,-3.3987235703706737,-2.4202875569187103
1772649755033367600,6.929367431640625,2.533072955229878,-4.981973589301109,-2.8579171960309147
1772649755043408600,6.93940869140625,2.702415376412868,-6.598889146468043,-3.1215918055981398
1772649755053449700,6.94944970703125,2.9943741234391927,-8.048720875033736,-3.4086899608507752
1772649755063490600,6.959490478515625,3.5945144380182024,-9.106418495118618,-3.735920220005512
1772649755073531600,6.96953173828125,4.240191930413246,-10.094505987882613,-4.252110039483011
1772649755083572700,6.97957275390625,4.365938370975852,-11.02024369971752,-4.885017774415016
1772649755093614800,6.98961474609375,4.455899796929955,-11.700533655810355,-5.113395152890682
1772649755103656000,6.999656005859375,4.3691018034428355,-12.486509845733641,-5.055188463115692
1772649755113696800,7.00969677734375,3.8361207159012554,-13.151045767855644,-4.706842935217916
1772649755123737900,7.01973779296875,2.975294159916043,-13.25870067141056,-3.9503585049778223
1772649755133778700,7.02977880859375,2.2232161479413506,-12.22341654318571,-2.893044331252575
1772649755143819800,7.03981982421875,1.6656290269315241,-10.575908863878249,-1.9634106348924338
1772649755153860900,7.04986083984375,1.3703425967872143,-9.29063992100358,-1.485471781745553
1772649755163902700,7.05990283203125,1.1633972979187965,-8.56796745173335,-1.2195906751099974
1772649755173943800,7.06994384765625,1.1636433816343545,-8.393034663197398,-1.317605862855911
1772649755183984600,7.079984619140625,1.2283821035265923,-8.44062234380245,-1.6335327838383613
1772649755194025700,7.090025634765625,1.2522288430601358,-8.591962659826875,-1.8707712219007313
1772649755204066800,7.10006689453125,1.3361691090285777,-8.765328929698466,-2.1001330813691017
1772649755214107600,7.110107666015625,1.351976334491372,-9.144763715603947,-2.3646327435836194
1772649755224148700,7.120148681640625,1.2122715842682867,-9.271610810884832,-2.3371800885125995
1772649755234190600,7.130190673828125,0.9574217208653688,-9.386700832876562,-2.266306078735739
1772649755244231700,7.140231689453125,0.7443998054970056,-9.317707960671186,-2.0443311146482825
1772649755254272800,7.150272705078125,0.4282060502719134,-9.251537160149216,-1.8900404243856668
1772649755264313600,7.160313720703125,-0.06487900714576245,-9.30024420017302,-1.7884350301280616
1772649755274354700,7.170354736328125,-0.10816928281784056,-9.022464785146713,-1.5163397982180118
1772649755284395800,7.180395751953125,0.7288678167790174,-8.63861510540843,-1.3733219048589467
1772649755294436600,7.1904365234375,1.9519220032811164,-7.912858114126324,-1.8765452752575278
1772649755304477700,7.200477783203125,3.03774038695693,-6.357044383653998,-3.2953324617400765
1772649755314519600,7.21051953125,3.010494068112969,-4.12488972697556,-3.2766984884187575
1772649755324560600,7.220560546875,1.7706418915450572,-1.1830232048869131,-3.025476825450361
1772649755334601700,7.230601806640625,2.383516600012779,2.4455758735626936,-3.809614401769638
1772649755344642600,7.240642578125,2.8889772279441357,6.950549790263175,-4.2141430046603086
1772649755354683600,7.25068359375,2.8864743052124977,6.947610814201831,-4.109799125349522
1772649755364724700,7.260724853515625,2.935043398070335,6.946413713371753,-4.0160166798025365
1772649755374765600,7.270765625,3.0282647026032206,6.947728887623548,-3.9927348806753753
1772649755384806700,7.280806640625,-1.0060025041610001,11.64709315752387,5.166062913239002
1772649755394848500,7.2908486328125,-0.21095394998788833,8.637616157498956,2.9896459258735177
1772649755404889600,7.3008896484375,-2.4978894136458636,7.522746451383829,3.5892192542195316
1772649755414930700,7.3109306640625,-4.078177075639367,7.228185997426509,5.2746203185915945
1772649755424971500,7.320971435546875,-2.556639708778262,5.446299073767662,3.854409529046714
1772649755435012600,7.3310126953125,-2.2897172033309934,3.6498739216685294,1.5371936395458876
1772649755445053700,7.3410537109375,-3.270862329611182,3.428801897770166,1.3688662406243384
1772649755455094500,7.351094482421875,-4.007905269539356,4.837980128908157,2.5433546952694654
1772649755465136600,7.36113671875,-3.028236061030626,7.400217219302058,3.231333452299237
1772649755475177500,7.371177490234375,-2.2705209199517964,10.313367349994182,3.974072850303352
1772649755485218600,7.381218505859375,-2.245570018568635,10.313963562321662,4.006298126603663
1772649755495259600,7.391259765625,-2.2107301758557556,10.315751030260325,4.012295613452792
1772649755505300500,7.401300537109375,-2.1604443422079087,10.319177497577666,3.9898119789659976
1772649755515341600,7.411341552734375,-2.102247589305043,10.323977591335773,3.9460494096070526
1772649755525382700,7.421382568359375,-2.0488573599010707,10.329472097098828,3.886241714376211
1772649755535424800,7.4314248046875,-3.274691532510519,11.450709000158309,1.5027224840149283
1772649755545465600,7.441465576171875,-3.1841835785895585,9.000306729352474,1.8575857232436537
1772649755555506700,7.451506591796875,-3.300484145414829,7.767721328917145,2.292898171454668
1772649755565547800,7.4615478515625,-2.9712241339981555,7.607967404812574,2.863366401347518
1772649755575588600,7.471588623046875,-2.5598370435148476,7.940500738811492,3.354937327875197
1772649755585629700,7.481629638671875,-2.5470167249083517,8.30341810515821,3.6363463315755125
1772649755595670800,7.4916708984375,-2.3162382766403256,8.322277703928947,3.488178215846419
1772649755605711600,7.501711669921875,-1.7488919781602918,7.879227647203207,2.857755575728416
1772649755615753700,7.511753662109375,-0.9486690900892019,7.149736145567894,2.0656667481437325
1772649755625794600,7.521794677734375,-0.07113163779973983,6.346435895878076,1.1651922185115515
1772649755635835600,7.531835693359375,0.5802180550128221,4.918516139391064,0.015732625856623054
1772649755645876700,7.541876708984375,1.22749070764482,3.0153029296994207,-1.1558013628970831
1772649755655917600,7.55191748046875,1.983941966267675,0.7670715829670429,-2.1884096229761836
1772649755665958700,7.561958740234375,2.738324894183874,-1.732972962886095,-2.9141473250359295
1772649755675999700,7.571999755859375,3.2164889343887566,-4.1715515249073505,-3.3517379473119973
1772649755686041600,7.58204150390625,3.6697283766955135,-6.726670307728647,-3.8356864161372184
1772649755696082700,7.592082763671875,4.347905286157131,-9.516581012243032,-4.279063220599293
1772649755706123500,7.60212353515625,4.851170449870825,-11.720968541073798,-4.866059975966811
1772649755716164600,7.61216455078125,4.718032730013132,-12.909764484143256,-5.0054105789899825
1772649755726205700,7.622205810546875,4.261270374277234,-13.780167846769094,-4.881259883186221
1772649755736246500,7.63224658203125,4.12252182880044,-14.515831899559497,-4.901820148395002
1772649755746287600,7.64228759765625,4.200912059426307,-14.8379490534842,-4.5582805594742295
1772649755756328700,7.65232861328125,3.986194957512617,-14.485661217701434,-3.84213544614613
1772649755766370600,7.66237060546875,3.1563948234319685,-13.15554892449379,-2.92928147354275
1772649755776411600,7.67241162109375,2.6619828282594677,-11.047208863532543,-2.2813769527480003
1772649755786452500,7.682452392578125,2.045254951494932,-9.244763135969638,-1.7473612614616751
1772649755796493600,7.69249365234375,1.3050246137022972,-8.115854383108019,-1.3231255030602216
1772649755806534700,7.70253466796875,1.0841315265674143,-7.818498745474219,-1.2781330996453761
1772649755816575500,7.712575439453125,1.0951439189691097,-7.864571929863095,-1.3964790546931325
1772649755826616600,7.722616455078125,0.910669322040677,-7.861365242776274,-1.4655182502582669
1772649755836658700,7.73265869140625,0.7081114444762467,-7.961670952612161,-1.6042752713024615
1772649755846699800,7.74269970703125,0.5886708260595798,-8.176513726732134,-1.8152273215942083
1772649755856740600,7.75274072265625,0.6445680698484182,-8.422643034997582,-2.050219149773568
1772649755866781700,7.76278173828125,0.8068670753259212,-8.726634749644994,-2.1873963542804122
1772649755876822800,7.77282275390625,0.8589748637039214,-9.065046035766601,-2.140624081711471
1772649755886863600,7.782863525390625,0.6207389390368014,-9.351891969823837,-1.8269111835166811
1772649755896904700,7.79290478515625,0.4179898497492075,-9.495745144963264,-1.2992244029909372
1772649755906946600,7.802946533203125,0.38929632777161893,-9.381873266589642,-1.0142388559781015
1772649755916987600,7.812987548828125,0.6033570116031914,-8.9868107034415,-1.1981151947524398
1772649755927028700,7.82302880859375,0.6996716059762984,-8.05438430762291,-1.1967029168017207
1772649755937069600,7.833069580078125,1.3763526508569717,-6.776315505385399,-1.5447499001443386
1772649755947110700,7.843110595703125,2.873849216917157,-5.485899847272038,-2.537133921058476
1772649755957151700,7.85315185546875,3.1438901466459033,-3.8515626151829956,-2.7981048246249554
1772649755967192600,7.863192626953125,1.4636106630712746,-1.5750994457006453,-2.2542580596759914
1772649755977233700,7.873233642578125,0.6589630173604935,1.4879115761131048,-1.683148463139683
1772649755987275500,7.883275634765625,2.1738789933204647,5.461303166154027,-0.7354546478234231
1772649755997316600,7.893316650390625,0.31857323424015194,11.027096634352207,0.9137650230336933
1772649756007357700,7.903357666015625,0.3346744376808405,11.028293735182285,0.9107710288494825
1772649756017398500,7.9133984375,0.3868197085250169,11.032194834274053,0.9032688365258276
1772649756027439600,7.923439697265625,-4.477683174192905,16.001361548972127,6.470872422885894
1772649756037480700,7.933480712890625,-2.382815758267045,9.256151960468292,2.740442032468319
1772649756047521500,7.943521484375,-2.1879139484137293,7.209866496881842,0.3094131551742553
1772649756057563600,7.953563720703125,-3.461598836478591,6.925190308079123,-0.1071440314233303
1772649756067604500,7.9636044921875,-4.958793204721808,6.6158426193565125,0.37445042162165043
1772649756077645600,7.9736455078125,-5.755979939967394,6.910826851683854,1.7277873769417404
1772649756087686700,7.983686767578125,-5.505726829770207,8.056934576627611,2.9244997922241684
1772649756097727500,7.9937275390625,-4.590982805636525,9.978480730867386,4.061256628237665
1772649756107768600,8.0037685546875,-4.585840766572952,9.9776694144845,4.0741809917405245
1772649756117809400,8.013809326171875,-4.573707261186838,9.978649073171615,4.076592436796426
1772649756127850500,8.0238505859375,-4.5565334235459565,9.981938762366772,4.061689466696977
1772649756137892600,8.033892578125,-4.531899333027005,9.987515101194381,4.033103423681855
1772649756147933700,8.04393359375,-4.4992368343532085,9.994196186393498,4.003791404479742
1772649756157974800,8.053974853515625,-4.463404473471641,10.000496163320541,3.982899423098564
1772649756168015600,8.064015625,-4.422721165427565,10.006368270224332,3.9724025790035724
1772649756178056700,8.074056640625,-4.368066030654311,10.013154569363593,3.9705668880090115
1772649756188097800,8.084097900390624,-3.7931338070899248,9.604131285402179,1.9001665354721247
1772649756198138600,8.094138671875,-3.0814106018573044,8.233501103845239,1.1126333253651857
1772649756208179700,8.1041796875,-1.6450000804007052,6.851867297714948,0.29085283161103725
1772649756218221600,8.1142216796875,-0.5026233586788177,5.480373777326941,-0.16544249113500117
1772649756228262700,8.1242626953125,0.8385742460362613,3.953935778942704,-0.5618340378645807
1772649756238303700,8.1343037109375,2.496218850085139,2.018811181205511,-0.9971069577828049
1772649756248344600,8.144344482421875,4.0242455789655445,-0.3675783438950777,-1.5864209040515125
1772649756258385700,8.1543857421875,4.971767837107182,-3.2244483689606187,-1.8344259430609642
1772649756268426800,8.1644267578125,5.251581972831487,-5.905743215933442,-2.12402716717571
1772649756278467600,8.174467529296875,5.042478619146347,-7.650698293036222,-2.763746335688233
1772649756288508700,8.1845087890625,5.037765034627914,-8.420828679051995,-2.9054747737586495
1772649756298550500,8.194550537109375,5.242059526726603,-9.206162479418516,-3.1651831100434062
1772649756308591600,8.204591552734374,5.210502358946204,-10.43989295823574,-4.057646913307905
1772649756318632700,8.2146328125,5.058121593958139,-11.666327434825897,-4.6292204740941525
1772649756328673500,8.224673583984375,5.2772945062369105,-12.407033573436737,-4.7403337014094
1772649756338714600,8.234714599609376,4.853993106076121,-13.031964630401134,-5.22438533834815
1772649756348755700,8.244755615234375,3.5469442930698394,-13.143161736607551,-4.490679726149142
1772649756358796500,8.254796630859374,2.2981316881939766,-12.220123346859216,-3.391426983621716
1772649756368838700,8.264838623046876,1.7670067499130964,-10.89849597340226,-2.5930516231134533
1772649756378879500,8.27487939453125,1.4535563020467757,-10.027137502008676,-1.7169754755482076
1772649756388920600,8.284920654296876,1.1150709277756512,-9.581103461036086,-0.6943092021603137
1772649756398961700,8.294961669921875,0.9358867654055356,-9.257876300042867,-0.08156805694438517
1772649756409002500,8.30500244140625,1.2411030534118412,-9.12758169465661,-0.11690613150298594
1772649756419043600,8.315043701171875,1.5036679481714963,-9.151170075514912,-0.4634098309263587
1772649756429084400,8.32508447265625,1.8596277504652738,-9.35048619467914,-0.7342972944818437
1772649756439125500,8.33512548828125,2.1613363226115703,-9.633711015629768,-0.9738920864120125
1772649756449167600,8.345167724609375,2.446110272700339,-9.836849907952546,-1.1007452461075038
1772649756459208400,8.35520849609375,2.649095289635658,-10.016109912037848,-1.1447043609518557
1772649756469249500,8.36524951171875,2.713682035836577,-10.036098222577571,-1.0785372867569327
1772649756479290400,8.375290283203125,2.6682091554284093,-9.883969386523962,-1.0278172264102845
1772649756489331500,8.38533154296875,2.51818752078712,-9.524235326388478,-0.9796946352109313
1772649756499372500,8.39537255859375,2.23428187796548,-8.994123072281479,-1.090784481650591
1772649756509413400,8.405413330078124,2.445688686287403,-8.236213869935273,-1.629640306444466
1772649756519455700,8.415455810546876,1.596787107504159,-7.489792860808968,-1.919502957974374
1772649756529496600,8.42549658203125,-0.08941255989968776,-6.351279244256019,-1.735649196358025
1772649756539537700,8.43553759765625,0.0630851094663143,-4.4605999374449254,-2.2698023964188994
1772649756549578800,8.445578857421875,1.166988308148086,-2.3354414281517264,-2.642368611729145
1772649756559619600,8.45561962890625,2.286352110812068,-0.4169879792302847,-2.4960727196127173
1772649756569660700,8.46566064453125,0.2277864268451929,2.091449131914973,-2.222457438528538
1772649756579701800,8.47570166015625,0.5562836371958255,6.625464434182644,-2.5621315841928123
1772649756589742600,8.48574267578125,0.5023807820945978,6.61864481729567,-2.5975603327095507
1772649756599784700,8.49578466796875,0.5019412216335535,6.622376989561319,-2.6472557992488146
1772649756609825500,8.505825439453124,0.5489116471230984,6.635370911169051,-2.705995280726254
1772649756619866600,8.51586669921875,-2.4292909475855526,10.923360365545749,6.034383624371886
1772649756629907700,8.52590771484375,-2.5257933196157216,6.972184114444255,6.262032688573003
1772649756639948500,8.535948486328126,-3.3777859962821006,3.1840859634339806,5.422961452800035
1772649756649989600,8.54598974609375,-4.260293930460512,1.7286153521984815,5.291182161813974
1772649756660030700,8.55603076171875,-3.5975709029793737,3.106193160936236,4.538903366570175
1772649756670071600,8.566071533203125,-2.690228095012903,5.816624670544266,2.0193679383054373
1772649756680113700,8.57611376953125,-2.1557173136860133,8.813229329514503,1.250460372082889
1772649756690154500,8.586154541015626,-2.200155298088491,8.796575131833553,1.3240642452150582
1772649756700195600,8.596195556640625,-2.2314506000623107,8.783402931049466,1.3959005241528153
1772649756710236700,8.606236572265624,-2.2337046625994144,8.778068584284187,1.4489780343458056
1772649756720277500,8.616277587890625,-2.2120471036732194,8.778945367118716,1.486641117785871
1772649756730318600,8.626318603515625,-2.179544617866725,8.783558413872122,1.507299582672119
1772649756740359400,8.636359375,-2.148056277538836,8.789846700361371,1.5070888625308871
1772649756750401500,8.646401611328125,-2.1214793823890385,8.796217404437064,1.4952899959266186
1772649756760442400,8.6564423828125,-2.093642550306022,8.803122361519932,1.4813848046928644
1772649756770483500,8.6664833984375,-2.055829537001252,8.811768024790286,1.4727908716097473
1772649756780524500,8.676524658203125,-2.416713936215639,9.416682129642366,2.6049580417454243
1772649756790565400,8.6865654296875,-2.3043989318951965,8.094491861605643,2.9763191190496086
1772649756800606500,8.6966064453125,-2.0139488358661533,7.131663313260674,3.2287831832945346
1772649756810647600,8.7066474609375,-1.714820635601878,6.4821449275285,2.971836712938547
1772649756820688400,8.7166884765625,-0.9448647293701767,5.755321183797717,2.312462557493895
1772649756830730800,8.726730712890625,-0.6868097132503986,5.044499311318993,1.6231564973831176
1772649756840771600,8.736771484375,-0.347514045509696,4.5311692651867865,0.8143552391242236
1772649756850812700,8.746812744140625,0.2891857751816511,3.926603535380959,-0.10755728839933872
1772649756860853800,8.756853759765624,1.1892869414567946,2.946229977995157,-1.044155416944623
1772649756870894600,8.76689453125,2.092675020448118,1.4207500109881162,-1.7464790717996657
1772649756880935700,8.776935791015624,3.149256642115116,-0.5377554623365401,-2.2069614709720016
1772649756890976800,8.786976806640626,3.957573843184113,-2.797982367289066,-2.380795650616288
1772649756901018600,8.7970185546875,4.399886525546014,-4.94191104350388,-2.4659932231694457
1772649756911059700,8.807059814453124,4.438428437647223,-6.969874083936214,-2.6059552360892293
1772649756921100500,8.8171005859375,4.36795672506094,-8.764404800590873,-2.519946054892242
1772649756931141600,8.8271416015625,4.442498463565111,-10.103231730651855,-2.5361142226219178
1772649756941182700,8.8371826171875,4.795425766295194,-10.97557921308279,-2.7834762875527144
1772649756951223600,8.8472236328125,4.426296101304889,-11.836053886890411,-3.1699791121482845
1772649756961264600,8.8572646484375,3.378829660116136,-12.625330287402868,-3.666202540656924
1772649756971305700,8.8673056640625,2.8680294247224927,-13.050559440755844,-4.096087118600309
1772649756981347600,8.87734765625,2.7409996663510796,-12.815509160387515,-4.0368168912470335
1772649756991388700,8.887388671875,2.0322205517463385,-11.845189964026211,-3.2757699753969907
1772649757001429500,8.897429443359375,1.151363161253929,-10.522048678874969,-2.289267121475935
1772649757011470600,8.907470703125,0.6040308922767639,-9.466071891233325,-1.437960965768993
1772649757021511700,8.91751171875,0.382260949242115,-8.842006511187552,-0.963712783833593
1772649757031552500,8.927552490234374,0.46274201466739173,-8.516424311500787,-0.7307432552620768
1772649757041593600,8.937593505859375,0.5141606517374515,-8.797799705192446,-0.3529322711661458
1772649757051634400,8.947634521484375,0.591404634937644,-9.314856662893295,-0.21044841161854563
1772649757061676500,8.957676513671874,0.7555502181299031,-9.486336680626868,-0.22489019394703208
1772649757071717400,8.96771728515625,0.7812341099627316,-9.65114379646778,-0.160218911267817
1772649757081758500,8.977758544921874,0.5375177080579102,-9.620961424171924,0.21356376716010272
1772649757091799600,8.987799560546875,0.3373458488471806,-9.135295630034804,0.4875040424149483
1772649757101840400,8.99784033203125,-0.07113163779973983,-8.826458813443779,0.2695447437096387
1772649757111881500,9.007881591796876,0.0751239223062992,-8.354822713702916,0.08012501852922141
1772649757121922600,9.017922607421875,0.3851496564209461,-7.842850511920451,-0.15189195855781434
1772649757131963400,9.02796337890625,0.5333687716849148,-7.028776354759931,-0.4874067925855517
1772649757142005800,9.038005859375,0.2966173864871263,-5.485969405376911,-0.8797190341122448
1772649757152046600,9.048046630859375,0.6586439414739609,-3.4733705228149887,-0.9646154317617416
1772649757162087700,9.058087646484376,1.9310889124803243,-0.7087859827369452,-1.7701069078855216
1772649757172128800,9.068128662109375,5.142415495669842,3.1781337770313023,-3.3394659102380273
1772649757182169600,9.078169677734374,8.737213426804542,7.298641927921771,-3.9730958219647405
1772649757192210700,9.088210693359375,-2.220667047980428,10.725454113179445,3.192640149028599
1772649757202251800,9.098251708984375,-2.1868201618276535,10.739661502230167,3.106887280680239
1772649757212293600,9.108293701171876,-2.147714624494314,10.75686982666254,3.0105905142247673
1772649757222334700,9.118334716796875,-2.769915964233875,11.914760928380488,3.036746407483518
1772649757232375600,9.12837548828125,-2.363086537054926,5.44809180240333,0.7687368858307599
1772649757242416600,9.138416748046875,-2.8294740686178206,0.7111813534408807,-1.0835445935249328
1772649757252457700,9.148457763671875,-3.3221897812664505,1.0039689525067805,-1.1347547024108469
1772649757262498600,9.15849853515625,-4.792414894041419,3.033144291338324,-0.7171307633645833
1772649757272539600,9.16853955078125,-4.769648643220961,5.2752977794617415,-0.08482669341415167
1772649757282580700,9.178580810546874,-4.243549424147606,7.597520245078206,1.432067962207645
1772649757292622600,9.18862255859375,-4.515453517399728,9.446436047393084,2.3181638378754257
1772649757302663700,9.19866357421875,-4.484113499501348,9.450613625338674,2.3342241613164543
1772649757312704500,9.20870458984375,-4.444600404280424,9.458709838032721,2.3335035919569433
1772649757322745600,9.21874560546875,-4.399049197939038,9.469683651989698,2.3214859680354594
1772649757332786700,9.22878662109375,-2.0379022506445645,9.776565242859721,3.2758763583809136
1772649757342828000,9.238828125,-1.8740104960829018,9.233397692346573,2.851417020356655
1772649757352869000,9.248869140625,-1.5756477272331715,8.87873260603845,2.3439257633805273
1772649757362910000,9.258909912109376,-1.8251584946304558,8.770819928330182,2.231334572467208
1772649757372952000,9.2689521484375,-2.3352304157495496,8.73768396692574,2.3431064098216594
1772649757382993000,9.278992919921874,-2.426372868181765,8.702274215370416,2.0527418001189828
1772649757393034000,9.289033935546875,-2.7204721343681215,8.840227226555347,1.9818674980811775
1772649757403075000,9.299074951171875,-2.8039219864711162,9.096742319756746,2.3142688762634993
1772649757413116000,9.309115966796876,-2.164617828500271,9.087288262712955,2.3127894513607026
1772649757426922000,9.322921875,-1.090284423173964,8.351619533747433,1.8684461399540304
1772649757436963000,9.332963134765626,-0.040821255210042,6.093266605973243,1.4915375115253031
1772649757447004200,9.343004150390625,1.2957146413043141,3.1187539518237113,0.890830210713297
1772649757457046000,9.3530458984375,2.003454037597775,1.3120154955029486,0.13783274580612778
1772649757467087000,9.363087158203125,2.284104624146223,-0.005182371073961258,-0.5902991579137742
1772649757477128000,9.3731279296875,2.221013084939122,-1.253110886591673,-1.152677312592417
1772649757487169000,9.3831689453125,2.211596729557216,-2.6904665799438954,-1.7704032604835926
1772649757497210000,9.393210205078125,2.287089777436852,-4.067001601630449,-2.3392307374320924
1772649757507251000,9.4032509765625,2.9931562720820306,-4.952587920340895,-3.14893223246634
1772649757517292000,9.4132919921875,3.650482408955693,-5.237254756793379,-3.676403616675734
1772649757527334000,9.423333984375,3.587738075751066,-6.716897686254978,-3.762235980001092
1772649757537375000,9.433375,4.185796323359012,-8.108954102200268,-3.6500019319623704
1772649757547416000,9.443416015625,4.579844156506657,-8.380508943623305,-3.1741745180115104
1772649757557457000,9.453456787109374,4.5254815749391915,-8.455928049483894,-2.8908880300015207
1772649757567498000,9.463498046875,4.557257646167278,-8.65898160161078,-2.67366362144202
1772649757577539000,9.4735390625,4.287709176130592,-9.674922146940231,-2.6404867435052988
