time,seconds_elapsed,z,y,x
1772649748166474000,0.062473876953125,-0.03677087277173996,0.019885912537574768,-0.020905107259750366
1772649748176515000,0.07251513671875,-0.036150623112916946,0.020336253568530083,-0.023769335821270943
1772649748186556200,0.08255615234375,-0.03587290644645691,0.019066447392106056,-0.03134064003825188
1772649748196597000,0.092596923828125,-0.037645772099494934,0.019968992099165916,-0.0343039371073246
1772649748206639000,0.10263916015625,-0.038535188883543015,0.019703757017850876,-0.033199891448020935
1772649748216680000,0.112679931640625,-0.039802320301532745,0.02340182289481163,-0.03040570206940174
1772649748226721000,0.122720947265625,-0.035845447331666946,0.03214017674326897,-0.02650197222828865
1772649748236762000,0.13276220703125,-0.034458473324775696,0.03992646187543869,-0.02528783679008484
1772649748246803000,0.142802978515625,-0.03471406176686287,0.04779265448451042,-0.029751131311058998
1772649748256844000,0.152843994140625,-0.03780759125947952,0.05077459663152695,-0.03673340752720833
1772649748266886000,0.162885986328125,-0.04296986758708954,0.05791977420449257,-0.04202328249812126
1772649748276927000,0.172927001953125,-0.046265795826911926,0.05818076431751251,-0.041872281581163406
1772649748286968000,0.182968017578125,-0.04595676064491272,0.05643108859658241,-0.033592380583286285
1772649748297009000,0.1930087890625,-0.04584836959838867,0.05276205390691757,-0.013387244194746017
1772649748307050000,0.203050048828125,-0.03885169327259064,0.04900026321411133,0.007668163627386093
1772649748317091000,0.213091064453125,-0.03536535054445267,0.049655135720968246,0.019712310284376144
1772649748327132700,0.223132568359375,-0.02989693358540535,0.054039366543293,0.02487589605152607
1772649748337173800,0.233173828125,-0.02977469563484192,0.06397375464439392,0.020343462005257607
1772649748347214600,0.243214599609375,-0.029284672811627388,0.07404689490795135,0.012736142612993717
1772649748357255700,0.253255615234375,-0.03242320939898491,0.0837240219116211,0.0016078576445579529
1772649748367296800,0.263296875,-0.03606554865837097,0.09072265774011612,-0.009225797839462757
1772649748377338600,0.273338623046875,-0.04395143315196037,0.09926821291446686,-0.02491634339094162
1772649748387379700,0.283379638671875,-0.04666522890329361,0.10645632445812225,-0.03835552930831909
1772649748397420500,0.293420654296875,-0.052236296236515045,0.1150018721818924,-0.045354049652814865
1772649748407461600,0.303461669921875,-0.05308540165424347,0.11714021116495132,-0.03970466926693916
1772649748417502700,0.313502685546875,-0.047522325068712234,0.11597853899002075,-0.018593525514006615
1772649748427543600,0.32354345703125,-0.04089166224002838,0.1150457039475441,0.0019957805052399635
1772649748437585700,0.333585693359375,-0.032961566001176834,0.1124376654624939,0.011366911232471466
1772649748447626500,0.34362646484375,-0.027401844039559364,0.09797725826501846,0.006264162249863148
1772649748457667600,0.35366748046875,-0.025913137942552567,0.07271797209978104,-0.009694565087556839
1772649748467708700,0.363708740234375,-0.021700071170926094,0.05305264890193939,-0.015390465967357159
1772649748477749500,0.37374951171875,-0.010395750403404236,0.04543973505496979,-0.014715355820953846
1772649748487790600,0.38379052734375,0.0026429863646626472,0.04928859695792198,-0.006397329270839691
1772649748497832400,0.39383251953125,0.019433151930570602,0.06041315570473671,0.005447611678391695
1772649748507873500,0.40387353515625,0.03181647136807442,0.0706913098692894,0.012439233250916004
1772649748517914600,0.41391455078125,0.04392346739768982,0.0786626785993576,0.013570011593401432
1772649748527955500,0.42395556640625,0.04947622865438461,0.08317933231592178,0.02075800858438015
1772649748537996500,0.43399658203125,0.05212394893169403,0.08348959684371948,0.03032807819545269
1772649748548038400,0.444038330078125,0.04858533665537834,0.06984929740428925,0.037665534764528275
1772649748558079500,0.45407958984375,0.037899136543273926,0.05021195113658905,0.03672517463564873
1772649748568120600,0.46412060546875,0.021989593282341957,0.02655685320496559,0.02809472568333149
1772649748578161700,0.47416162109375,0.005462814588099718,0.006855853367596865,0.009088544175028801
1772649748588202800,0.48420263671875,-0.011842373758554459,-0.008402375504374504,-0.014947008341550827
1772649748598243800,0.494243896484375,-0.029990749433636665,-0.014630177989602089,-0.03362242504954338
1772649748608285700,0.50428564453125,-0.040347881615161896,-0.012355245649814606,-0.04015978053212166
1772649748618326800,0.514326904296875,-0.047626566141843796,-0.0034469719976186752,-0.03371945768594742
1772649748628367600,0.52436767578125,-0.051524125039577484,0.014297479763627052,-0.02451549656689167
1772649748638408700,0.53440869140625,-0.0528692901134491,0.03472685441374779,-0.01518617756664753
1772649748648449500,0.544449462890625,-0.05326217785477638,0.07263994961977005,-0.008298036642372608
1772649748658490600,0.55449072265625,-0.04163135588169098,0.13510438799858093,-0.0015056440606713295
1772649748668532700,0.56453271484375,-0.025022882968187332,0.20857316255569458,0.004739918280392885
1772649748678573600,0.574573486328125,-0.016867218539118767,0.24586594104766846,0.012443112209439278
1772649748688614700,0.58461474609375,-0.011098365299403667,0.28445717692375183,0.0015979792224243283
1772649748698655500,0.594655517578125,0.007750955875962973,0.3624054789543152,-0.06325984746217728
1772649748708696600,0.604696533203125,0.018312452360987663,0.39605602622032166,-0.13714373111724854
1772649748718737700,0.614737548828125,0.032584868371486664,0.4126477837562561,-0.16457083821296692
1772649748728779500,0.624779541015625,0.048912305384874344,0.4100552201271057,-0.15636128187179565
1772649748738820600,0.634820556640625,0.04998023062944412,0.38673073053359985,-0.1751224547624588
1772649748748861400,0.644861328125,0.020016642287373543,0.33420419692993164,-0.25280508399009705
1772649748758902500,0.654902587890625,-0.03343087062239647,0.26889923214912415,-0.36523735523223877
1772649748768943600,0.664943603515625,-0.08380299806594849,0.22721214592456818,-0.4511756896972656
1772649748778985500,0.6749853515625,-0.13542544841766357,0.17986352741718292,-0.5016796588897705
1772649748789026600,0.685026611328125,-0.17661654949188232,0.14583374559879303,-0.5253380537033081
1772649748799067400,0.6950673828125,-0.17784160375595093,0.1358756572008133,-0.5597703456878662
1772649748809108500,0.7051083984375,-0.1865726113319397,0.11047253757715225,-0.6331914067268372
1772649748819149600,0.715149658203125,-0.21017859876155853,0.0643487200140953,-0.7033481001853943
1772649748829190400,0.7251904296875,-0.2518700957298279,0.010898124426603317,-0.726044237613678
1772649748839232800,0.735232666015625,-0.22821030020713806,-0.006918156519532204,-0.6997007727622986
1772649748849273600,0.745273681640625,-0.16883108019828796,0.01747063174843788,-0.6056326627731323
1772649748859314700,0.755314697265625,-0.07827560603618622,0.048521488904953,-0.4350334703922272
1772649748869355800,0.765355712890625,0.030485043302178383,0.08261583000421524,-0.28174975514411926
1772649748879396600,0.775396728515625,0.14230398833751678,0.09798359870910645,-0.18098826706409454
1772649748889437700,0.785437744140625,0.26541993021965027,0.12568478286266327,-0.12852004170417786
1772649748899479600,0.7954794921875,0.35606619715690613,0.12626776099205017,-0.10311562567949295
1772649748909520600,0.805520751953125,0.42551904916763306,0.08096027374267578,-0.05753767862915993
1772649748919561700,0.815561767578125,0.4787769317626953,0.02120586298406124,0.027751119807362556
1772649748929602600,0.8256025390625,0.5106306672096252,-0.06735242158174515,0.10958297550678253
1772649748939643600,0.8356435546875,0.5125247240066528,-0.1680486798286438,0.15670548379421234
1772649748949684700,0.845684814453125,0.4899435043334961,-0.25345900654792786,0.16221284866333008
1772649748959726600,0.8557265625,0.4648573398590088,-0.33235782384872437,0.1594032198190689
1772649748969767700,0.865767578125,0.4492608308792114,-0.36905911564826965,0.16554737091064453
1772649748979808500,0.87580859375,0.42233654856681824,-0.3723558187484741,0.14436592161655426
1772649748989849600,0.885849609375,0.3783146142959595,-0.37141790986061096,0.10253836959600449
1772649748999890700,0.895890625,0.340623676776886,-0.387105792760849,0.07848576456308365
1772649749009931500,0.905931640625,0.3065107762813568,-0.4147825539112091,0.06519533693790436
1772649749019973600,0.9159736328125,0.25887560844421387,-0.4507828950881958,0.012542514130473137
1772649749030014500,0.926014404296875,0.1638510525226593,-0.5154454708099365,-0.0857410728931427
1772649749040055600,0.9360556640625,0.05921413376927376,-0.5688780546188354,-0.1842079907655716
1772649749050096400,0.946096435546875,-0.0034376364201307297,-0.5870429277420044,-0.23346248269081116
1772649749060137500,0.956137451171875,-0.028217816725373268,-0.5562381744384766,-0.23633256554603577
1772649749070178600,0.966178466796875,-0.0406145341694355,-0.4681101143360138,-0.2191338837146759
1772649749080220700,0.976220703125,-0.06022871285676956,-0.3513169288635254,-0.1919424682855606
1772649749090261800,0.98626171875,-0.07142522931098938,-0.19182313978672028,-0.1549907773733139
1772649749100302600,0.996302490234375,-0.05000089481472969,-0.03425987437367439,-0.11876831948757172
1772649749110343700,1.00634375,-0.03933129459619522,0.11787954717874527,-0.06968068331480026
1772649749120384800,1.016384765625,-0.036954425275325775,0.25702333450317383,-0.03356022387742996
1772649749130425600,1.026425537109375,-0.01960216648876667,0.4075721502304077,-0.005056769587099552
1772649749140467700,1.0364677734375,0.0037929052487015724,0.5512710213661194,0.016137998551130295
1772649749150508500,1.046508544921875,0.014876003377139568,0.661129355430603,0.034505560994148254
1772649749160549600,1.056549560546875,0.008623966947197914,0.6945487856864929,0.060569386929273605
1772649749170590700,1.0665908203125,-0.008597112260758877,0.6644856333732605,0.09610778838396072
1772649749180631600,1.076631591796875,-0.055440519005060196,0.5956892967224121,0.13860997557640076
1772649749190672600,1.086672607421875,-0.13393741846084595,0.5208202004432678,0.20558220148086548
1772649749200714500,1.096714599609375,-0.23430024087429047,0.4514922499656677,0.27334338426589966
1772649749210755600,1.106755615234375,-0.30159950256347656,0.3437497615814209,0.3408287465572357
1772649749220796700,1.116796630859375,-0.29245075583457947,0.22255036234855652,0.40033841133117676
1772649749230837500,1.12683740234375,-0.20343956351280212,0.10658489167690277,0.39448440074920654
1772649749240878600,1.136878662109375,-0.06733658909797668,-0.013735654763877392,0.3265908360481262
1772649749250919700,1.146919677734375,0.07504443824291229,-0.1406814604997635,0.2359108030796051
1772649749260961500,1.15696142578125,0.1908607929944992,-0.27900204062461853,0.14368553459644318
1772649749271002600,1.167002685546875,0.26406097412109375,-0.42261603474617004,0.05322468653321266
1772649749281043500,1.17704345703125,0.2957129180431366,-0.5361886620521545,-0.018854832276701927
1772649749291084500,1.18708447265625,0.2596992254257202,-0.556818962097168,-0.0580589696764946
1772649749301125600,1.197125732421875,0.14993783831596375,-0.5383704304695129,-0.07471943646669388
1772649749311166500,1.20716650390625,-0.0031449482776224613,-0.4395357370376587,-0.083955779671669
1772649749321208800,1.217208740234375,-0.1709754914045334,-0.3505925238132477,-0.1337137520313263
1772649749331249700,1.227249755859375,-0.3234189450740814,-0.3466082513332367,-0.2523615062236786
1772649749341290800,1.237290771484375,-0.4471161365509033,-0.3847505748271942,-0.4108150601387024
1772649749351331600,1.24733154296875,-0.5149586200714111,-0.4004889726638794,-0.5114228129386902
1772649749361372700,1.25737255859375,-0.5108587145805359,-0.40042611956596375,-0.4986656606197357
1772649749371413800,1.267413818359375,-0.4537011981010437,-0.36598268151283264,-0.39910024404525757
1772649749381455600,1.27745556640625,-0.35403478145599365,-0.31722739338874817,-0.2656042277812958
1772649749391496700,1.28749658203125,-0.20057682693004608,-0.27120810747146606,-0.13106508553028107
1772649749401537500,1.29753759765625,-0.04011579230427742,-0.20503145456314087,-0.004968669265508652
1772649749411578600,1.30757861328125,0.09071648120880127,-0.11597155034542084,0.08487211167812347
1772649749421619700,1.31761962890625,0.1799962818622589,-0.05604403465986252,0.11414903402328491
1772649749431660500,1.32766064453125,0.21668726205825806,-0.040956225246191025,0.09020441770553589
1772649749441702700,1.33770263671875,0.21419240534305573,-0.06549938768148422,0.048485998064279556
1772649749451743500,1.347743408203125,0.18535402417182922,-0.10501113533973694,0.021164732053875923
1772649749461784600,1.35778466796875,0.145267054438591,-0.1412450224161148,0.009815670549869537
1772649749471825700,1.36782568359375,0.1036241427063942,-0.1486814171075821,0.019197246059775352
1772649749481866500,1.377866455078125,0.06357739120721817,-0.12144608050584793,0.037019919604063034
1772649749491907600,1.387907470703125,0.004534136038273573,-0.08116431534290314,0.03418050706386566
1772649749501949400,1.397949462890625,-0.07473884522914886,-0.04560072720050812,-0.02895238995552063
1772649749511990500,1.407990478515625,-0.22696898877620697,-0.03169764205813408,-0.15018965303897858
1772649749522031600,1.418031494140625,-0.37367987632751465,0.005867042578756809,-0.26909953355789185
1772649749532072400,1.428072509765625,-0.5385173559188843,0.03824153169989586,-0.477906733751297
1772649749542113500,1.438113525390625,-0.5766271948814392,0.03940613195300102,-0.5726398825645447
1772649749552154600,1.448154541015625,-0.5199434161186218,0.16261419653892517,-0.4945090711116791
1772649749562196500,1.458196533203125,-0.49589022994041443,0.23367905616760254,-0.2950146198272705
1772649749572237600,1.468237548828125,-0.6619936227798462,0.18937154114246368,-0.7357944846153259
1772649749582278400,1.4782783203125,-0.3533412516117096,-0.09425085037946701,-1.1847115755081177
1772649749592319500,1.488319580078125,0.02356734126806259,0.9566271901130676,0.20045050978660583
1772649749602360600,1.498360595703125,0.07865909487009048,1.568016767501831,1.577674150466919
1772649749612401400,1.5084013671875,0.3137962222099304,1.4866783618927002,1.2428324222564697
1772649749622443800,1.51844384765625,0.44696199893951416,0.5155399441719055,0.6010754108428955
1772649749632484600,1.528484619140625,0.5588468313217163,-0.5648059248924255,0.6156768202781677
1772649749642525700,1.538525634765625,0.556333065032959,-0.6546319723129272,0.5744215250015259
1772649749652566800,1.54856689453125,0.46555307507514954,-0.37950849533081055,0.005429734941571951
1772649749662607600,1.558607666015625,0.26656168699264526,-0.3123292028903961,-0.606124222278595
1772649749672648700,1.568648681640625,0.01813562586903572,-0.5613771677017212,-0.6710992455482483
1772649749682690600,1.578690673828125,-0.21050980687141418,-0.6530101895332336,-0.5001533627510071
1772649749692731600,1.588731689453125,-0.3820624053478241,-0.5057855248451233,-0.3360886871814728
1772649749702772700,1.598772705078125,-0.4085579216480255,-0.3641684651374817,-0.13696865737438202
1772649749712813600,1.6088134765625,-0.2423306703567505,-0.26665276288986206,0.061802636831998825
1772649749722854700,1.618854736328125,0.0887838676571846,-0.10316314548254013,0.1767558604478836
1772649749732895500,1.6288955078125,0.32723337411880493,0.11795403063297272,0.16242070496082306
1772649749742937600,1.6389375,0.42586061358451843,0.3375849425792694,0.10082337260246277
1772649749752978700,1.648978759765625,0.46714553236961365,0.585188090801239,0.086030513048172
1772649749763019500,1.65901953125,0.5000989437103271,0.7919948101043701,0.20903447270393372
1772649749773060600,1.669060546875,0.5148763656616211,0.8961338996887207,0.45200222730636597
1772649749783101400,1.679101318359375,0.4410969316959381,0.8516729474067688,0.6750403642654419
1772649749793142500,1.689142578125,0.31659382581710815,0.663151204586029,0.7398654222488403
1772649749803184400,1.699184326171875,0.2623140513896942,0.35413026809692383,0.686623215675354
1772649749813225500,1.7092255859375,0.2341252714395523,0.04023314267396927,0.567895770072937
1772649749823266600,1.7192666015625,0.2097720056772232,-0.22507841885089874,0.40021514892578125
1772649749833307400,1.729307373046875,0.23303847014904022,-0.3995198905467987,0.203542560338974
1772649749843348500,1.739348388671875,0.2822211980819702,-0.48736506700515747,-0.03772437572479248
1772649749853389600,1.7493896484375,0.3250136077404022,-0.5077784061431885,-0.2742078900337219
1772649749863431700,1.759431640625,0.33522361516952515,-0.513710618019104,-0.4465511739253998
1772649749873472800,1.76947265625,0.3022105097770691,-0.4784400463104248,-0.53736412525177
1772649749883513600,1.779513671875,0.24318474531173706,-0.432440847158432,-0.5625925064086914
1772649749893554700,1.7895546875,0.07159551233053207,-0.34465646743774414,-0.5567747950553894
1772649749903595800,1.799595703125,-0.21321731805801392,-0.21004247665405273,-0.5593500733375549
1772649749913636600,1.80963671875,-0.4967286288738251,-0.1030435785651207,-0.5931410789489746
1772649749923677700,1.819677734375,-0.6630023121833801,-0.05607527121901512,-0.6459118723869324
1772649749933719600,1.829719482421875,-0.7420922517776489,-0.048208702355623245,-0.6486559510231018
1772649749943760600,1.8397607421875,-0.7837778925895691,-0.002708329586312175,-0.5922949314117432
1772649749953801700,1.8498017578125,-0.7198413610458374,0.030215492472052574,-0.4153902232646942
1772649749963842600,1.859842529296875,-0.5031335353851318,0.06812665611505508,-0.1501619964838028
1772649749973883600,1.869883544921875,-0.20837536454200745,0.062998928129673,0.07562097907066345
1772649749983924700,1.8799248046875,0.025090111419558525,0.09825944900512695,0.22616441547870636
1772649749993966600,1.889966552734375,0.19680854678153992,0.1416597217321396,0.30224040150642395
1772649750004007700,1.900007568359375,0.3374554216861725,0.1328665018081665,0.2973862588405609
1772649750014048500,1.910048583984375,0.3926824629306793,0.07833676040172577,0.26689228415489197
1772649750024089600,1.920089599609375,0.3417753279209137,0.005531797651201487,0.2176821231842041
1772649750034130700,1.930130615234375,0.23208743333816528,-0.042473286390304565,0.16039571166038513
1772649750044171500,1.940171630859375,0.12541665136814117,-0.09638418257236481,0.0878370851278305
1772649750054213600,1.950213623046875,-0.0069927042350173,-0.15294356644153595,-0.0003835794050246477
1772649750064254500,1.96025439453125,-0.12362371385097504,-0.1820993274450302,-0.10037462413311005
1772649750074295600,1.970295654296875,-0.22181858122348785,-0.18209145963191986,-0.1905764490365982
1772649750084336600,1.980336669921875,-0.3546178936958313,-0.15623216331005096,-0.2520020008087158
1772649750094377500,1.99037744140625,-0.4403223693370819,-0.11395083367824554,-0.30342280864715576
1772649750104418600,2.00041845703125,-0.5487268567085266,-0.011865747161209583,-0.35977688431739807
1772649750114460700,2.010460693359375,-0.6188370585441589,0.07802791148424149,-0.5257425904273987
1772649750124501800,2.020501708984375,-0.6627237796783447,0.07975257188081741,-0.6290122866630554
1772649750134542600,2.03054248046875,-0.695753812789917,0.11260251700878143,-0.7337239980697632
1772649750144583700,2.040583740234375,-0.6449428200721741,-0.0007117893546819687,-0.7855477929115295
1772649750154624800,2.050624755859375,-0.4589662253856659,0.00409711804240942,-0.6999841928482056
1772649750164665600,2.06066552734375,-0.2531699240207672,0.0676550567150116,-0.5032026767730713
1772649750174707700,2.070707763671875,-0.15129300951957703,0.0769725888967514,-0.43352705240249634
1772649750184748500,2.08074853515625,-0.24700595438480377,0.0011819570790976286,-0.41999924182891846
1772649750194789600,2.09078955078125,-0.297099232673645,0.43472734093666077,0.3960202634334564
1772649750204830700,2.100830810546875,0.11730034649372101,1.2944724559783936,1.0496470928192139
1772649750214871600,2.11087158203125,0.49891984462738037,1.3027347326278687,0.9181720614433289
1772649750224912600,2.12091259765625,0.6832497119903564,0.2563210129737854,0.7594401836395264
1772649750234953700,2.13095361328125,0.7355211973190308,-0.31458422541618347,0.9123243093490601
1772649750244995600,2.14099560546875,0.8169620037078857,-0.28684526681900024,0.7678715586662292
1772649750255036700,2.15103662109375,0.7947060465812683,-0.20244644582271576,0.34276020526885986
1772649750265077500,2.161077392578125,0.5968270301818848,-0.3879777193069458,-0.09674950689077377
1772649750275118600,2.17111865234375,0.17549601197242737,-0.59153151512146,-0.39857321977615356
1772649750285159700,2.18115966796875,-0.1884145736694336,-0.4104541540145874,-0.4907681345939636
1772649750295200500,2.191200439453125,-0.3398497700691223,-0.072011798620224,-0.38458332419395447
1772649750305242600,2.20124267578125,-0.3246822655200958,0.23856310546398163,-0.1584034562110901
1772649750315283500,2.211283447265625,-0.23543909192085266,0.44012635946273804,-0.01568388007581234
1772649750325324500,2.221324462890625,-0.14805439114570618,0.49116718769073486,-0.05876663699746132
1772649750335366000,2.231365966796875,-0.06769484281539917,0.48307517170906067,-0.10218639671802521
1772649750345406700,2.24140673828125,-0.014279022812843323,0.4819507598876953,-0.0640810877084732
1772649750355447800,2.25144775390625,0.010173965245485306,0.5395636558532715,0.063474141061306
1772649750365488600,2.261488525390625,0.06109626591205597,0.6380535364151001,0.22867988049983978
1772649750375530800,2.27153076171875,0.10951154679059982,0.6275571584701538,0.4000381827354431
1772649750385571800,2.28157177734375,0.15434958040714264,0.5153450965881348,0.5246495604515076
1772649750395612700,2.29161279296875,0.19143372774124146,0.3905562460422516,0.5527753233909607
1772649750405653800,2.30165380859375,0.27669379115104675,0.25888609886169434,0.4458030164241791
1772649750415694600,2.311694580078125,0.3826201260089874,0.12530584633350372,0.224298357963562
1772649750425735700,2.321735595703125,0.459719717502594,0.04778095334768295,-0.02410319820046425
1772649750435777800,2.33177783203125,0.5074159502983093,0.00791158340871334,-0.2100965678691864
1772649750445818600,2.341818603515625,0.5044332146644592,0.0036372102331370115,-0.3211972713470459
1772649750455859700,2.351859619140625,0.45132681727409363,0.02908594347536564,-0.43659424781799316
1772649750465900500,2.361900634765625,0.2921832501888275,-0.015812555328011513,-0.6293585896492004
1772649750475941600,2.371941650390625,-0.025844968855381012,-0.11752842366695404,-0.9066073894500732
1772649750485982700,2.381982666015625,-0.36261817812919617,-0.12253649532794952,-1.1215494871139526
1772649750496024600,2.392024658203125,-0.6384456157684326,0.005813811905682087,-1.1869720220565796
1772649750506065700,2.402065673828125,-0.858987033367157,0.12312152236700058,-1.0744612216949463
1772649750516106500,2.4121064453125,-0.9187179803848267,0.11909963190555573,-0.837706446647644
1772649750526147600,2.422147705078125,-0.7531577944755554,0.07778281718492508,-0.47320279479026794
1772649750536189000,2.43218896484375,-0.42406556010246277,-0.001355547457933426,-0.03285416588187218
1772649750546229800,2.442229736328125,-0.017124934121966362,-0.07615441828966141,0.3437061607837677
1772649750556270800,2.452270751953125,0.2634616494178772,-0.04587048292160034,0.5522978901863098
1772649750566312700,2.462312744140625,0.3591809868812561,0.16710729897022247,0.6148645877838135
1772649750576353800,2.472353759765625,0.4417050778865814,0.41974732279777527,0.5374471545219421
1772649750586395000,2.482394775390625,0.5232380032539368,0.49606525897979736,0.4288077652454376
1772649750596435700,2.492435791015625,0.5775613784790039,0.5092501044273376,0.3600400388240814
1772649750606476800,2.502476806640625,0.5602369904518127,0.521099865436554,0.3097963035106659
1772649750616518000,2.512517822265625,0.42195406556129456,0.46700310707092285,0.2663551867008209
1772649750626559700,2.522559814453125,0.20174074172973633,0.35826224088668823,0.1991335153579712
1772649750636600800,2.532600830078125,-0.0015396976377815008,0.1782408058643341,0.07311969995498657
1772649750646641700,2.5426416015625,-0.17657914757728577,0.027172192931175232,-0.07254748791456223
1772649750656682800,2.552682861328125,-0.3129611313343048,-0.06808211654424667,-0.1860799342393875
1772649750666723800,2.562723876953125,-0.44015368819236755,-0.09110380709171295,-0.25042134523391724
1772649750676764700,2.5727646484375,-0.6260480284690857,-0.1005806252360344,-0.3613206446170807
1772649750686806800,2.582806884765625,-0.8068476319313049,-0.17676222324371338,-0.5541795492172241
1772649750696847600,2.59284765625,-0.9461661577224731,-0.1976316273212433,-0.7462092041969299
1772649750706888700,2.602888671875,-1.045491099357605,-0.24836458265781403,-0.8518967628479004
1772649750716929800,2.6129296875,-1.0132300853729248,-0.30535727739334106,-0.7803542613983154
1772649750726970600,2.622970703125,-0.8532848954200745,-0.23655904829502106,-0.6303035020828247
1772649750737011700,2.63301171875,-0.7009821534156799,-0.30067944526672363,-0.5581815242767334
1772649750747053600,2.643053466796875,-0.697765588760376,-0.5485123991966248,-0.8417764902114868
1772649750757094700,2.6530947265625,-0.9034748077392578,-1.2631409168243408,-0.7577624917030334
1772649750767135700,2.6631357421875,-0.8429121375083923,-0.866388738155365,0.6952776312828064
1772649750777176600,2.673176513671875,0.07655549049377441,0.6397414803504944,1.755197286605835
1772649750787217700,2.6832177734375,0.8369841575622559,0.7954397201538086,1.7044382095336914
1772649750797258500,2.693258544921875,1.030319333076477,0.08966236561536789,1.4132471084594727
1772649750807299600,2.703299560546875,0.9428523778915405,-0.5229170918464661,1.188611626625061
1772649750817341700,2.713341796875,0.898784875869751,-0.5929543375968933,0.8405013680458069
1772649750827382800,2.7233828125,0.8055904507637024,-0.4048613905906677,0.35972410440444946
1772649750837423900,2.733423828125,0.4609765410423279,-0.24531587958335876,-0.16621409356594086
1772649750847464700,2.743464599609375,-0.07239683717489243,-0.2451353222131729,-0.4770236313343048
1772649750857505800,2.753505859375,-0.3774714171886444,-0.18324582278728485,-0.5037562251091003
1772649750867547000,2.763546875,-0.40619760751724243,-0.09454043954610825,-0.32537418603897095
1772649750877588700,2.773588623046875,-0.2920050621032715,0.022906439378857613,-0.13828107714653015
1772649750887629800,2.7836298828125,-0.14278815686702728,0.01480190921574831,-0.0495661236345768
1772649750897670700,2.793670654296875,0.11339946836233139,-0.00944802351295948,0.039048366248607635
1772649750907711700,2.803711669921875,0.3189387917518616,0.055031899362802505,0.14919084310531616
1772649750917752800,2.8137529296875,0.37924012541770935,0.18704405426979065,0.20614458620548248
1772649750927793700,2.823793701171875,0.33686310052871704,0.36998510360717773,0.21764011681079865
1772649750937834800,2.833834716796875,0.19786331057548523,0.5146032571792603,0.20375758409500122
1772649750947876600,2.843876708984375,0.072861447930336,0.5463888645172119,0.18552692234516144
1772649750957917700,2.853917724609375,-0.006446103099733591,0.5214336514472961,0.20025819540023804
1772649750967958800,2.863958740234375,-0.019581614062190056,0.43707963824272156,0.2731422483921051
1772649750977999600,2.87399951171875,0.05867323651909828,0.33844172954559326,0.3694833219051361
1772649750988040700,2.884040771484375,0.20800040662288666,0.25307461619377136,0.41479888558387756
1772649750998081800,2.894081787109375,0.36994779109954834,0.20017307996749878,0.38917577266693115
1772649751008123600,2.90412353515625,0.49827539920806885,0.09357178956270218,0.23372599482536316
1772649751018164700,2.914164794921875,0.51822829246521,-0.04862869158387184,-0.09181255102157593
1772649751028205600,2.92420556640625,0.3744463324546814,-0.269382119178772,-0.537266731262207
1772649751038246700,2.93424658203125,0.050811585038900375,-0.4854542911052704,-0.8636979460716248
1772649751048287700,2.944287841796875,-0.3731282353401184,-0.5478953123092651,-0.9655971527099609
1772649751058328600,2.95432861328125,-0.7631793022155762,-0.4354390501976013,-0.8914346694946289
1772649751068369700,2.96436962890625,-0.9646839499473572,-0.3568499684333801,-0.7457962036132812
1772649751078411800,2.974411865234375,-0.9466419219970703,-0.4077320098876953,-0.5503705143928528
1772649751088452900,2.984452880859375,-0.7757567167282104,-0.5827884674072266,-0.27006399631500244
1772649751098493700,2.99449365234375,-0.47773608565330505,-0.6652729511260986,0.0516204908490181
1772649751108534800,3.00453466796875,-0.0758882388472557,-0.5423970818519592,0.30372971296310425
1772649751118575900,3.014575927734375,0.16781312227249146,-0.35397958755493164,0.3360128700733185
1772649751128616700,3.02461669921875,0.21422137320041656,-0.310054749250412,0.19726166129112244
1772649751138658800,3.034658935546875,0.2240801900625229,-0.30880844593048096,0.049978967756032944
1772649751148699600,3.04469970703125,0.21216601133346558,-0.287293016910553,-0.032577160745859146
1772649751158740700,3.05474072265625,0.17559084296226501,-0.2485283762216568,-0.08355909585952759
1772649751168781800,3.06478173828125,0.10872073471546173,-0.19122539460659027,-0.1312027871608734
1772649751178822700,3.07482275390625,0.0031395964324474335,-0.1402994990348816,-0.19976668059825897
1772649751188863700,3.08486376953125,-0.16494953632354736,-0.026468537747859955,-0.24164356291294098
1772649751198904800,3.09490478515625,-0.3141009509563446,0.08078273385763168,-0.26459816098213196
1772649751208946700,3.10494677734375,-0.41709819436073303,0.14724750816822052,-0.3339138627052307
1772649751218987800,3.11498779296875,-0.4280192255973816,0.1934022307395935,-0.4406547546386719
1772649751229028600,3.125028564453125,-0.47627729177474976,0.2782002091407776,-0.5197767019271851
1772649751239069700,3.135069580078125,-0.6490695476531982,0.3355281352996826,-0.6068094968795776
1772649751249110800,3.14511083984375,-0.8963608145713806,0.26188772916793823,-0.7412128448486328
1772649751259151600,3.155151611328125,-1.0388095378875732,0.14594988524913788,-0.8922756314277649
1772649751269193700,3.16519384765625,-1.0906946659088135,0.11684658378362656,-0.9479663372039795
1772649751279234600,3.175234619140625,-1.0004371404647827,0.11946055293083191,-0.7931258082389832
1772649751289275600,3.185275634765625,-0.7486124038696289,0.02324560470879078,-0.6717021465301514
1772649751299316700,3.195316650390625,-0.42571431398391724,-0.183948814868927,-0.6253539323806763
1772649751309357600,3.205357666015625,-0.20154647529125214,-0.42474567890167236,-0.4979903995990753
1772649751319398700,3.215398681640625,-0.2660159170627594,-0.7874961495399475,-0.12068048864603043
1772649751329439700,3.225439697265625,-0.29249173402786255,-0.4165966510772705,0.4277876913547516
1772649751339481600,3.235481689453125,0.15034973621368408,0.32695093750953674,0.9665389657020569
1772649751349522700,3.245522705078125,0.7429105043411255,0.4581931233406067,1.1019763946533203
1772649751359563500,3.2555634765625,0.903053879737854,0.017716558650135994,0.9109950661659241
1772649751369604600,3.2656044921875,0.7828481197357178,-0.22321456670761108,0.8223816156387329
1772649751379645700,3.275645751953125,0.7366626858711243,0.0201030895113945,0.691281259059906
1772649751389686500,3.2856865234375,0.5947585105895996,0.09701438248157501,0.3354320228099823
1772649751399728600,3.295728759765625,0.23807896673679352,-0.07567555457353592,-0.0515584759414196
1772649751409769500,3.30576953125,-0.07536336779594421,-0.17355017364025116,-0.2029740959405899
1772649751419810600,3.315810546875,-0.1471596211194992,-0.011400904506444931,-0.06496892124414444
1772649751429851600,3.3258515625,-0.10834299027919769,0.08227019757032394,0.12148404866456985
1772649751439892500,3.335892578125,-0.05935400351881981,-0.0304290559142828,0.18982677161693573
1772649751449933600,3.34593359375,0.061318084597587585,-0.15184630453586578,0.23616176843643188
1772649751459974400,3.355974365234375,0.2222224920988083,-0.1844208687543869,0.33386892080307007
1772649751470016500,3.3660166015625,0.2961646318435669,-0.09290318936109543,0.4325997531414032
1772649751480057600,3.3760576171875,0.2936534285545349,0.04944929480552673,0.4594417214393616
1772649751490098700,3.3860986328125,0.32359054684638977,0.21831980347633362,0.5036693811416626
1772649751500139800,3.396139892578125,0.37758660316467285,0.3896518647670746,0.5601276755332947
1772649751510180600,3.4061806640625,0.4178149700164795,0.4866790771484375,0.6148854494094849
1772649751520221700,3.4162216796875,0.4337761104106903,0.5351889133453369,0.6651184558868408
1772649751530263600,3.426263671875,0.4326759874820709,0.5344738960266113,0.7116662263870239
1772649751540304600,3.4363046875,0.41872674226760864,0.5253651738166809,0.6867024302482605
1772649751550345700,3.446345703125,0.41335541009902954,0.5453671216964722,0.6046030521392822
1772649751560386600,3.456386474609375,0.4357805848121643,0.5492543578147888,0.4839223027229309
1772649751570427600,3.466427734375,0.4400472342967987,0.5479850769042969,0.3158629834651947
1772649751580468700,3.47646875,0.35733380913734436,0.5297673344612122,0.12008150666952133
1772649751590509600,3.486509521484375,0.13794900476932526,0.47982853651046753,-0.08763067424297333
1772649751600551700,3.4965517578125,-0.12820027768611908,0.4153014123439789,-0.3203120529651642
1772649751610592500,3.506592529296875,-0.39301809668540955,0.2727799415588379,-0.5438356995582581
1772649751620633600,3.516633544921875,-0.5987335443496704,0.09708195179700851,-0.7168922424316406
1772649751630674700,3.5266748046875,-0.7365835309028625,-0.06858237832784653,-0.8060921430587769
1772649751640715500,3.536715576171875,-0.7742303609848022,-0.20898912847042084,-0.7457231283187866
1772649751650756600,3.546756591796875,-0.6783786416053772,-0.2608560621738434,-0.5352582931518555
1772649751660798500,3.556798583984375,-0.4604319632053375,-0.24016276001930237,-0.21181312203407288
1772649751670839600,3.566839599609375,-0.18687818944454193,-0.2099635750055313,0.136641263961792
1772649751680880600,3.576880615234375,0.019570481032133102,-0.09691385924816132,0.35545268654823303
1772649751690921500,3.58692138671875,0.12035221606492996,-0.0724034532904625,0.36682650446891785
1772649751700962600,3.596962646484375,0.14676105976104736,-0.07117675244808197,0.2612297236919403
1772649751711003600,3.607003662109375,0.1305866241455078,-0.06127112731337547,0.1524619460105896
1772649751721044500,3.61704443359375,0.08093306422233582,-0.059991560876369476,0.0695507600903511
1772649751731086600,3.627086669921875,-0.002853174228221178,-0.06430374830961227,-0.015803290531039238
1772649751741127400,3.63712744140625,-0.11158619076013565,-0.09018795192241669,-0.12271533906459808
1772649751751168500,3.64716845703125,-0.2145964652299881,-0.1385917067527771,-0.23429353535175323
1772649751761209600,3.657209716796875,-0.2955194413661957,-0.18723823130130768,-0.303798645734787
1772649751771250400,3.66725048828125,-0.32373058795928955,-0.1987907439470291,-0.29465705156326294
1772649751781291500,3.67729150390625,-0.2977389991283417,-0.14245016872882843,-0.22054119408130646
1772649751791332600,3.68733251953125,-0.2507967948913574,-0.026711851358413696,-0.10466252267360687
1772649751801374700,3.697374755859375,-0.21056251227855682,0.07636597752571106,-0.025206390768289566
1772649751811415600,3.70741552734375,-0.3139088749885559,0.06639031320810318,-0.05235065892338753
1772649751821456600,3.71745654296875,-0.4830779731273651,-0.14159564673900604,-0.22739486396312714
1772649751831497700,3.727497802734375,-0.686368465423584,-0.3644969165325165,-0.4970724284648895
1772649751841538600,3.73753857421875,-0.7802731394767761,-0.49457848072052,-0.7843705415725708
1772649751851579600,3.74757958984375,-0.685989499092102,-0.4752740263938904,-0.9052988290786743
1772649751861621500,3.75762158203125,-0.48088541626930237,-0.2397928088903427,-0.7447589039802551
1772649751871662600,3.76766259765625,-0.24429762363433838,-0.1671052873134613,-0.5134252309799194
1772649751881703700,3.77770361328125,-0.10565007477998734,-0.4058307111263275,-0.2843831777572632
1772649751891744500,3.78774462890625,-0.32013148069381714,-0.18161863088607788,0.04983131214976311
1772649751901785600,3.79778564453125,-0.24685220420360565,0.15376016497612,0.6002755761146545
1772649751911826700,3.80782666015625,0.4381048381328583,0.42531469464302063,1.1812859773635864
1772649751921867500,3.817867431640625,0.7947914004325867,0.4166335165500641,1.3380175828933716
1772649751931909600,3.82790966796875,0.8639084100723267,0.421721488237381,1.162086844444275
1772649751941950500,3.837950439453125,1.020795226097107,0.4685680866241455,0.8295099139213562
1772649751951991600,3.847991455078125,1.0708591938018799,0.29749569296836853,0.4113315939903259
1772649751962032600,3.85803271484375,0.8640844821929932,-0.05302584543824196,0.019988054409623146
1772649751972073500,3.868073486328125,0.5190171003341675,-0.2809242606163025,-0.14558041095733643
1772649751982114600,3.878114501953125,0.22224444150924683,-0.37153160572052,-0.056757982820272446
1772649751992156400,3.888156494140625,0.030825478956103325,-0.455775648355484,0.1127663403749466
1772649752002197500,3.898197509765625,-0.04975710064172745,-0.4759582579135895,0.19305317103862762
1772649752012238600,3.908238525390625,-0.040837910026311874,-0.4379962384700775,0.1842660754919052
1772649752022279400,3.918279541015625,0.012247815728187561,-0.3928828537464142,0.1065879538655281
1772649752032320500,3.928320556640625,0.11084948480129242,-0.26039353013038635,0.047172825783491135
1772649752042361600,3.938361572265625,0.22383031249046326,-0.07262728363275528,0.03908294066786766
1772649752052402400,3.94840234375,0.2969319522380829,0.11908462643623352,0.07012315094470978
1772649752062444800,3.95844482421875,0.3250039517879486,0.32455626130104065,0.17434395849704742
1772649752072485600,3.968485595703125,0.32451874017715454,0.4935641884803772,0.31906571984291077
1772649752082526700,3.978526611328125,0.321410596370697,0.5525614619255066,0.37718331813812256
1772649752092567800,3.98856787109375,0.30285555124282837,0.5111663341522217,0.3916221857070923
1772649752102608600,3.998608642578125,0.3092503845691681,0.4343227446079254,0.39393025636672974
1772649752112649700,4.008649658203125,0.3441266119480133,0.37827518582344055,0.3922537863254547
1772649752122690600,4.018690673828125,0.39490222930908203,0.3461064100265503,0.39801591634750366
1772649752132732700,4.028732666015625,0.47005558013916016,0.3227584958076477,0.40510496497154236
1772649752142773500,4.0387734375,0.5339533090591431,0.2884053885936737,0.4015030860900879
1772649752152814600,4.048814697265625,0.5482944846153259,0.2668420374393463,0.37003785371780396
1772649752162855700,4.058855712890625,0.50466388463974,0.22574487328529358,0.27012449502944946
1772649752172896500,4.068896484375,0.39629989862442017,0.16751831769943237,0.07565568387508392
1772649752182937600,4.0789375,0.22263744473457336,0.10904991626739502,-0.24330246448516846
1772649752192978700,4.088978759765625,-0.0662715882062912,-0.07219870388507843,-0.6176707148551941
1772649752203020500,4.0990205078125,-0.3540310263633728,-0.146513894200325,-0.91243577003479
1772649752213061600,4.1090615234375,-0.5642803907394409,-0.16026486456394196,-1.0271905660629272
1772649752223102500,4.1191025390625,-0.7741488814353943,-0.19642336666584015,-0.9576529860496521
1772649752233143600,4.1291435546875,-0.9075029492378235,-0.2890965938568115,-0.7941908240318298
1772649752243184600,4.1391845703125,-0.8861194252967834,-0.3279508054256439,-0.6013076901435852
1772649752253225500,4.1492255859375,-0.7208053469657898,-0.35168489813804626,-0.41239020228385925
1772649752263267600,4.159267578125,-0.5256182551383972,-0.3392261862754822,-0.28654736280441284
1772649752273308400,4.169308349609375,-0.3682563304901123,-0.30391639471054077,-0.25257474184036255
1772649752283349500,4.179349609375,-0.20683687925338745,-0.2804355025291443,-0.25894811749458313
1772649752293390600,4.189390625,-0.07793375849723816,-0.25189387798309326,-0.2708471119403839
1772649752303431400,4.199431396484375,-0.01263250969350338,-0.23456059396266937,-0.26811787486076355
1772649752313472500,4.209472412109375,-0.004311995580792427,-0.23461146652698517,-0.2554105818271637
1772649752323513600,4.219513671875,-0.04592807963490486,-0.2121153622865677,-0.2385721355676651
1772649752333555700,4.2295556640625,-0.10377593338489532,-0.17088137567043304,-0.20594441890716553
1772649752343596800,4.2395966796875,-0.15242542326450348,-0.10063736885786057,-0.16522428393363953
1772649752353637600,4.2496376953125,-0.19305460155010223,-0.039859771728515625,-0.140138640999794
1772649752363678700,4.2596787109375,-0.2094184011220932,0.008225996047258377,-0.1323864459991455
1772649752373719800,4.2697197265625,-0.2645530104637146,0.06233637034893036,-0.13438726961612701
1772649752383760600,4.2797607421875,-0.3112122118473053,0.13552312552928925,-0.15037165582180023
1772649752393801700,4.2898017578125,-0.41929981112480164,0.18206745386123657,-0.24110636115074158
1772649752403843600,4.299843505859375,-0.5037602186203003,0.19178101420402527,-0.2986641526222229
1772649752413884700,4.309884765625,-0.5804339647293091,0.183805912733078,-0.3595306873321533
1772649752423925800,4.31992578125,-0.5822086930274963,0.15505219995975494,-0.47705888748168945
1772649752433966600,4.329966552734375,-0.4550401270389557,0.1629900187253952,-0.5270600318908691
1772649752444007700,4.340007568359375,-0.2765871286392212,0.18401111662387848,-0.39527803659439087
1772649752454048500,4.350048583984375,-0.1196046844124794,0.16022562980651855,-0.06937636435031891
1772649752464089600,4.360089599609375,0.0010976308258250356,0.07482359558343887,0.15377885103225708
1772649752474131700,4.370131591796875,0.1858813315629959,-0.03710240498185158,0.2972705066204071
1772649752484172800,4.3801728515625,0.1800537109375,0.12993715703487396,0.5795443058013916
1772649752494214000,4.3902138671875,0.1749604195356369,0.4962056875228882,0.8806588649749756
1772649752504254700,4.400254638671875,0.4219783842563629,0.6606740951538086,0.7788879871368408
1772649752514295800,4.4102958984375,0.5069736838340759,0.24586221575737,0.4975639283657074
1772649752524337000,4.4203369140625,0.5071316361427307,-0.1788717657327652,0.3775193989276886
1772649752534378800,4.430378662109375,0.5874027609825134,-0.2386578619480133,0.30003926157951355
1772649752544419800,4.440419921875,0.5920678973197937,-0.26017776131629944,0.12117258459329605
1772649752554460700,4.450460693359375,0.4501243531703949,-0.4213421642780304,-0.00016129831783473492
1772649752564501800,4.460501708984375,0.24347490072250366,-0.5446169972419739,-0.06484276056289673
1772649752574542800,4.47054296875,0.10830749571323395,-0.525410532951355,-0.09535353630781174
1772649752584583700,4.480583740234375,0.10893118381500244,-0.3454849123954773,-0.003503166837617755
1772649752594624800,4.490624755859375,0.1968972533941269,-0.08951704204082489,0.14202794432640076
1772649752604666600,4.50066650390625,0.3282729387283325,0.11016698181629181,0.26274141669273376
1772649752614707700,4.510707763671875,0.4497927129268646,0.19096967577934265,0.3560979962348938
1772649752624748800,4.520748779296875,0.5085499882698059,0.22384728491306305,0.41607484221458435
1772649752634789600,4.53078955078125,0.5087001919746399,0.26544347405433655,0.47248485684394836
1772649752644830700,4.540830810546875,0.45112887024879456,0.33726051449775696,0.5313807725906372
1772649752654871800,4.550871826171875,0.382127970457077,0.4106958508491516,0.5595710873603821
1772649752664912600,4.56091259765625,0.36607781052589417,0.45091578364372253,0.5372739434242249
1772649752674954800,4.570954833984375,0.3782508671283722,0.4355112612247467,0.5202515721321106
1772649752684995600,4.58099560546875,0.39758169651031494,0.423747718334198,0.5446633100509644
1772649752695036700,4.59103662109375,0.435345858335495,0.4269075393676758,0.5739330649375916
1772649752705077800,4.601077880859375,0.4819018542766571,0.4020423889160156,0.5362851023674011
1772649752715118600,4.61111865234375,0.5246524810791016,0.3686562180519104,0.4373510479927063
1772649752725159700,4.62115966796875,0.5534898042678833,0.34001418948173523,0.32641488313674927
1772649752735200800,4.63120068359375,0.5541635751724243,0.28434106707572937,0.2030564397573471
1772649752745243000,4.641242919921875,0.5205926895141602,0.17338451743125916,0.039234623312950134
1772649752755283700,4.65128369140625,0.4262845814228058,0.03718992695212364,-0.14879679679870605
1772649752765324800,4.66132470703125,0.2603216767311096,-0.10395761579275131,-0.3658049702644348
1772649752775366000,4.671365966796875,0.018902398645877838,-0.20639930665493011,-0.5759491324424744
1772649752785406700,4.68140673828125,-0.22973035275936127,-0.31367337703704834,-0.7367348074913025
1772649752795447800,4.69144775390625,-0.41965022683143616,-0.38554438948631287,-0.8191476464271545
1772649752805489700,4.70148974609375,-0.5454047918319702,-0.40287718176841736,-0.7995034456253052
1772649752815530800,4.71153076171875,-0.6198760867118835,-0.35672301054000854,-0.7064869403839111
1772649752825571800,4.72157177734375,-0.5925896167755127,-0.29310372471809387,-0.5275440216064453
1772649752835612700,4.73161279296875,-0.45201683044433594,-0.21737860143184662,-0.3191034495830536
1772649752845653800,4.74165380859375,-0.2681073546409607,-0.15597566962242126,-0.15959182381629944
1772649752855694800,4.75169482421875,-0.11914317309856415,-0.051016490906476974,-0.10327635705471039
1772649752865735700,4.761735595703125,-0.012608927674591541,0.02061697654426098,-0.10971757769584656
1772649752875777800,4.77177783203125,0.06815915554761887,0.029754281044006348,-0.08264148980379105
1772649752885818600,4.781818603515625,0.12115476280450821,0.04621298238635063,-0.0034910000395029783
1772649752895859700,4.791859619140625,0.12686537206172943,0.09564657509326935,0.07585974782705307
1772649752905900800,4.80190087890625,0.09629365056753159,0.15268458425998688,0.12229417264461517
1772649752915941600,4.811941650390625,0.03121638484299183,0.19589996337890625,0.1303262561559677
1772649752925982700,4.821982666015625,-0.055800121277570724,0.22240155935287476,0.10778848826885223
1772649752936023800,4.83202392578125,-0.152373805642128,0.2350212186574936,0.06448149681091309
1772649752946065700,4.842065673828125,-0.2202197164297104,0.24909451603889465,0.015577408485114574
1772649752956106800,4.852106689453125,-0.3050970733165741,0.27226802706718445,-0.012473400682210922
1772649752966147600,4.862147705078125,-0.3478796184062958,0.29020488262176514,-0.06799124926328659
1772649752976188700,4.872188720703125,-0.36880752444267273,0.2584799528121948,-0.09171123057603836
1772649752986229800,4.882229736328125,-0.395652174949646,0.18677105009555817,-0.11011093109846115
1772649752996270600,4.8922705078125,-0.505474328994751,0.019168749451637268,-0.24175070226192474
1772649753006311700,4.902311767578125,-0.5511457920074463,-0.1925715059041977,-0.5229970216751099
1772649753016353500,4.912353515625,-0.4404277503490448,-0.23588062822818756,-0.7345332503318787
1772649753026394600,4.92239453125,-0.3317882716655731,-0.2583654820919037,-0.6259271502494812
1772649753036435700,4.932435791015625,-0.3528546988964081,-0.3328290581703186,-0.34736955165863037
1772649753046476800,4.942476806640625,-0.5604257583618164,-0.5333478450775146,-0.12621545791625977
1772649753056518000,4.952517822265625,-0.7421764135360718,-0.37955382466316223,0.03429246321320534
1772649753066558700,4.962558837890625,-0.6475088596343994,-0.06766936182975769,0.3272666335105896
1772649753076599800,4.972599853515625,-0.24751564860343933,0.18068398535251617,0.6456518173217773
1772649753086641700,4.9826416015625,0.03285670280456543,-0.0013334602117538452,0.6659442782402039
1772649753096682800,4.992682861328125,0.158055379986763,-0.19008420407772064,0.558789074420929
1772649753106723800,5.002723876953125,0.3030398488044739,-0.26446500420570374,0.42993584275245667
1772649753116764700,5.0127646484375,0.37669089436531067,-0.2755935788154602,0.21618866920471191
1772649753126805800,5.0228056640625,0.323453426361084,-0.3135634958744049,0.05156923085451126
1772649753136846800,5.032846923828125,0.2465677112340927,-0.23642584681510925,0.06941746920347214
1772649753146887700,5.0428876953125,0.20398661494255066,0.004475418012589216,0.11139404773712158
1772649753156929800,5.0529296875,0.22428415715694427,0.21380360424518585,0.1571175903081894
1772649753166970600,5.062970703125,0.32771819829940796,0.277254581451416,0.16540798544883728
1772649753177011700,5.07301171875,0.3990776240825653,0.19197538495063782,0.1628289818763733
1772649753187052800,5.083052734375,0.4909924566745758,0.06740463525056839,0.20105566084384918
1772649753197093600,5.09309375,0.5176275372505188,-0.04619516059756279,0.2733975350856781
1772649753207134700,5.103134765625,0.47162461280822754,-0.12454251945018768,0.3270171880722046
1772649753217175800,5.11317578125,0.38659465312957764,-0.13821253180503845,0.34925565123558044
1772649753227217700,5.1232177734375,0.30002811551094055,-0.1169477105140686,0.39367687702178955
1772649753237258800,5.1332587890625,0.2213125079870224,-0.02113303355872631,0.4491473138332367
1772649753247299600,5.143299560546875,0.20666126906871796,0.03656626120209694,0.5049290060997009
1772649753257340700,5.153340576171875,0.22915327548980713,0.10282863676548004,0.5260369181632996
1772649753267381800,5.1633818359375,0.26343581080436707,0.12436311691999435,0.5350160002708435
1772649753277422600,5.173422607421875,0.3347262442111969,0.11699228733778,0.560604453086853
1772649753287463700,5.183463623046875,0.42877912521362305,0.12432322651147842,0.558993399143219
1772649753297505500,5.193505615234375,0.4795323312282562,0.11487406492233276,0.47912415862083435
1772649753307546600,5.203546630859375,0.446890264749527,0.0786777213215828,0.3176623582839966
1772649753317587700,5.213587646484375,0.39243796467781067,0.017981883138418198,0.1459856778383255
1772649753327628500,5.223628662109375,0.2875184714794159,-0.02569723315536976,-0.043884869664907455
1772649753337670400,5.23367041015625,0.07328208535909653,-0.04819455370306969,-0.22924327850341797
1772649753347711200,5.243711181640625,-0.18705180287361145,-0.011461760848760605,-0.38322171568870544
1772649753357753300,5.25375341796875,-0.34652507305145264,-0.004221158567816019,-0.5181171894073486
1772649753367794200,5.263794189453125,-0.4308299720287323,0.009072593413293362,-0.607012927532196
1772649753377835300,5.273835205078125,-0.4971466660499573,-0.018371015787124634,-0.6293355226516724
1772649753387876400,5.28387646484375,-0.5200263857841492,-0.02848231792449951,-0.5402228832244873
1772649753397917200,5.293917236328125,-0.46087706089019775,0.023720167577266693,-0.31073909997940063
1772649753407958300,5.303958251953125,-0.2723506689071655,0.046866726130247116,-0.007998010143637657
1772649753417999400,5.313999267578125,-0.037372492253780365,0.11038871109485626,0.20670151710510254
1772649753436826000,5.332826171875,0.2123923897743225,0.13687270879745483,0.23267468810081482
1772649753446867500,5.342867431640625,0.2669091522693634,0.07587859034538269,0.18703129887580872
1772649753456908500,5.352908447265625,0.26839134097099304,-0.005948937498033047,0.12895457446575165
1772649753466949400,5.362949462890625,0.2290676236152649,-0.08916233479976654,0.06840015202760696
1772649753476991500,5.372991455078125,0.1680002212524414,-0.17372189462184906,0.014035855419933796
1772649753487032300,5.3830322265625,0.09335020929574966,-0.24498328566551208,-0.03507869318127632
1772649753497073400,5.393073486328125,0.007838018238544464,-0.28612974286079407,-0.08915188908576965
1772649753507114500,5.403114501953125,-0.06518638879060745,-0.29584628343582153,-0.13603657484054565
1772649753517155300,5.4131552734375,-0.1348976045846939,-0.253949910402298,-0.16715922951698303
1772649753527196400,5.423196533203125,-0.22852742671966553,-0.20458926260471344,-0.2025102972984314
1772649753537238300,5.43323828125,-0.357867568731308,-0.19760291278362274,-0.27641725540161133
1772649753547279400,5.443279296875,-0.5046311616897583,-0.21650682389736176,-0.43927833437919617
1772649753557320400,5.453320556640625,-0.569318413734436,-0.2086702436208725,-0.5272136330604553
1772649753567361300,5.463361328125,-0.6035951375961304,-0.18076378107070923,-0.5483950972557068
1772649753577402400,5.47340234375,-0.5991421341896057,-0.16526496410369873,-0.6090698838233948
1772649753587443500,5.483443359375,-0.46327078342437744,-0.07995326817035675,-0.6358314752578735
1772649753597484300,5.493484375,-0.2195756882429123,0.09705130010843277,-0.5095430016517639
1772649753607525400,5.503525390625,0.011375234462320805,0.12367438524961472,-0.22413283586502075
1772649753617567200,5.513567138671875,0.1766539067029953,0.04617265984416008,-0.14512693881988525
1772649753627608300,5.5236083984375,0.16801035404205322,-0.14911986887454987,-0.2245999276638031
1772649753637649400,5.5336494140625,0.061182547360658646,-0.05044155195355415,0.2567684054374695
1772649753647690200,5.543690185546875,0.29091960191726685,0.4866306781768799,1.0127501487731934
1772649753657731300,5.5537314453125,0.6975063681602478,0.6618341207504272,1.0312445163726807
1772649753667772400,5.5637724609375,0.8640570044517517,0.21521535515785217,0.6906014084815979
1772649753677814300,5.573814208984375,0.8340162038803101,-0.4188978374004364,0.42593711614608765
1772649753687855400,5.58385546875,0.7855408191680908,-0.7052209377288818,0.2627657949924469
1772649753697896200,5.593896240234375,0.6470916271209717,-0.690960705280304,0.0955689400434494
1772649753707937300,5.603937255859375,0.39597684144973755,-0.7749890685081482,-0.04159184545278549
1772649753717978000,5.61397802734375,0.07241183519363403,-0.8929046988487244,-0.16503411531448364
1772649753728019200,5.624019287109375,-0.17504721879959106,-0.9345946311950684,-0.204325869679451
1772649753738060300,5.634060302734375,-0.26574721932411194,-0.8029120564460754,-0.11574188619852066
1772649753748101000,5.64410107421875,-0.2026103138923645,-0.5565385222434998,-0.015946313738822937
1772649753758143500,5.6541435546875,-0.05524080619215965,-0.31659454107284546,-0.03473171219229698
1772649753768184300,5.664184326171875,0.09077125787734985,-0.1822739988565445,-0.06760843098163605
1772649753778225400,5.674225341796875,0.1800374984741211,-0.1509213149547577,-0.003713565645739436
1772649753788266500,5.6842666015625,0.2375229001045227,-0.13331381976604462,0.08933834731578827
1772649753798307300,5.694307373046875,0.27267587184906006,-0.13452517986297607,0.188062384724617
1772649753808349400,5.704349365234375,0.29421764612197876,-0.13490335643291473,0.3133063018321991
1772649753818390300,5.714390380859375,0.29601824283599854,-0.10945932567119598,0.40860050916671753
1772649753828431400,5.724431396484375,0.2858681380748749,-0.0790148675441742,0.4488674998283386
1772649753838472400,5.734472412109375,0.2753475606441498,0.0006010427605360746,0.41461747884750366
1772649753848513300,5.74451318359375,0.21496999263763428,0.10264138877391815,0.3070835769176483
1772649753858554400,5.754554443359375,0.14984673261642456,0.13905242085456848,0.15513533353805542
1772649753868596200,5.76459619140625,0.08537106961011887,0.13626275956630707,-0.019032198935747147
1772649753878637300,5.77463720703125,-0.0044273314997553825,0.21791641414165497,-0.2092089205980301
1772649753888678400,5.784678466796875,-0.17726968228816986,0.29268038272857666,-0.41048529744148254
1772649753898719200,5.79471923828125,-0.41539010405540466,0.3345511257648468,-0.6258165836334229
1772649753908760300,5.80476025390625,-0.6691925525665283,0.3592812418937683,-0.805812418460846
1772649753918801400,5.814801513671875,-0.8618741035461426,0.49077147245407104,-0.8951662182807922
1772649753928842200,5.82484228515625,-0.9972889423370361,0.5818046927452087,-0.861924409866333
1772649753938884400,5.83488427734375,-1.0963503122329712,0.6048479676246643,-0.6540784239768982
1772649753948925200,5.84492529296875,-1.0512912273406982,0.4354647994041443,-0.33722326159477234
1772649753958966300,5.85496630859375,-0.7996333837509155,0.22820642590522766,0.04110965132713318
1772649753969007400,5.86500732421875,-0.43526768684387207,0.1564408838748932,0.4106472134590149
1772649753979048200,5.875048095703125,-0.13848763704299927,0.23015932738780975,0.6421871781349182
1772649753989089300,5.88508935546875,0.08727279305458069,0.28428754210472107,0.6656560301780701
1772649753999130400,5.89513037109375,0.25321143865585327,0.1454908698797226,0.5578638911247253
1772649754009172500,5.90517236328125,0.32734134793281555,0.0006197020411491394,0.4166431427001953
1772649754019213300,5.91521337890625,0.31635063886642456,-0.0962807685136795,0.2870925962924957
1772649754029254400,5.92525439453125,0.264464795589447,-0.1665368378162384,0.21376165747642517
1772649754039295500,5.93529541015625,0.21972638368606567,-0.19036084413528442,0.17889143526554108
1772649754049336300,5.94533642578125,0.13073712587356567,-0.17583143711090088,0.15047791600227356
1772649754059377400,5.95537744140625,0.08572253584861755,-0.1797342747449875,0.08866138011217117
1772649754069418500,5.96541845703125,-0.04095897823572159,-0.1761363446712494,-0.012632216326892376
1772649754079460400,5.97546044921875,-0.10854605585336685,-0.2322801649570465,-0.14954251050949097
1772649754089501400,5.98550146484375,-0.2582647204399109,-0.2762649357318878,-0.26249197125434875
1772649754099542300,5.995542236328125,-0.3910972774028778,-0.3123689293861389,-0.3400084376335144
1772649754109583400,6.005583251953125,-0.5099285840988159,-0.3155604600906372,-0.4639865756034851
1772649754119624400,6.01562451171875,-0.7255812883377075,-0.3122749328613281,-0.6631717681884766
1772649754129665300,6.025665283203125,-0.818705141544342,-0.34901005029678345,-0.8253366947174072
1772649754139706400,6.035706298828125,-0.8806734681129456,-0.3482111394405365,-0.8749499917030334
1772649754149748200,6.045748291015625,-0.7968326807022095,-0.345228910446167,-0.8808595538139343
1772649754159789300,6.055789306640625,-0.6740445494651794,-0.4354099929332733,-0.8325657248497009
1772649754169830400,6.065830322265625,-0.49983862042427063,-0.4609379768371582,-0.8660070300102234
1772649754179871200,6.075871337890625,-0.30194681882858276,-0.3290505111217499,-0.7480990886688232
1772649754189912300,6.085912353515625,-0.05312661454081535,-0.06713554263114929,0.2692267894744873
1772649754199953400,6.095953369140625,0.26107949018478394,0.6706337332725525,1.0773950815200806
1772649754209994200,6.105994140625,0.5846080183982849,0.9362126588821411,1.018133282661438
1772649754220036400,6.116036376953125,0.9204290509223938,0.7232157588005066,0.8619595170021057
1772649754230077200,6.1260771484375,1.1461833715438843,0.4619191884994507,0.7951557040214539
1772649754240118300,6.1361181640625,1.2395002841949463,0.19258742034435272,0.5713059306144714
1772649754250159400,6.146159423828125,1.179590106010437,-0.08685273677110672,0.31161627173423767
1772649754260200200,6.1562001953125,0.9100831747055054,-0.3892728090286255,0.0861469954252243
1772649754270241300,6.1662412109375,0.5440908074378967,-0.6668287515640259,-0.03476930037140846
1772649754280282400,6.176282470703125,0.2680428624153137,-0.8201621770858765,-0.07363411784172058
1772649754290324500,6.186324462890625,0.08418354392051697,-0.8251920938491821,-0.1169901117682457
1772649754300365600,6.196365478515625,0.00727915158495307,-0.7175226211547852,-0.1772097498178482
1772649754310406400,6.206406494140625,0.03450438007712364,-0.5780637860298157,-0.27793288230895996
1772649754320447500,6.216447509765625,0.15141388773918152,-0.455514132976532,-0.36293527483940125
1772649754330488300,6.22648828125,0.24754999577999115,-0.31269571185112,-0.38649624586105347
1772649754340528600,6.236528564453125,0.3049764633178711,-0.12606613337993622,-0.33422544598579407
1772649754350569700,6.24656982421875,0.32128939032554626,0.09494508057832718,-0.20736950635910034
1772649754360610800,6.25661083984375,0.2990875244140625,0.32908135652542114,-0.022748392075300217
1772649754370652700,6.266652587890625,0.2534728944301605,0.496010422706604,0.16634510457515717
1772649754380693800,6.27669384765625,0.2188614457845688,0.5296862721443176,0.3598278760910034
1772649754390734600,6.286734619140625,0.19703896343708038,0.48796549439430237,0.5375108122825623
1772649754400775700,6.296775634765625,0.19238322973251343,0.41754865646362305,0.6404579877853394
1772649754410816800,6.306816650390625,0.20057670772075653,0.3076602518558502,0.6561152338981628
1772649754420857600,6.316857666015625,0.21871435642242432,0.16762001812458038,0.5877853035926819
1772649754430898700,6.326898681640625,0.22872091829776764,-0.009241304360330105,0.4618028402328491
1772649754440940500,6.3369404296875,0.2195100486278534,-0.1833178699016571,0.2988884150981903
1772649754450981600,6.346981689453125,0.1892181783914566,-0.3189034163951874,0.13106530904769897
1772649754461022700,6.357022705078125,0.1388595849275589,-0.3859521448612213,-0.013653338886797428
1772649754471063600,6.3670634765625,0.05947846546769142,-0.41239893436431885,-0.1459578424692154
1772649754481104600,6.377104736328125,-0.07900132238864899,-0.37602680921554565,-0.26596784591674805
1772649754491145700,6.387145751953125,-0.2685651183128357,-0.3161570727825165,-0.37463441491127014
1772649754501186600,6.3971865234375,-0.49645087122917175,-0.2824034094810486,-0.48173579573631287
1772649754511228700,6.407228759765625,-0.6633354425430298,-0.2388460785150528,-0.5982869267463684
1772649754521269800,6.417269775390625,-0.7871257066726685,-0.1827399581670761,-0.7096565961837769
1772649754531310800,6.427310791015625,-0.8684229254722595,-0.22874261438846588,-0.7991605997085571
1772649754541351700,6.4373515625,-0.8637082576751709,-0.2869699001312256,-0.7874832153320312
1772649754551392800,6.447392822265625,-0.7506147027015686,-0.16481313109397888,-0.6492180228233337
1772649754561433900,6.457433837890625,-0.528388261795044,0.027147432789206505,-0.46881455183029175
1772649754571474700,6.467474609375,-0.33897843956947327,0.1518978774547577,-0.32982125878334045
1772649754581516800,6.477516845703125,-0.194921612739563,0.23212569952011108,-0.21936333179473877
1772649754591557600,6.4875576171875,-0.04681017994880676,0.3191985785961151,-0.0968262255191803
1772649754601598700,6.4975986328125,0.08307688683271408,0.37057003378868103,0.03247339278459549
1772649754611639800,6.507639892578125,0.16645272076129913,0.3981441259384155,0.13864164054393768
1772649754621680600,6.5176806640625,0.18840311467647552,0.42286381125450134,0.20171260833740234
1772649754631721700,6.5277216796875,0.14505483210086823,0.440784752368927,0.2051507532596588
1772649754641762800,6.5377626953125,0.053682535886764526,0.43959036469459534,0.1740129142999649
1772649754651804700,6.5478046875,-0.04780440777540207,0.4102652370929718,0.11209255456924438
1772649754661845800,6.557845703125,-0.13463453948497772,0.3772067427635193,0.03455014154314995
1772649754671886600,6.567886474609375,-0.21431872248649597,0.35762107372283936,-0.02861018478870392
1772649754681927700,6.577927734375,-0.31052908301353455,0.3613734841346741,-0.10198969393968582
1772649754691968800,6.58796875,-0.4232257902622223,0.35071417689323425,-0.21133962273597717
1772649754702009600,6.598009521484375,-0.52326899766922,0.3503158688545227,-0.3020339906215668
1772649754712050700,6.60805078125,-0.6342980265617371,0.3206610381603241,-0.4462020695209503
1772649754722091800,6.618091796875,-0.7323601245880127,0.2438347190618515,-0.6939743757247925
1772649754732133600,6.628133544921875,-0.7533194422721863,0.06218821927905083,-0.8214297890663147
1772649754742174700,6.6381748046875,-0.7241625785827637,-0.07925035804510117,-0.7821975350379944
1772649754752215600,6.648215576171875,-0.6413478851318359,-0.16873124241828918,-0.5893005132675171
1772649754762256600,6.658256591796875,-0.6137745976448059,-0.16901816427707672,-0.2240104377269745
1772649754772297700,6.668297607421875,-0.8007377982139587,0.018085934221744537,0.037175893783569336
1772649754782338600,6.678338623046875,-0.8417099118232727,0.2733291685581207,0.21601133048534393
1772649754792379600,6.688379638671875,-0.37605249881744385,0.36062517762184143,0.4250856935977936
1772649754802421800,6.698421875,0.03650294244289398,-0.05542967841029167,0.5557766556739807
1772649754812462800,6.708462890625,0.2215801179409027,-0.4061110019683838,0.7306321263313293
1772649754822503700,6.718503662109375,0.33269745111465454,-0.4105967879295349,0.8212213516235352
1772649754832544800,6.728544677734375,0.38778334856033325,-0.34084033966064453,0.832145094871521
1772649754842585900,6.7385859375,0.3513225317001343,-0.3490961194038391,0.7645847201347351
1772649754852626700,6.748626708984375,0.3200887143611908,-0.33918651938438416,0.5021069645881653
1772649754862667800,6.758667724609375,0.3257615864276886,-0.13659332692623138,0.15790028870105743
1772649754872709600,6.768709716796875,0.3065865635871887,0.07480119168758392,-0.10111024230718613
1772649754882750700,6.778750732421875,0.27016374468803406,0.18541261553764343,-0.19149965047836304
1772649754892791800,6.788791748046875,0.2784048914909363,0.2156703919172287,-0.16426163911819458
1772649754902832600,6.79883251953125,0.2906592786312103,0.186496302485466,-0.09076546132564545
1772649754912873700,6.808873779296875,0.24132688343524933,0.1363183557987213,-0.033041443675756454
1772649754922914800,6.818914794921875,0.16271887719631195,0.05974402651190758,0.020722901448607445
1772649754932955600,6.82895556640625,0.12277785688638687,-0.016315853223204613,0.12841394543647766
1772649754942996700,6.838996826171875,0.16952766478061676,-0.006855635438114405,0.28054967522621155
1772649754953038600,6.84903857421875,0.288484126329422,0.09434874355792999,0.42900437116622925
1772649754963079700,6.85907958984375,0.43723899126052856,0.2170264720916748,0.5085262656211853
1772649754973120800,6.869120849609375,0.5531567931175232,0.2737770974636078,0.5134208798408508
1772649754983161600,6.87916162109375,0.6607308387756348,0.28711098432540894,0.47575321793556213
1772649754993202700,6.88920263671875,0.7524005770683289,0.288187175989151,0.40137168765068054
1772649755003243800,6.899243896484375,0.7954438924789429,0.2617233991622925,0.30641552805900574
1772649755013284600,6.90928466796875,0.787289559841156,0.20529422163963318,0.2118336260318756
1772649755023326700,6.91932666015625,0.7525501251220703,0.15663540363311768,0.10838320851325989
1772649755033367600,6.929367431640625,0.6917344331741333,0.151846244931221,0.009081383235752583
1772649755043408600,6.93940869140625,0.579687774181366,0.13564398884773254,-0.11931148916482925
1772649755053449700,6.94944970703125,0.4251576066017151,0.17098653316497803,-0.3201521635055542
1772649755063490600,6.959490478515625,0.2486780732870102,0.17545972764492035,-0.5933334231376648
1772649755073531600,6.96953173828125,0.02386946603655815,0.15463274717330933,-0.8573336601257324
1772649755083572700,6.97957275390625,-0.19502857327461243,0.10654731839895248,-1.0345631837844849
1772649755093614800,6.98961474609375,-0.3506629168987274,0.013150795362889767,-1.1046828031539917
1772649755103656000,6.999656005859375,-0.44619864225387573,-0.0728255957365036,-1.0545004606246948
1772649755113696800,7.00969677734375,-0.47582417726516724,-0.14112554490566254,-0.8691228628158569
1772649755123737900,7.01973779296875,-0.42997148633003235,-0.17597337067127228,-0.5941888689994812
1772649755133778700,7.02977880859375,-0.2998957931995392,-0.20151709020137787,-0.3150390386581421
1772649755143819800,7.03981982421875,-0.15182077884674072,-0.1981760561466217,-0.09083616733551025
1772649755153860900,7.04986083984375,-0.003925852943211794,-0.15532580018043518,0.031141936779022217
1772649755163902700,7.05990283203125,0.11303143948316574,-0.1292838752269745,0.04976637661457062
1772649755173943800,7.06994384765625,0.1628996729850769,-0.1531418114900589,0.05115707963705063
1772649755183984600,7.079984619140625,0.17829078435897827,-0.15857015550136566,0.05348334461450577
1772649755194025700,7.090025634765625,0.17352265119552612,-0.13919033110141754,0.02978147566318512
1772649755204066800,7.10006689453125,0.10469676554203033,-0.1312500238418579,-0.02262702025473118
1772649755214107600,7.110107666015625,-0.056929148733615875,-0.1272057443857193,-0.08604247868061066
1772649755224148700,7.120148681640625,-0.19650641083717346,-0.13710947334766388,-0.15694284439086914
1772649755234190600,7.130190673828125,-0.35596129298210144,-0.138262078166008,-0.22979043424129486
1772649755244231700,7.140231689453125,-0.44089019298553467,-0.1325937807559967,-0.30942773818969727
1772649755254272800,7.150272705078125,-0.5664952397346497,-0.10778670758008957,-0.3609476685523987
1772649755264313600,7.160313720703125,-0.6626444458961487,-0.0965089425444603,-0.39946380257606506
1772649755274354700,7.170354736328125,-0.7338965535163879,-0.06854495406150818,-0.49147069454193115
1772649755284395800,7.180395751953125,-0.7225277423858643,0.0009489363292232156,-0.6806233525276184
1772649755294436600,7.1904365234375,-0.8423923254013062,-0.10217105597257614,-0.8567746877670288
1772649755304477700,7.200477783203125,-0.9952738881111145,-0.20446382462978363,-1.0260035991668701
1772649755314519600,7.21051953125,-0.933441162109375,-0.2461414933204651,-1.0331357717514038
1772649755324560600,7.220560546875,-0.8063636422157288,-0.1867545247077942,-0.8876846432685852
1772649755334601700,7.230601806640625,-0.7191480398178101,-0.11823804676532745,-0.6520053148269653
1772649755344642600,7.240642578125,-0.8945584297180176,0.0453106090426445,-0.261735200881958
1772649755354683600,7.25068359375,-1.1535491943359375,0.3910602927207947,0.2343595325946808
1772649755364724700,7.260724853515625,-0.6754564046859741,1.031491994857788,0.7765810489654541
1772649755374765600,7.270765625,0.16550405323505402,1.278360366821289,1.0897109508514404
1772649755384806700,7.280806640625,0.6005995273590088,0.8923463821411133,1.035208821296692
1772649755394848500,7.2908486328125,0.49586164951324463,0.3784995377063751,0.8889529705047607
1772649755404889600,7.3008896484375,0.4957517087459564,0.09513043612241745,0.7462844252586365
1772649755414930700,7.3109306640625,0.5493372082710266,-0.08354290574789047,0.33223798871040344
1772649755424971500,7.320971435546875,0.32191312313079834,-0.32334476709365845,-0.1510223001241684
1772649755435012600,7.3310126953125,-0.005435985513031483,-0.505617082118988,-0.41259506344795227
1772649755445053700,7.3410537109375,-0.23188120126724243,-0.34643128514289856,-0.3285357654094696
1772649755455094500,7.351094482421875,-0.3970610797405243,-0.061586495488882065,-0.0815451517701149
1772649755465136600,7.36113671875,-0.4994827210903168,0.06355663388967514,0.13175557553768158
1772649755475177500,7.371177490234375,-0.4315510392189026,0.03612794354557991,0.2298017144203186
1772649755485218600,7.381218505859375,-0.21030640602111816,-0.02292148396372795,0.28385797142982483
1772649755495259600,7.391259765625,0.09638268500566483,-0.03754090517759323,0.43315503001213074
1772649755505300500,7.401300537109375,0.3501957952976227,-0.030186055228114128,0.5790150165557861
1772649755515341600,7.411341552734375,0.5385164022445679,0.024655621498823166,0.5856961011886597
1772649755525382700,7.421382568359375,0.6573857069015503,0.13310348987579346,0.5034856796264648
1772649755535424800,7.4314248046875,0.6960340142250061,0.24380497634410858,0.43212977051734924
1772649755545465600,7.441465576171875,0.6286233067512512,0.30161938071250916,0.4092823565006256
1772649755555506700,7.451506591796875,0.4907538890838623,0.331262469291687,0.41626620292663574
1772649755565547800,7.4615478515625,0.31618034839630127,0.3587426245212555,0.38314753770828247
1772649755575588600,7.471588623046875,0.1672489047050476,0.39462605118751526,0.326617956161499
1772649755585629700,7.481629638671875,0.10191286355257034,0.42942357063293457,0.264325886964798
1772649755595670800,7.4916708984375,0.13635127246379852,0.4710165560245514,0.1960970163345337
1772649755605711600,7.501711669921875,0.22749994695186615,0.4526437222957611,0.17482617497444153
1772649755615753700,7.511753662109375,0.40185391902923584,0.3788754940032959,0.20928242802619934
1772649755625794600,7.521794677734375,0.6017047762870789,0.30317994952201843,0.286630779504776
1772649755635835600,7.531835693359375,0.7428062558174133,0.25237056612968445,0.39238008856773376
1772649755645876700,7.541876708984375,0.7827635407447815,0.21255072951316833,0.4637347161769867
1772649755655917600,7.55191748046875,0.7656769752502441,0.18841449916362762,0.46061933040618896
1772649755665958700,7.561958740234375,0.7471458911895752,0.18279796838760376,0.4019467830657959
1772649755675999700,7.571999755859375,0.7247241735458374,0.21905584633350372,0.30235812067985535
1772649755686041600,7.58204150390625,0.6481871008872986,0.20751017332077026,0.11758611351251602
1772649755696082700,7.592082763671875,0.4978189468383789,0.10118772834539413,-0.1764175444841385
1772649755706123500,7.60212353515625,0.2612995505332947,-0.07689432054758072,-0.4976133108139038
1772649755716164600,7.61216455078125,0.04623066633939743,-0.1867385357618332,-0.7208069562911987
1772649755726205700,7.622205810546875,-0.190370112657547,-0.2903919219970703,-0.8058921098709106
1772649755736246500,7.63224658203125,-0.4823859632015228,-0.4107438921928406,-0.7858476042747498
1772649755746287600,7.64228759765625,-0.7105827927589417,-0.5268092751502991,-0.7117679715156555
1772649755756328700,7.65232861328125,-0.7721622586250305,-0.5715267062187195,-0.5688893795013428
1772649755766370600,7.66237060546875,-0.6693268418312073,-0.5752573013305664,-0.409074068069458
1772649755776411600,7.67241162109375,-0.4733957052230835,-0.6010915637016296,-0.29051440954208374
1772649755786452500,7.682452392578125,-0.23373650014400482,-0.5606927275657654,-0.20813430845737457
1772649755796493600,7.69249365234375,-0.0554831400513649,-0.4499116539955139,-0.211747944355011
1772649755806534700,7.70253466796875,0.03626755252480507,-0.42122966051101685,-0.20175017416477203
1772649755816575500,7.712575439453125,0.1015046089887619,-0.40384402871131897,-0.1246149092912674
1772649755826616600,7.722616455078125,0.11958666890859604,-0.347055584192276,-0.016192298382520676
1772649755836658700,7.73265869140625,0.0796821340918541,-0.24377073347568512,0.0720539391040802
1772649755846699800,7.74269970703125,0.00497552240267396,-0.133920356631279,0.11085084080696106
1772649755856740600,7.75274072265625,-0.07991886138916016,-0.04908189922571182,0.10870619863271713
1772649755866781700,7.76278173828125,-0.15629982948303223,0.013205655850470066,0.07759284973144531
1772649755876822800,7.77282275390625,-0.1980222463607788,0.0843551978468895,0.050596918910741806
1772649755886863600,7.782863525390625,-0.18182216584682465,0.1795707792043686,0.04686751216650009
1772649755896904700,7.79290478515625,-0.13699130713939667,0.26329442858695984,0.060895178467035294
1772649755906946600,7.802946533203125,-0.1351887732744217,0.29613372683525085,0.06747084110975266
1772649755916987600,7.812987548828125,-0.18064014613628387,0.25913363695144653,0.04897065833210945
1772649755927028700,7.82302880859375,-0.16974309086799622,0.19372397661209106,0.014348991215229034
1772649755937069600,7.833069580078125,-0.21482667326927185,0.0719836950302124,-0.10220478475093842
1772649755947110700,7.843110595703125,-0.2799260914325714,-0.1230023205280304,-0.31043514609336853
1772649755957151700,7.85315185546875,-0.2567105293273926,-0.2730996608734131,-0.45587196946144104
1772649755967192600,7.863192626953125,-0.1544327735900879,-0.23746103048324585,-0.4220931828022003
1772649755977233700,7.873233642578125,-0.01400908175855875,-0.26659655570983887,-0.3811500072479248
1772649755987275500,7.883275634765625,0.17645080387592316,-0.41030704975128174,-0.2970501780509949
1772649755997316600,7.893316650390625,0.12438786774873734,-0.3219127357006073,-0.048167914152145386
1772649756007357700,7.903357666015625,-0.01921205408871174,-0.15807387232780457,0.35719478130340576
1772649756017398500,7.9133984375,0.23776115477085114,0.2851909101009369,0.6881452798843384
1772649756027439600,7.923439697265625,0.6441200375556946,0.17737102508544922,0.813045859336853
1772649756037480700,7.933480712890625,0.6096254587173462,-0.10257940739393234,0.681481659412384
1772649756047521500,7.943521484375,0.48823878169059753,-0.16707390546798706,0.45044058561325073
1772649756057563600,7.953563720703125,0.4536650776863098,-0.175876185297966,0.30221784114837646
1772649756067604500,7.9636044921875,0.35242170095443726,-0.08482682704925537,0.2738942801952362
1772649756077645600,7.9736455078125,0.14523734152317047,0.16459205746650696,0.2518060505390167
1772649756087686700,7.983686767578125,-0.03966251015663147,0.3798035979270935,0.13752247393131256
1772649756097727500,7.9937275390625,-0.17443417012691498,0.3810771405696869,0.06552019715309143
1772649756107768600,8.0037685546875,-0.1350654810667038,0.3015652596950531,0.12015935033559799
1772649756117809400,8.013809326171875,0.03673451393842697,0.24612274765968323,0.17989031970500946
1772649756127850500,8.0238505859375,0.221842959523201,0.20446562767028809,0.2243480384349823
1772649756137892600,8.033892578125,0.3113395571708679,0.10916893184185028,0.31353917717933655
1772649756147933700,8.04393359375,0.26778537034988403,-0.03526628389954567,0.3564341068267822
1772649756157974800,8.053974853515625,0.1713392734527588,-0.0776214599609375,0.3705153167247772
1772649756168015600,8.064015625,0.05706649273633957,-0.019333655014634132,0.4697076678276062
1772649756178056700,8.074056640625,-0.028224702924489975,0.16723409295082092,0.6778944134712219
1772649756188097800,8.084097900390624,-0.04390701279044151,0.38047268986701965,0.8776656985282898
1772649756198138600,8.094138671875,0.013878787867724895,0.4520243704319,1.0003385543823242
1772649756208179700,8.1041796875,0.16661423444747925,0.42341554164886475,1.0998990535736084
1772649756218221600,8.1142216796875,0.36011552810668945,0.3949018716812134,1.189806580543518
1772649756228262700,8.1242626953125,0.5110072493553162,0.3698890805244446,1.1954822540283203
1772649756238303700,8.1343037109375,0.5841427445411682,0.2954753041267395,1.0887835025787354
1772649756248344600,8.144344482421875,0.5852476358413696,0.18098944425582886,0.8871291875839233
1772649756258385700,8.1543857421875,0.5775191187858582,0.017177613452076912,0.6557665467262268
1772649756268426800,8.1644267578125,0.4654737710952759,-0.08683250844478607,0.4414226710796356
1772649756278467600,8.174467529296875,0.2396201491355896,-0.1695638746023178,0.2635621130466461
1772649756288508700,8.1845087890625,-0.03529004007577896,-0.193250834941864,0.0548289455473423
1772649756298550500,8.194550537109375,-0.36195337772369385,-0.1682642698287964,-0.1725778430700302
1772649756308591600,8.204591552734374,-0.665909469127655,-0.10548140108585358,-0.34671831130981445
1772649756318632700,8.2146328125,-0.8518474102020264,-0.0860041081905365,-0.4805874228477478
1772649756328673500,8.224673583984375,-0.998590350151062,-0.18748235702514648,-0.555198609828949
1772649756338714600,8.234714599609376,-1.048891305923462,-0.22648382186889648,-0.4718629717826843
1772649756348755700,8.244755615234375,-0.9058734774589539,-0.1942019909620285,-0.1906636506319046
1772649756358796500,8.254796630859374,-0.6043328046798706,-0.14030839502811432,0.15185801684856415
1772649756368838700,8.264838623046876,-0.23472532629966736,-0.19503115117549896,0.45828258991241455
1772649756378879500,8.27487939453125,0.017652319744229317,-0.18898577988147736,0.6077969670295715
1772649756388920600,8.284920654296876,0.14216981828212738,-0.0905529260635376,0.5360903739929199
1772649756398961700,8.294961669921875,0.22796247899532318,-0.10442959517240524,0.36232948303222656
1772649756409002500,8.30500244140625,0.27509644627571106,-0.15191543102264404,0.22787348926067352
1772649756419043600,8.315043701171875,0.2807987928390503,-0.1710241436958313,0.14619380235671997
1772649756429084400,8.32508447265625,0.24584609270095825,-0.20468652248382568,0.08455740660429001
1772649756439125500,8.33512548828125,0.19722741842269897,-0.24930539727210999,0.040604330599308014
1772649756449167600,8.345167724609375,0.13944153487682343,-0.29166024923324585,-0.006616802420467138
1772649756459208400,8.35520849609375,0.07229125499725342,-0.32280218601226807,-0.06547638773918152
1772649756469249500,8.36524951171875,-0.00036127999192103744,-0.3375582993030548,-0.13236026465892792
1772649756479290400,8.375290283203125,-0.09534797817468643,-0.34876540303230286,-0.19835792481899261
1772649756489331500,8.38533154296875,-0.2314487248659134,-0.37615111470222473,-0.2807616591453552
1772649756499372500,8.39537255859375,-0.3834960460662842,-0.38602715730667114,-0.3931073546409607
1772649756509413400,8.405413330078124,-0.5001488924026489,-0.4097951650619507,-0.5198857188224792
1772649756519455700,8.415455810546876,-0.5094603896141052,-0.36722561717033386,-0.4642149806022644
1772649756529496600,8.42549658203125,-0.46205660700798035,-0.2068384885787964,-0.33384037017822266
1772649756539537700,8.43553759765625,-0.41841939091682434,-0.14578711986541748,-0.2904960811138153
1772649756549578800,8.445578857421875,-0.30835193395614624,-0.18249957263469696,-0.44958168268203735
1772649756559619600,8.45561962890625,-0.10766809433698654,-0.19571790099143982,-0.6099191904067993
1772649756569660700,8.46566064453125,0.1494319587945938,-0.09130571782588959,-0.5037538409233093
1772649756579701800,8.47570166015625,0.3309740424156189,0.12278979271650314,-0.6370463967323303
1772649756589742600,8.48574267578125,0.39495790004730225,-0.029828926548361778,-0.3479864001274109
1772649756599784700,8.49578466796875,0.4786472022533417,0.8433877825737,0.37220481038093567
1772649756609825500,8.505825439453124,0.4448316991329193,0.7744088172912598,0.7010926008224487
1772649756619866600,8.51586669921875,0.6750287413597107,0.21894963085651398,0.8305307626724243
1772649756629907700,8.52590771484375,0.888680636882782,-0.21286708116531372,0.777533233165741
1772649756639948500,8.535948486328126,0.7598549723625183,-0.34832289814949036,0.5200761556625366
1772649756649989600,8.54598974609375,0.5121087431907654,-0.35642650723457336,0.2192046046257019
1772649756660030700,8.55603076171875,0.20855899155139923,-0.4809689521789551,-0.057472798973321915
1772649756670071600,8.566071533203125,-0.14477939903736115,-0.8451904058456421,-0.345327764749527
1772649756680113700,8.57611376953125,-0.4481440782546997,-1.1789779663085938,-0.5775596499443054
1772649756690154500,8.586154541015626,-0.5791740417480469,-1.1900694370269775,-0.5648503303527832
1772649756700195600,8.596195556640625,-0.49014729261398315,-0.8592960834503174,-0.26537203788757324
1772649756710236700,8.606236572265624,-0.35728809237480164,-0.5364561676979065,0.07562347501516342
1772649756720277500,8.616277587890625,-0.24315351247787476,-0.3922787308692932,0.2737533450126648
1772649756730318600,8.626318603515625,-0.0407881885766983,-0.3040141463279724,0.3267659842967987
1772649756740359400,8.636359375,0.12206783145666122,-0.17432723939418793,0.2814863920211792
1772649756750401500,8.646401611328125,0.1494675874710083,-0.0023947679437696934,0.2646559476852417
1772649756760442400,8.6564423828125,0.09945821762084961,0.12813714146614075,0.3387879729270935
1772649756770483500,8.6664833984375,0.028100553900003433,0.13857731223106384,0.47502779960632324
1772649756780524500,8.676524658203125,-0.018840322270989418,0.10040915012359619,0.572330117225647
1772649756790565400,8.6865654296875,0.009812512435019016,0.04065684229135513,0.5619323253631592
1772649756800606500,8.6966064453125,0.06606273353099823,0.009266693145036697,0.47653728723526
1772649756810647600,8.7066474609375,0.08175837993621826,-0.02219446562230587,0.31800925731658936
1772649756820688400,8.7166884765625,0.10077894479036331,-0.02466374821960926,0.1711266189813614
1772649756830730800,8.726730712890625,0.1825139820575714,0.006532328203320503,0.11753860116004944
1772649756840771600,8.736771484375,0.2980530858039856,0.04682169482111931,0.16682837903499603
1772649756850812700,8.746812744140625,0.4061688482761383,0.07284262031316757,0.2900582551956177
1772649756860853800,8.756853759765624,0.5191065669059753,0.15281975269317627,0.44604119658470154
1772649756870894600,8.76689453125,0.5971527695655823,0.2352456897497177,0.5274028182029724
1772649756880935700,8.776935791015624,0.5924240946769714,0.26840338110923767,0.47559502720832825
1772649756890976800,8.786976806640626,0.4866061508655548,0.22648632526397705,0.2725895941257477
1772649756901018600,8.7970185546875,0.28572389483451843,0.10825740545988083,-0.04183729737997055
1772649756911059700,8.807059814453124,0.04132198914885521,-0.006174135021865368,-0.3533690273761749
1772649756921100500,8.8171005859375,-0.1712549924850464,-0.05550413578748703,-0.6249371767044067
1772649756931141600,8.8271416015625,-0.3543831408023834,-0.06677104532718658,-0.88285231590271
1772649756941182700,8.8371826171875,-0.496305912733078,-0.10581298172473907,-1.0810511112213135
1772649756951223600,8.8472236328125,-0.5459796190261841,-0.1546613723039627,-1.1312772035598755
1772649756961264600,8.8572646484375,-0.5909109115600586,-0.18614579737186432,-1.0118789672851562
1772649756971305700,8.8673056640625,-0.6629642844200134,-0.2227056473493576,-0.832599401473999
1772649756981347600,8.87734765625,-0.6356444954872131,-0.2469518631696701,-0.6316490173339844
1772649756991388700,8.887388671875,-0.478220671415329,-0.2347768247127533,-0.4433439075946808
1772649757001429500,8.897429443359375,-0.27970489859580994,-0.15883837640285492,-0.29848232865333557
1772649757011470600,8.907470703125,-0.09139648079872131,-0.07027113437652588,-0.20419351756572723
1772649757021511700,8.91751171875,0.04269873723387718,-0.009469572454690933,-0.1540219634771347
1772649757031552500,8.927552490234374,0.13051572442054749,0.05703171342611313,-0.1579935997724533
1772649757041593600,8.937593505859375,0.20910267531871796,0.14137853682041168,-0.18558262288570404
1772649757051634400,8.947634521484375,0.23345191776752472,0.1715548038482666,-0.21586988866329193
1772649757061676500,8.957676513671874,0.2347715049982071,0.16899444162845612,-0.2339245229959488
1772649757071717400,8.96771728515625,0.22982639074325562,0.16463862359523773,-0.22993816435337067
1772649757081758500,8.977758544921874,0.20748698711395264,0.1744377166032791,-0.24088110029697418
1772649757091799600,8.987799560546875,0.11944282054901123,0.16412495076656342,-0.23210637271404266
1772649757101840400,8.99784033203125,0.01617981120944023,0.14978063106536865,-0.18587523698806763
1772649757111881500,9.007881591796876,-0.020006859675049782,0.07827035337686539,-0.10851062089204788
1772649757121922600,9.017922607421875,0.056928399950265884,0.034105025231838226,-0.06440653651952744
1772649757131963400,9.02796337890625,0.12231449782848358,-0.09098199754953384,-0.039917267858982086
1772649757142005800,9.038005859375,0.16031992435455322,-0.21485626697540283,0.009777583181858063
1772649757152046600,9.048046630859375,0.18638865649700165,-0.4016822278499603,0.007392507046461105
1772649757162087700,9.058087646484376,0.12366800755262375,-0.7890241146087646,-0.10333693027496338
1772649757172128800,9.068128662109375,-0.06786740571260452,-1.2796752452850342,-0.5831829905509949
1772649757182169600,9.078169677734374,0.1984630823135376,-1.4645891189575195,-0.5323392748832703
1772649757192210700,9.088210693359375,0.7963637709617615,-0.5348267555236816,0.1922960728406906
1772649757202251800,9.098251708984375,0.9569627642631531,0.21066395938396454,0.42795678973197937
1772649757212293600,9.108293701171876,0.9380242228507996,0.4178154766559601,0.46111729741096497
1772649757222334700,9.118334716796875,1.0639121532440186,-0.04544965550303459,0.6131292581558228
1772649757232375600,9.12837548828125,0.8938279747962952,-0.6300504803657532,0.6418268084526062
1772649757242416600,9.138416748046875,0.3996959924697876,-0.9088134169578552,0.5026928782463074
1772649757252457700,9.148457763671875,-0.021979082375764847,-0.8682602047920227,0.4370402991771698
1772649757262498600,9.15849853515625,-0.35368242859840393,-0.7033641934394836,0.2897499203681946
1772649757272539600,9.16853955078125,-0.4586549997329712,-0.4456959366798401,0.12026470899581909
1772649757282580700,9.178580810546874,-0.4148545265197754,-0.1707032173871994,0.10223004221916199
1772649757292622600,9.18862255859375,-0.29000797867774963,0.09226597845554352,0.2724217474460602
1772649757302663700,9.19866357421875,-0.10881900042295456,0.20055755972862244,0.40739765763282776
1772649757312704500,9.20870458984375,0.04185279831290245,0.16649653017520905,0.4616798162460327
1772649757322745600,9.21874560546875,0.14024728536605835,0.14892393350601196,0.538840115070343
1772649757332786700,9.22878662109375,0.19190068542957306,0.11721956729888916,0.6121587157249451
1772649757342828000,9.238828125,0.1551235020160675,0.05164188891649246,0.593497097492218
1772649757352869000,9.248869140625,0.05618257448077202,-0.010939989238977432,0.516750693321228
1772649757362910000,9.258909912109376,-0.06348683685064316,-0.029772266745567322,0.45869961380958557
1772649757372952000,9.2689521484375,-0.13689687848091125,-0.061327092349529266,0.4647018015384674
1772649757382993000,9.278992919921874,-0.14964090287685394,-0.11920051276683807,0.5289769768714905
1772649757393034000,9.289033935546875,-0.09391948580741882,-0.09562360495328903,0.6677596569061279
1772649757403075000,9.299074951171875,-0.017448142170906067,0.017003344371914864,0.7929692268371582
1772649757413116000,9.309115966796876,0.1403656154870987,0.08610976487398148,0.9225047826766968
1772649757426922000,9.322921875,0.35739782452583313,0.1393578052520752,1.1077699661254883
1772649757436963000,9.332963134765626,0.4216477870941162,0.14947015047073364,1.138529658317566
1772649757447004200,9.343004150390625,0.40757083892822266,0.12157486379146576,1.080981969833374
1772649757457046000,9.3530458984375,0.33909910917282104,0.0914192795753479,0.9567237496376038
1772649757467087000,9.363087158203125,0.2576039731502533,0.10959775000810623,0.7826683521270752
1772649757477128000,9.3731279296875,0.16505610942840576,0.18702280521392822,0.5889499187469482
1772649757487169000,9.3831689453125,0.013514786027371883,0.3621126115322113,0.38281354308128357
1772649757497210000,9.393210205078125,-0.07869143038988113,0.601285994052887,0.7384857535362244
1772649757507251000,9.4032509765625,-0.04179546982049942,0.643196702003479,0.7297191619873047
1772649757517292000,9.4132919921875,-0.053609587252140045,0.7229476571083069,0.30924299359321594
1772649757527334000,9.423333984375,-0.15547044575214386,0.6896341443061829,-0.009036459028720856
1772649757537375000,9.433375,-0.2626771628856659,0.5364340543746948,-0.35722723603248596
1772649757547416000,9.443416015625,-0.3293938636779785,0.48788145184516907,-0.5786610841751099
1772649757557457000,9.453456787109374,-0.35001543164253235,0.4460144639015198,-0.6611848473548889
1772649757567498000,9.463498046875,-0.4160495698451996,0.4367634356021881,-0.530580997467041
1772649757577539000,9.4735390625,-0.4957418739795685,0.30155184864997864,-0.3139649033546448
