time,seconds_elapsed,z,y,x
1772642867114879000,0.35387890625,-0.021524250507354736,-0.10125160217285156,0.0026096701622009277
1772642867134888400,0.373888427734375,-0.012980103492736816,-0.07703876495361328,0.017030298709869385
1772642867154898200,0.393898193359375,0.0008002519607543945,-0.10512638092041016,0.003007173538208008
1772642867174907600,0.41390771484375,0.005994737148284912,-0.12116432189941406,-0.006466805934906006
1772642867194917000,0.433917236328125,0.04133981466293335,-0.10639667510986328,0.013310134410858154
1772642867214926800,0.4539267578125,0.04605227708816528,-0.10127639770507812,0.013196587562561035
1772642867234936300,0.473936279296875,0.012014567852020264,-0.0986480712890625,0.021582305431365967
1772642867254946000,0.493946044921875,0.00682908296585083,-0.12238693237304688,0.019619107246398926
1772642867274955500,0.51395556640625,0.04489082098007202,-0.13413524627685547,0.02039182186126709
1772642867294965000,0.533965087890625,0.036513686180114746,-0.11484050750732422,-0.007879376411437988
1772642867314974700,0.553974609375,0.02342391014099121,-0.10274219512939453,-0.029564738273620605
1772642867334984200,0.573984130859375,0.04383385181427002,-0.10266876220703125,-0.04012992978096008
1772642867354993700,0.59399365234375,0.030776143074035645,-0.13858985900878906,-0.048105329275131226
1772642867375003400,0.61400341796875,0.024359464645385742,-0.14104843139648438,-0.05661049485206604
1772642867395012900,0.634012939453125,0.02748847007751465,-0.09556007385253906,-0.03670156002044678
1772642867415022300,0.654022216796875,0.03868365287780762,-0.07629776000976562,-0.05660182237625122
1772642867435032000,0.674031982421875,0.08560484647750854,-0.10252761840820312,-0.03314089775085449
1772642867455041500,0.69404150390625,0.03737187385559082,-0.10475349426269531,-0.04244622588157654
1772642867475051300,0.71405126953125,0.05835843086242676,-0.10695171356201172,-0.012946784496307373
1772642867495060700,0.734060791015625,0.018848955631256104,-0.1259469985961914,-0.019021034240722656
1772642867515070200,0.7540703125,0.029274046421051025,-0.11145973205566406,-0.023027896881103516
1772642867535080000,0.774079833984375,0.03271764516830444,-0.12095260620117188,-0.02546638250350952
1772642867555089400,0.79408935546875,0.03941524028778076,-0.1377696990966797,-0.023154795169830322
1772642867575098400,0.814098388671875,0.009712576866149902,-0.1282825469970703,-0.030571043491363525
1772642867595107600,0.834107666015625,0.028092920780181885,-0.11638450622558594,-0.006801903247833252
1772642867615116500,0.854116455078125,0.027619600296020508,-0.1002960205078125,0.026550769805908203
1772642867635125500,0.87412548828125,0.020392239093780518,-0.10754585266113281,0.04225081205368042
1772642867655134500,0.894134521484375,-0.006406188011169434,-0.09085559844970703,0.043912410736083984
1772642867675143700,0.914143798828125,-0.0016995072364807129,-0.10524368286132812,0.03180551528930664
1772642867695152600,0.934152587890625,-0.016554415225982666,-0.11005687713623047,0.03936183452606201
1772642867715161600,0.95416162109375,-0.006854116916656494,-0.11002635955810547,0.04927206039428711
1772642867735170800,0.9741708984375,-0.018307924270629883,-0.10994625091552734,0.052331507205963135
1772642867755179800,0.9941796875,-0.024358808994293213,-0.11222553253173828,0.050289809703826904
1772642867775188700,1.014188720703125,-0.04882758855819702,-0.09055614471435547,0.038280487060546875
1772642867795197700,1.03419775390625,-0.009950399398803711,-0.09763145446777344,0.01692909002304077
1772642867815207000,1.05420703125,-0.030153334140777588,-0.12868213653564453,0.02458244562149048
1772642867835216000,1.0742158203125,0.0035275816917419434,-0.11901187896728516,0.010666429996490479
1772642867855224800,1.094224853515625,0.012074053287506104,-0.09490394592285156,-0.0009624361991882324
1772642867875233800,1.11423388671875,-0.000539243221282959,-0.10195350646972656,0.009150981903076172
1772642867895243000,1.134242919921875,-0.015279173851013184,-0.09456634521484375,-0.002618849277496338
1772642867915252000,1.154251953125,0.0004311203956604004,-0.106353759765625,0.02256155014038086
1772642867935261000,1.174260986328125,-0.012544751167297363,-0.11578941345214844,0.025948762893676758
1772642867955270000,1.194269775390625,-0.006649315357208252,-0.1082010269165039,-0.005335807800292969
1772642867975279000,1.214279052734375,0.012850701808929443,-0.11983203887939453,-0.005774378776550293
1772642867995288000,1.2342880859375,0.013017654418945312,-0.12462615966796875,-0.013280987739562988
1772642868015297000,1.254297119140625,0.006060421466827393,-0.10787391662597656,-0.006769895553588867
1772642868035306000,1.274305908203125,0.013435423374176025,-0.10312747955322266,-0.0198594331741333
1772642868055315200,1.294315185546875,0.011506617069244385,-0.10793876647949219,-0.023336350917816162
1772642868075324400,1.314324462890625,-0.00037109851837158203,-0.11754226684570312,-0.026262104511260986
1772642868095334000,1.334333984375,0.03991341590881348,-0.11998844146728516,-0.03401261568069458
1772642868115343000,1.354343017578125,0.008188724517822266,-0.1128702163696289,-0.04632449150085449
1772642868135352600,1.3743525390625,0.012331485748291016,-0.12013530731201172,-0.04462870955467224
1772642868155361800,1.39436181640625,-0.021759212017059326,-0.09625816345214844,-0.04999262094497681
1772642868175371300,1.414371337890625,-0.009984374046325684,-0.09151363372802734,-0.03795546293258667
1772642868195380500,1.43438037109375,0.01108628511428833,-0.113128662109375,-0.028606057167053223
1772642868215390000,1.454389892578125,-0.008737683296203613,-0.12515544891357422,-0.0045737624168396
1772642868235399200,1.474399169921875,-0.007323086261749268,-0.11087226867675781,0.009726285934448242
1772642868255408600,1.49440869140625,-0.01537400484085083,-0.10138225555419922,0.01656484603881836
1772642868275417900,1.51441796875,-0.005433619022369385,-0.1157379150390625,0.03548312187194824
1772642868295427300,1.53442724609375,-0.014625251293182373,-0.09171772003173828,0.02647244930267334
1772642868315436500,1.5544365234375,-0.007451415061950684,-0.10364532470703125,0.027411818504333496
1772642868335446000,1.574446044921875,-0.000399172306060791,-0.08923530578613281,0.028271913528442383
1772642868355455200,1.594455322265625,0.0022884011268615723,-0.1011810302734375,0.028412580490112305
1772642868375464400,1.61446435546875,-0.00008779764175415039,-0.1347513198852539,0.008294999599456787
1772642868395474000,1.634473876953125,0.006416022777557373,-0.1300525665283203,0.0005144476890563965
1772642868415483100,1.654483154296875,-0.001841127872467041,-0.12061309814453125,0.006732046604156494
1772642868435492600,1.67449267578125,-0.0024489164352416992,-0.09918689727783203,-0.006992042064666748
1772642868455501800,1.694501708984375,0.03476297855377197,-0.10892105102539062,-0.0161287784576416
1772642868475511300,1.71451123046875,-0.029937326908111572,-0.1114664077758789,-0.005870163440704346
1772642868495520500,1.7345205078125,-0.021316707134246826,-0.09961414337158203,-0.004272818565368652
1772642868515530000,1.754530029296875,0.011056900024414062,-0.068572998046875,-0.014777421951293945
1772642868535539200,1.774539306640625,0.001554250717163086,-0.09737396240234375,-0.013482153415679932
1772642868555548700,1.794548583984375,-0.016645610332489014,-0.14286041259765625,-0.011591851711273193
1772642868575559400,1.814559326171875,-0.014784932136535645,-0.10454273223876953,-0.011450052261352539
1772642868595570000,1.83456982421875,-0.005404114723205566,-0.1524953842163086,-0.009466171264648438
1772642868615580700,1.85458056640625,-0.00109940767288208,-0.09029102325439453,-0.0029735565185546875
1772642868635591400,1.87459130859375,0.022617340087890625,-0.09755134582519531,-0.018273472785949707
1772642868655602000,1.894601806640625,0.030189216136932373,-0.12394523620605469,-0.01008903980255127
1772642868675612700,1.91461279296875,0.013301193714141846,-0.1192169189453125,0.032115936279296875
1772642868695623400,1.93462353515625,0.03060734272003174,-0.11462974548339844,-0.019550800323486328
1772642868715634200,1.95463427734375,0.004865705966949463,-0.09807300567626953,-0.037365496158599854
1772642868735644700,1.974644775390625,0.006303727626800537,-0.08380508422851562,-0.040153563022613525
1772642868755655400,1.994655517578125,0.02052372694015503,-0.12427043914794922,-0.030020713806152344
1772642868775666200,2.014666259765625,0.025328457355499268,-0.06228828430175781,-0.017009437084197998
1772642868795676700,2.0346767578125,0.027080178260803223,-0.09106159210205078,-0.009344100952148438
1772642868815687400,2.0546875,0.01315230131149292,-0.10778045654296875,-0.009135961532592773
1772642868835698200,2.0746982421875,0.03302997350692749,-0.1148824691772461,0.008054256439208984
1772642868855708700,2.094708740234375,-0.024748802185058594,-0.14119815826416016,0.02406620979309082
1772642868875719400,2.114719482421875,0.000867009162902832,-0.12443733215332031,-0.011486589908599854
1772642868895730200,2.134730224609375,-0.0055879950523376465,-0.09130001068115234,-0.017901241779327393
1772642868915740700,2.15474072265625,-0.0015218257904052734,-0.07005882263183594,-0.004805445671081543
1772642868935751400,2.17475146484375,0.0008912086486816406,-0.09873485565185547,0.01825547218322754
1772642868955762200,2.19476220703125,0.008368492126464844,-0.11988162994384766,0.01950228214263916
1772642868975773000,2.21477294921875,0.011883735656738281,-0.1170358657836914,0.012994647026062012
1772642868995783400,2.234783447265625,0.014814496040344238,-0.08345413208007812,0.005781054496765137
1772642869015794200,2.254794189453125,0.01579970121383667,-0.11214733123779297,0.03187060356140137
1772642869035805000,2.274804931640625,0.0023142099380493164,-0.1576385498046875,0.04317444562911987
1772642869055815400,2.2948154296875,-0.009615838527679443,-0.11933708190917969,0.05221843719482422
1772642869075826000,2.314825927734375,0.008749246597290039,-0.10263347625732422,0.05944108963012695
1772642869095836200,2.334836181640625,0.03462064266204834,-0.10270023345947266,0.022808730602264404
1772642869115846400,2.354846435546875,0.032286226749420166,-0.07637786865234375,-0.00921553373336792
1772642869135856600,2.374856689453125,-0.0004715919494628906,-0.07395172119140625,0.007180392742156982
1772642869155867100,2.3948671875,-0.023520350456237793,-0.10741043090820312,0.008675217628479004
1772642869175877400,2.41487744140625,-0.020267009735107422,-0.12168025970458984,-0.00757211446762085
1772642869195887600,2.4348876953125,-0.018208444118499756,-0.08568477630615234,-0.01162576675415039
1772642869215898000,2.454898193359375,0.018600523471832275,-0.08318042755126953,-0.027782738208770752
1772642869235908400,2.474908447265625,0.02046811580657959,-0.0997467041015625,-0.01270681619644165
1772642869255918600,2.494918701171875,-0.013810992240905762,-0.11875057220458984,0.009651601314544678
1772642869275928800,2.5149287109375,-0.03042590618133545,-0.15223217010498047,0.017131507396697998
1772642869295939300,2.534939208984375,-0.014557480812072754,-0.1355457305908203,-0.019163846969604492
1772642869315949600,2.554949462890625,-0.015367865562438965,-0.09730720520019531,-0.03423053026199341
1772642869335959800,2.574959716796875,0.0032979249954223633,-0.10218524932861328,-0.00863426923751831
1772642869355970000,2.594969970703125,-0.010456264019012451,-0.07584381103515625,-0.02113896608352661
1772642869375980500,2.61498046875,0.015631496906280518,-0.126220703125,-0.010046780109405518
1772642869395990800,2.63499072265625,-0.004553318023681641,-0.1335287094116211,-0.013018250465393066
1772642869416001300,2.655001220703125,0.0032917261123657227,-0.10012054443359375,-0.010292410850524902
1772642869436011500,2.675011474609375,-0.021639704704284668,-0.08583450317382812,-0.024233758449554443
1772642869456021800,2.695021728515625,0.0112229585647583,-0.0882272720336914,-0.03801870346069336
1772642869476032000,2.715031982421875,0.013944149017333984,-0.09296321868896484,-0.025507748126983643
1772642869496042500,2.73504248046875,0.011349856853485107,-0.09535408020019531,-0.03711295127868652
1772642869516052700,2.755052734375,0.020782113075256348,-0.097747802734375,-0.03448677062988281
1772642869536063000,2.77506298828125,-0.02275139093399048,-0.11934471130371094,-0.005747795104980469
1772642869556073200,2.7950732421875,-0.03229701519012451,-0.10911846160888672,-0.010400056838989258
1772642869576082200,2.815082275390625,-0.039571166038513184,-0.09469032287597656,0.0027056336402893066
1772642869596091100,2.835091064453125,-0.02297794818878174,-0.08746719360351562,-0.0035229921340942383
1772642869616100000,2.85510009765625,-0.02997225522994995,-0.09703826904296875,-0.0012369155883789062
1772642869636109000,2.875109130859375,-0.026775717735290527,-0.10178089141845703,0.003174006938934326
1772642869656118300,2.8951181640625,-0.056528568267822266,-0.11366653442382812,0.005083024501800537
1772642869676127200,2.915127197265625,-0.06552284955978394,-0.13036537170410156,0.014995217323303223
1772642869696136200,2.93513623046875,-0.041504085063934326,-0.12549591064453125,0.011546492576599121
1772642869716145200,2.955145263671875,-0.021870195865631104,-0.07506847381591797,-0.012028038501739502
1772642869736154000,2.975154052734375,0.02494877576828003,-0.08208465576171875,-0.018586456775665283
1772642869756163000,2.9951630859375,-0.00574260950088501,-0.11121177673339844,0.004613518714904785
1772642869776172300,3.01517236328125,0.010294616222381592,-0.11820125579833984,0.010385334491729736
1772642869796181200,3.03518115234375,-0.0081101655960083,-0.1564350128173828,0.02128380537033081
1772642869816190200,3.055190185546875,-0.022342264652252197,-0.1659708023071289,0.01247483491897583
1772642869836199200,3.07519921875,0.02223736047744751,-0.1492023468017578,0.006557881832122803
1772642869856208100,3.0952080078125,0.022426187992095947,-0.11565685272216797,-0.019760847091674805
1772642869876217000,3.115217041015625,0.03613859415054321,-0.09172725677490234,-0.007364094257354736
1772642869896226300,3.135226318359375,0.03142285346984863,-0.11328315734863281,-0.014346182346343994
1772642869916235300,3.1552353515625,0.029472649097442627,-0.09651851654052734,-0.029291272163391113
1772642869936244200,3.175244140625,-0.011354327201843262,-0.10135936737060547,-0.017789781093597412
1772642869956253200,3.195253173828125,-0.024163484573364258,-0.12302398681640625,-0.002690613269805908
1772642869976262100,3.21526220703125,-0.02273958921432495,-0.10396671295166016,-0.008364498615264893
1772642869996271000,3.23527099609375,0.006034135818481445,-0.080047607421875,-0.02101433277130127
1772642870016280000,3.255280029296875,0.01622593402862549,-0.10400772094726562,-0.010085046291351318
1772642870036289300,3.275289306640625,0.00557863712310791,-0.11854076385498047,0.007835090160369873
1772642870056298200,3.29529833984375,-0.033326566219329834,-0.13782691955566406,-0.002597033977508545
1772642870076307000,3.315306884765625,0.0073795318603515625,-0.0922994613647461,-0.0219576358795166
1772642870096316000,3.33531591796875,0.013344347476959229,-0.10659027099609375,-0.007895231246948242
1772642870116324600,3.35532470703125,0.014305353164672852,-0.10653877258300781,-0.010847687721252441
1772642870136333300,3.375333251953125,0.025500595569610596,-0.1329813003540039,-0.03049534559249878
1772642870156342300,3.39534228515625,0.008897364139556885,-0.11885643005371094,-0.05815833806991577
1772642870176351000,3.41535107421875,-0.027042806148529053,-0.09995079040527344,-0.025267720222473145
1772642870196359700,3.435359619140625,0.01922827959060669,-0.08336639404296875,-0.030819714069366455
1772642870216368600,3.45536865234375,0.026174485683441162,-0.09065628051757812,-0.0155409574508667
1772642870236377300,3.47537744140625,0.004181861877441406,-0.10515213012695312,-0.0050691962242126465
1772642870256386000,3.495385986328125,0.01053476333618164,-0.1076812744140625,0.008214592933654785
1772642870276395000,3.51539501953125,-0.004725396633148193,-0.07665634155273438,0.014692962169647217
1772642870296403700,3.53540380859375,-0.017946243286132812,-0.06723594665527344,0.028093159198760986
1772642870316412700,3.55541259765625,-0.03554952144622803,-0.08652400970458984,0.060745179653167725
1772642870336421400,3.57542138671875,-0.004687488079071045,-0.13930225372314453,0.06011319160461426
1772642870356430000,3.59543017578125,0.009018778800964355,-0.14659881591796875,0.05468785762786865
1772642870376439000,3.61543896484375,0.02215111255645752,-0.12039375305175781,0.051599740982055664
1772642870396447700,3.63544775390625,-0.002695322036743164,-0.09177303314208984,0.038497865200042725
1772642870416456700,3.655456787109375,-0.013099968433380127,-0.12305450439453125,0.03758639097213745
1772642870436465400,3.67546533203125,-0.020145773887634277,-0.11353015899658203,0.02411174774169922
1772642870456474000,3.69547412109375,0.003863096237182617,-0.09684944152832031,0.029682576656341553
1772642870476483000,3.715483154296875,0.010746002197265625,-0.12332439422607422,0.027972817420959473
1772642870496491800,3.73549169921875,0.0019843578338623047,-0.1378793716430664,0.03709989786148071
1772642870516500500,3.75550048828125,-0.01379173994064331,-0.09250545501708984,-0.0016959309577941895
1772642870536509400,3.775509521484375,0.0021365880966186523,-0.09254741668701172,-0.027943551540374756
1772642870556518100,3.79551806640625,0.0001138448715209961,-0.0973215103149414,-0.021063268184661865
1772642870576528000,3.81552783203125,-0.009744644165039062,-0.1261272430419922,-0.031243622303009033
1772642870596537300,3.835537353515625,-0.060735464096069336,-0.10466194152832031,-0.014609754085540771
1772642870616546800,3.855546875,-0.05447494983673096,-0.09274673461914062,-0.02387535572052002
1772642870636556300,3.875556396484375,-0.017024099826812744,-0.10718727111816406,-0.04571032524108887
1772642870656566000,3.89556591796875,-0.03179788589477539,-0.12402915954589844,-0.022444069385528564
1772642870676575500,3.915575439453125,-0.0009101033210754395,-0.090545654296875,-0.025399386882781982
1772642870696585000,3.9355849609375,-0.008392095565795898,-0.08582401275634766,-0.004559636116027832
1772642870716594400,3.955594482421875,0.024845778942108154,-0.08349418640136719,-0.0004246830940246582
1772642870736604000,3.97560400390625,0.025046944618225098,-0.1026906967163086,0.005874991416931152
1772642870756613600,3.995613525390625,0.03282243013381958,-0.12903594970703125,0.03620082139968872
1772642870776623000,4.015623046875,-0.010344982147216797,-0.14046001434326172,0.03312647342681885
1772642870796632600,4.035632568359375,0.00138777494430542,-0.13331031799316406,0.006506085395812988
1772642870816642000,4.05564208984375,0.0697823166847229,-0.09294319152832031,-0.01592344045639038
1772642870836651500,4.075651611328125,0.0483853816986084,-0.09985733032226562,-0.03580707311630249
1772642870856661000,4.095660888671875,0.055272698402404785,-0.09755897521972656,-0.027424097061157227
1772642870876670700,4.115670654296875,0.01204216480255127,-0.11926841735839844,-0.03849172592163086
1772642870896680200,4.13568017578125,0.020406246185302734,-0.11222171783447266,-0.039948344230651855
1772642870916689700,4.155689697265625,0.0554804801940918,-0.10037803649902344,-0.016990482807159424
1772642870936699100,4.17569921875,0.04084700345993042,-0.09805774688720703,-0.04422980546951294
1772642870956708600,4.19570849609375,0.010686159133911133,-0.10557270050048828,-0.03327631950378418
1772642870976718300,4.21571826171875,-0.022368669509887695,-0.10320091247558594,-0.03442734479904175
1772642870996727800,4.235727783203125,0.006562173366546631,-0.1148977279663086,-0.03261655569076538
1772642871016737300,4.2557373046875,0.015864551067352295,-0.1197957992553711,0.0001373291015625
1772642871036746800,4.275746826171875,0.03011453151702881,-0.12705516815185547,0.005843818187713623
1772642871056756500,4.295756591796875,-0.010473668575286865,-0.12716007232666016,-0.0028578639030456543
1772642871076766700,4.3157666015625,-0.006297647953033447,-0.0985250473022461,-0.011295080184936523
1772642871096777000,4.33577685546875,0.004998326301574707,-0.08904838562011719,-0.024302542209625244
1772642871116787500,4.355787353515625,-0.0015510320663452148,-0.0962514877319336,-0.010860800743103027
1772642871136797700,4.375797607421875,-0.010628938674926758,-0.09146881103515625,-0.011738777160644531
1772642871156808000,4.395807861328125,-0.00831073522567749,-0.1327829360961914,0.01754671335220337
1772642871176818200,4.415818115234375,-0.001725316047668457,-0.12564563751220703,0.012815475463867188
1772642871196828700,4.43582861328125,-0.006239175796508789,-0.08253955841064453,-0.006935715675354004
1772642871216839000,4.4558388671875,0.008449852466583252,-0.10414695739746094,-0.0010251998901367188
1772642871236849200,4.47584912109375,0.006479144096374512,-0.10418033599853516,-0.002197861671447754
1772642871256859600,4.495859619140625,-0.012483596801757812,-0.11380290985107422,0.011229276657104492
1772642871276870000,4.515869873046875,-0.008091747760772705,-0.1115121841430664,-0.004289984703063965
1772642871296880000,4.535880126953125,-0.025382816791534424,-0.12842369079589844,0.030021369457244873
1772642871316890400,4.555890380859375,-0.030940592288970947,-0.11903667449951172,0.01596677303314209
1772642871336900900,4.57590087890625,-0.04612851142883301,-0.08809947967529297,0.03059709072113037
1772642871356911000,4.5959111328125,-0.015700995922088623,-0.10745811462402344,0.03862398862838745
1772642871376921300,4.61592138671875,-0.041803836822509766,-0.11716747283935547,0.0270613431930542
1772642871396931600,4.635931640625,-0.012659609317779541,-0.10045623779296875,0.020772993564605713
1772642871416942000,4.655942138671875,-0.03331899642944336,-0.10526371002197266,0.005267798900604248
1772642871436952300,4.675952392578125,-0.02753525972366333,-0.08608055114746094,0.006575345993041992
1772642871456962600,4.695962646484375,-0.022380828857421875,-0.10767173767089844,-0.006437540054321289
1772642871476973000,4.71597314453125,-0.026726841926574707,-0.09811115264892578,-0.014627158641815186
1772642871496983300,4.7359833984375,-0.02037990093231201,-0.10523414611816406,0.010557472705841064
1772642871516993500,4.75599365234375,-0.02172321081161499,-0.11480426788330078,0.014376997947692871
1772642871537003800,4.776003662109375,-0.04552501440048218,-0.13885498046875,0.017728745937347412
1772642871557014300,4.79601416015625,-0.07527828216552734,-0.12943649291992188,0.01832348108291626
1772642871577024800,4.816024658203125,-0.03119337558746338,-0.09603500366210938,0.007740497589111328
1772642871597035500,4.836035400390625,0.021648943424224854,-0.07213211059570312,-0.007618248462677002
1772642871617046000,4.8560458984375,0.06506192684173584,-0.10328865051269531,-0.04005616903305054
1772642871637056800,4.876056884765625,0.010486006736755371,-0.13684940338134766,-0.00939023494720459
1772642871657067300,4.8960673828125,-0.06313258409500122,-0.11531734466552734,-0.0003178715705871582
1772642871677078000,4.916078125,-0.03354710340499878,-0.1154184341430664,-0.008069217205047607
1772642871697088500,4.936088623046875,-0.01759970188140869,-0.12272453308105469,-0.0013142824172973633
1772642871717099300,4.956099365234375,0.029623448848724365,-0.12283706665039062,0.0026575326919555664
1772642871737109800,4.97610986328125,-0.007188141345977783,-0.09419631958007812,0.011799991130828857
1772642871757120500,4.99612060546875,-0.04182702302932739,-0.10392379760742188,0.017634153366088867
1772642871777131000,5.016131103515625,-0.014167964458465576,-0.06810855865478516,-0.01145482063293457
1772642871797141800,5.036141845703125,0.00005227327346801758,-0.07049846649169922,0.020007669925689697
1772642871817152300,5.05615234375,0.01482391357421875,-0.11532878875732422,0.0251389741897583
1772642871837163000,5.0761630859375,-0.0012091994285583496,-0.12002849578857422,0.01879251003265381
1772642871857173500,5.096173583984375,0.0005948543548583984,-0.1200103759765625,0.003126978874206543
1772642871877184300,5.116184326171875,-0.009406566619873047,-0.08403968811035156,-0.0028696060180664062
1772642871897194800,5.13619482421875,0.012593865394592285,-0.09585094451904297,-0.010849714279174805
1772642871917205500,5.15620556640625,0.004100918769836426,-0.11717796325683594,-0.009403109550476074
1772642871937216000,5.176216064453125,0.007886290550231934,-0.11935615539550781,0.013969182968139648
1772642871957226800,5.196226806640625,-0.0465356707572937,-0.09773063659667969,0.019685685634613037
1772642871977237200,5.2162373046875,-0.021377086639404297,-0.12181663513183594,0.004617273807525635
1772642871997248000,5.236248046875,-0.017964303493499756,-0.11478328704833984,0.0009713172912597656
1772642872017258500,5.256258544921875,-0.014785587787628174,-0.08859539031982422,0.020027101039886475
1772642872037269200,5.276269287109375,0.01737290620803833,-0.11508941650390625,0.014281511306762695
1772642872057279500,5.296279541015625,0.006706595420837402,-0.08165740966796875,0.009320974349975586
1772642872077288700,5.316288818359375,0.00759965181350708,-0.07463741302490234,0.03547036647796631
1772642872097298200,5.336298095703125,0.009327709674835205,-0.11304378509521484,0.025247573852539062
1772642872117307400,5.356307373046875,-0.026739537715911865,-0.08906936645507812,0.02818387746810913
1772642872137316600,5.376316650390625,-0.009244680404663086,-0.05297279357910156,0.01777416467666626
1772642872157326000,5.396326171875,0.019041478633880615,-0.09168148040771484,0.018150746822357178
1772642872177335300,5.416335205078125,0.0010719895362854004,-0.15860366821289062,0.01723533868789673
1772642872197344800,5.4363447265625,-0.0024077296257019043,-0.12966632843017578,0.00927191972732544
1772642872217354000,5.45635400390625,0.004992425441741943,-0.13912487030029297,0.008827686309814453
1772642872237363500,5.476363525390625,0.004870474338531494,-0.13667964935302734,0.007442653179168701
1772642872257372700,5.49637255859375,0.02405160665512085,-0.10786628723144531,-0.01785600185394287
1772642872277382000,5.5163818359375,0.007294952869415283,-0.11529350280761719,-0.004929602146148682
1772642872297391400,5.536391357421875,0.03882288932800293,-0.08196640014648438,-0.018430113792419434
1772642872317400600,5.556400634765625,0.011910736560821533,-0.12031364440917969,0.01082146167755127
1772642872337409800,5.576409912109375,-0.0008127093315124512,-0.09396743774414062,0.014528810977935791
1772642872357419300,5.596419189453125,-0.018725454807281494,-0.09574222564697266,0.01953059434890747
1772642872377428500,5.616428466796875,-0.02159518003463745,-0.09810161590576172,0.011212348937988281
1772642872397438000,5.63643798828125,-0.03145778179168701,-0.08846282958984375,0.0026775598526000977
1772642872417447200,5.656447265625,-0.0004343390464782715,-0.10994338989257812,-0.0054451823234558105
1772642872437456400,5.676456298828125,-0.007371664047241211,-0.061913490295410156,-0.0013963580131530762
1772642872457465900,5.6964658203125,0.0010271668434143066,-0.10481071472167969,0.005202829837799072
1772642872477475000,5.71647509765625,0.004998505115509033,-0.13571739196777344,0.009217679500579834
1772642872497484300,5.736484375,-0.018016397953033447,-0.10677719116210938,0.020604372024536133
1772642872517493800,5.75649365234375,-0.005539059638977051,-0.10664844512939453,0.041491687297821045
1772642872537503000,5.7765029296875,0.007332742214202881,-0.11126708984375,0.013721466064453125
1772642872557512200,5.79651220703125,0.03329366445541382,-0.14456462860107422,0.03209906816482544
1772642872577521200,5.816521240234375,0.0019286870956420898,-0.1587848663330078,0.010371983051300049
1772642872597530000,5.836530029296875,-0.02362722158432007,-0.17315006256103516,0.012161076068878174
1772642872617539000,5.8565390625,-0.05499529838562012,-0.11339950561523438,-0.011335134506225586
1772642872637548000,5.876548095703125,-0.06038010120391846,-0.09204959869384766,-0.03311765193939209
1772642872657557000,5.896556884765625,-0.015308916568756104,-0.08984375,-0.01164323091506958
1772642872677566000,5.91656591796875,0.005533576011657715,-0.05408477783203125,-0.018227815628051758
1772642872697575000,5.936574951171875,-0.00483858585357666,-0.06858348846435547,0.000009834766387939453
1772642872717584000,5.956583984375,0.01152569055557251,-0.09496879577636719,-0.014369785785675049
1772642872737592800,5.9765927734375,-0.01676630973815918,-0.09729385375976562,0.0005047917366027832
1772642872757601800,5.996601806640625,-0.06841987371444702,-0.1258859634399414,-0.017639875411987305
1772642872777610800,6.01661083984375,-0.04372608661651611,-0.09937286376953125,-0.02083486318588257
1772642872797619700,6.03661962890625,-0.03595775365829468,-0.09440994262695312,-0.026002824306488037
1772642872817628700,6.056628662109375,0.00522083044052124,-0.1038808822631836,-0.032036781311035156
1772642872837637600,6.0766376953125,0.0154915452003479,-0.09663581848144531,-0.02487283945083618
1772642872857646600,6.096646484375,0.016336500644683838,-0.1325225830078125,0.008476197719573975
1772642872877655600,6.116655517578125,0.016945481300354004,-0.12050247192382812,0.008604049682617188
1772642872897664500,6.13666455078125,0.029520809650421143,-0.10367298126220703,-0.0008240938186645508
1772642872917673500,6.156673583984375,-0.0011559128761291504,-0.1060171127319336,-0.008111715316772461
1772642872937682400,6.176682373046875,0.008981466293334961,-0.11315727233886719,-0.02284252643585205
1772642872957691400,6.19669140625,0.01370459794998169,-0.11792564392089844,-0.03238177299499512
1772642872977700400,6.216700439453125,0.001607358455657959,-0.1275310516357422,-0.05910515785217285
1772642872997709300,6.236709228515625,0.0034975409507751465,-0.11802005767822266,-0.027822911739349365
1772642873017718300,6.25671826171875,0.008212745189666748,-0.11563587188720703,-0.03111743927001953
1772642873037727200,6.276727294921875,0.018647432327270508,-0.0821075439453125,-0.0109483003616333
1772642873057736400,6.296736328125,0.031028032302856445,-0.0870046615600586,-0.008494734764099121
1772642873077746700,6.31674658203125,-0.031096041202545166,-0.13271427154541016,0.012883782386779785
1772642873097757000,6.3367568359375,-0.027329862117767334,-0.10892486572265625,0.0260278582572937
1772642873117767200,6.35676708984375,-0.01852893829345703,-0.0850515365600586,0.037372589111328125
1772642873137777200,6.376777099609375,0.035877346992492676,-0.11391353607177734,0.03842055797576904
1772642873157787400,6.396787353515625,0.01729297637939453,-0.09246540069580078,0.06695419549942017
1772642873177797600,6.416797607421875,0.02494347095489502,-0.10458850860595703,0.09028816223144531
1772642873197807900,6.436807861328125,0.013326823711395264,-0.09036445617675781,0.07302886247634888
1772642873217818000,6.456818115234375,0.004501521587371826,-0.08804893493652344,0.06590455770492554
1772642873237828000,6.476828125,0.007511556148529053,-0.09055233001708984,0.04179114103317261
1772642873257838300,6.49683837890625,0.01072615385055542,-0.07861137390136719,-0.006043553352355957
1772642873277848600,6.5168486328125,0.03581506013870239,-0.09059810638427734,0.013792574405670166
1772642873297858800,6.53685888671875,0.013428449630737305,-0.1217203140258789,0.002356886863708496
1772642873317868800,6.556868896484375,-0.004881739616394043,-0.1002054214477539,0.022046804428100586
1772642873337879000,6.576879150390625,0.012294590473175049,-0.12904739379882812,0.03198438882827759
1772642873357889300,6.59688916015625,-0.018155395984649658,-0.08605480194091797,0.0020509958267211914
1772642873377899500,6.6168994140625,0.006244301795959473,-0.06215381622314453,-0.011383593082427979
1772642873397909800,6.63690966796875,0.035951972007751465,-0.12443351745605469,-0.014722108840942383
1772642873417919700,6.656919677734375,-0.034948527812957764,-0.12438488006591797,-0.012887418270111084
1772642873437930000,6.676929931640625,-0.04432404041290283,-0.10035991668701172,-0.02640688419342041
1772642873457940200,6.696940185546875,-0.02418220043182373,-0.10258102416992188,-0.020244479179382324
1772642873477950500,6.716950439453125,0.003711700439453125,-0.09995651245117188,-0.04986947774887085
1772642873497960700,6.736960693359375,-0.002411961555480957,-0.12614822387695312,-0.044028401374816895
1772642873517970700,6.756970703125,0.002603769302368164,-0.1356201171875,-0.04261976480484009
1772642873537981000,6.77698095703125,-0.015126466751098633,-0.14551162719726562,-0.019874393939971924
1772642873557991200,6.7969912109375,-0.01856774091720581,-0.1165313720703125,-0.009928464889526367
1772642873578000600,6.817000732421875,-0.009707093238830566,-0.11182117462158203,-0.029404819011688232
1772642873598010400,6.83701025390625,-0.03413546085357666,-0.09301567077636719,0.0014688372611999512
1772642873618020000,6.85702001953125,-0.03212761878967285,-0.10767650604248047,-0.007430315017700195
1772642873638029800,6.87702978515625,-0.011003375053405762,-0.10766124725341797,-0.006575167179107666
1772642873658039600,6.89703955078125,-0.00679093599319458,-0.08849906921386719,-0.0034163594245910645
1772642873678049000,6.917049072265625,-0.023824751377105713,-0.11243534088134766,0.0044310688972473145
1772642873698058800,6.937058837890625,-0.023068487644195557,-0.10996723175048828,0.014806807041168213
1772642873718068500,6.957068359375,-0.034668564796447754,-0.10988330841064453,0.01334834098815918
1772642873738078200,6.977078125,-0.04866117238998413,-0.09301376342773438,0.01472395658493042
1772642873758088000,6.997087890625,-0.01941967010498047,-0.07549762725830078,0.04582637548446655
1772642873778097400,7.017097412109375,-0.02805495262145996,-0.10889530181884766,0.05152332782745361
1772642873798107100,7.037107177734375,-0.018007874488830566,-0.11358833312988281,0.03570079803466797
1772642873818116900,7.057116943359375,-0.003574848175048828,-0.09432411193847656,0.041160643100738525
1772642873838126600,7.077126708984375,0.0024091601371765137,-0.10859489440917969,0.057958245277404785
1772642873858136000,7.097135986328125,0.013307034969329834,-0.12049293518066406,0.0597798228263855
1772642873878145800,7.117145751953125,0.03996992111206055,-0.12532329559326172,0.058719754219055176
1772642873898155500,7.137155517578125,-0.012519896030426025,-0.11582088470458984,0.04763156175613403
1772642873918165200,7.157165283203125,-0.0325130820274353,-0.09444427490234375,0.057821452617645264
1772642873938175000,7.177175048828125,-0.040952980518341064,-0.08025646209716797,0.05659908056259155
1772642873958184400,7.197184326171875,-0.023949623107910156,-0.0857076644897461,-0.007560908794403076
1772642873978194200,7.217194091796875,-0.00952768325805664,-0.0976552963256836,-0.016717195510864258
1772642873998204000,7.237203857421875,-0.04642993211746216,-0.09752845764160156,-0.03780871629714966
1772642874018213600,7.257213623046875,-0.01895010471343994,-0.09734725952148438,-0.036202073097229004
1772642874038223400,7.277223388671875,0.019338130950927734,-0.11641979217529297,-0.012814879417419434
1772642874058232800,7.29723291015625,-0.025352120399475098,-0.10908889770507812,-0.028441309928894043
1772642874078242800,7.317242919921875,-0.01704084873199463,-0.10411643981933594,-0.027054965496063232
1772642874098252500,7.33725244140625,-0.011655569076538086,-0.13748550415039062,-0.006033122539520264
1772642874118262500,7.357262451171875,-0.012135922908782959,-0.11585807800292969,-0.023437857627868652
1772642874138272300,7.377272216796875,0.011030018329620361,-0.12303447723388672,-0.03417092561721802
1772642874158282000,7.397281982421875,-0.011823952198028564,-0.08650398254394531,-0.02723294496536255
1772642874178292000,7.4172919921875,-0.002425074577331543,-0.11758136749267578,-0.006807923316955566
1772642874198301700,7.4373017578125,0.021503686904907227,-0.12226581573486328,-0.012249231338500977
1772642874218311700,7.457311767578125,-0.016865670680999756,-0.09822750091552734,0.005925357341766357
1772642874238321400,7.4773212890625,-0.01803457736968994,-0.0934457778930664,-0.009343743324279785
1772642874258331400,7.497331298828125,-0.010761678218841553,-0.11749744415283203,0.004291653633117676
1772642874278341000,7.517341064453125,-0.02876567840576172,-0.09354019165039062,-0.001124560832977295
1772642874298350800,7.537350830078125,-0.021866261959075928,-0.10301589965820312,0.015401601791381836
1772642874318360800,7.55736083984375,0.007175862789154053,-0.12442588806152344,0.015038549900054932
1772642874338370600,7.57737060546875,-0.03669935464859009,-0.11002159118652344,0.03340792655944824
1772642874358380300,7.59738037109375,0.015009462833404541,-0.1052103042602539,0.030653834342956543
1772642874378390300,7.617390380859375,-0.02639627456665039,-0.09080886840820312,0.02968573570251465
1772642874398400000,7.63739990234375,-0.012708187103271484,-0.1315755844116211,0.047044992446899414
1772642874418410000,7.657409912109375,-0.02353757619857788,-0.11490917205810547,0.04711747169494629
1772642874438419700,7.677419677734375,-0.022455334663391113,-0.12456512451171875,0.025637269020080566
1772642874458429400,7.697429443359375,-0.03447049856185913,-0.12212848663330078,0.03385782241821289
1772642874478439400,7.717439453125,-0.007578790187835693,-0.10765647888183594,0.015271663665771484
1772642874498449200,7.73744921875,0.014286935329437256,-0.0979909896850586,0.02577894926071167
1772642874518459100,7.757459228515625,0.02138417959213257,-0.09794330596923828,0.009940266609191895
1772642874538468900,7.77746875,0.0067993998527526855,-0.09787273406982422,-0.0029363036155700684
1772642874558478600,7.797478515625,0.006895601749420166,-0.13431358337402344,-0.008146822452545166
1772642874578487800,7.81748779296875,-0.0000019669532775878906,-0.13900375366210938,0.014707028865814209
1772642874598497000,7.8374970703125,-0.014216363430023193,-0.11257362365722656,-0.0004959702491760254
1772642874618506000,7.857506103515625,-0.014577925205230713,-0.09575176239013672,-0.03458160161972046
1772642874638515200,7.87751513671875,-0.03155386447906494,-0.10047721862792969,-0.02839672565460205
1772642874658524400,7.8975244140625,-0.03588736057281494,-0.1123495101928711,-0.01525568962097168
1772642874678533600,7.91753369140625,0.003194093704223633,-0.1361703872680664,-0.01650017499923706
1772642874698542800,7.93754296875,-0.0014412999153137207,-0.11693572998046875,-0.0011695623397827148
1772642874718552000,7.957552001953125,0.004836142063140869,-0.1289224624633789,-0.004765629768371582
1772642874738561300,7.977561279296875,-0.027285993099212646,-0.08580303192138672,0.00451892614364624
1772642874758570200,7.9975703125,-0.011690080165863037,-0.08514690399169922,-0.004415333271026611
1772642874778579500,8.017579345703124,-0.0038943886756896973,-0.10892581939697266,-0.021483242511749268
1772642874798588700,8.037588623046876,-0.033911824226379395,-0.11830806732177734,0.006667077541351318
1772642874818598000,8.057597900390626,-0.03306835889816284,-0.12294483184814453,0.034380316734313965
1772642874838607000,8.077607177734375,-0.00669175386428833,-0.12769222259521484,0.042278945446014404
1772642874858616300,8.0976162109375,-0.016726434230804443,-0.1109304428100586,0.03092050552368164
1772642874878625300,8.117625244140624,0.009457647800445557,-0.10132694244384766,0.02671337127685547
1772642874898634500,8.137634521484374,0.0167657732963562,-0.09888458251953125,0.00820702314376831
1772642874918643700,8.157643798828126,0.016467809677124023,-0.10840892791748047,0.013987362384796143
1772642874938653000,8.17765283203125,0.009110033512115479,-0.12278079986572266,0.014699578285217285
1772642874958662100,8.197662109375,-0.009751379489898682,-0.0946512222290039,0.023250937461853027
1772642874978671400,8.21767138671875,-0.022408127784729004,-0.12823486328125,0.030644118785858154
1772642874998680300,8.237680419921874,-0.004118442535400391,-0.09715461730957031,0.021329402923583984
1772642875018689500,8.257689453125,-0.0068007707595825195,-0.11869144439697266,0.02935957908630371
1772642875038698800,8.27769873046875,-0.014729201793670654,-0.12829017639160156,0.03258103132247925
1772642875058708200,8.297708251953125,-0.015055179595947266,-0.08036041259765625,0.023874998092651367
1772642875078718200,8.31771826171875,-0.02937871217727661,-0.0970754623413086,0.02229553461074829
1772642875098728200,8.337728271484375,-0.03258019685745239,-0.11869621276855469,0.030102312564849854
1772642875118738200,8.35773828125,-0.0266607403755188,-0.12114143371582031,0.000060677528381347656
1772642875138748200,8.377748046875,-0.015900015830993652,-0.10438156127929688,0.020791292190551758
1772642875158758400,8.39775830078125,-0.032779157161712646,-0.10432147979736328,0.006756484508514404
1772642875178768400,8.417768310546874,-0.0049582719802856445,-0.11863422393798828,0.005935728549957275
1772642875198778400,8.4377783203125,-0.054597437381744385,-0.11371898651123047,0.00567859411239624
1772642875218788400,8.457788330078126,-0.010852158069610596,-0.0847616195678711,0.005149781703948975
1772642875238798300,8.47779833984375,0.002649962902069092,-0.12286663055419922,-0.010310888290405273
1772642875258808300,8.497808349609375,-0.015848219394683838,-0.13713359832763672,-0.019342660903930664
1772642875278818600,8.517818603515625,-0.021820247173309326,-0.1464672088623047,0.00584864616394043
1772642875298828500,8.53782861328125,-0.02150970697402954,-0.10858726501464844,0.0013762712478637695
1772642875318838500,8.557838623046875,-0.03262972831726074,-0.09881877899169922,-0.029392778873443604
1772642875338848500,8.5778486328125,-0.023724615573883057,-0.08235549926757812,-0.03318506479263306
1772642875358858500,8.5978583984375,-0.018539130687713623,-0.09427833557128906,-0.012102305889129639
1772642875378868700,8.61786865234375,-0.030783116817474365,-0.09183883666992188,-0.020456552505493164
1772642875398878700,8.637878662109374,-0.028475403785705566,-0.1205129623413086,-0.0046599507331848145
1772642875418888700,8.657888671875,-0.04046618938446045,-0.10605716705322266,-0.003116309642791748
1772642875438898700,8.677898681640626,-0.01472461223602295,-0.12277793884277344,0.01066821813583374
1772642875458908700,8.69790869140625,-0.017838478088378906,-0.1275196075439453,-0.013587534427642822
1772642875478918700,8.717918701171875,-0.028436601161956787,-0.09633827209472656,0.013086199760437012
1772642875498928600,8.7379287109375,-0.02746635675430298,-0.07955360412597656,0.02052009105682373
1772642875518939000,8.75793896484375,0.0018950104713439941,-0.12030792236328125,0.03511917591094971
1772642875538948900,8.777948974609375,0.012935876846313477,-0.09395217895507812,0.029583454132080078
1772642875558958600,8.79795849609375,0.03147566318511963,-0.10582447052001953,0.04299008846282959
1772642875578968300,8.81796826171875,0.003597438335418701,-0.08890247344970703,0.030582964420318604
1772642875598978000,8.83797802734375,0.020440340042114258,-0.11752128601074219,0.02278655767440796
1772642875618987800,8.85798779296875,-0.010904312133789062,-0.1318521499633789,0.019631922245025635
1772642875638997200,8.877997314453125,-0.016879379749298096,-0.13904857635498047,0.002281010150909424
1772642875659007000,8.898007080078125,0.0037127137184143066,-0.08870124816894531,-0.010156422853469849
1772642875679016700,8.9180166015625,0.010521113872528076,-0.08623600006103516,-0.010542213916778564
1772642875699026400,8.9380263671875,0.010770857334136963,-0.1172800064086914,-0.01819545030593872
1772642875719036000,8.958035888671875,-0.0011637210845947266,-0.1027984619140625,-0.013752847909927368
1772642875739045600,8.978045654296874,0.01072460412979126,-0.16277217864990234,0.029549777507781982
1772642875759055400,8.998055419921876,-0.002943754196166992,-0.10289382934570312,0.028394967317581177
1772642875779064800,9.01806494140625,0.03928685188293457,-0.1268014907836914,-0.005921095609664917
1772642875799074600,9.038074462890625,0.010852336883544922,-0.15067195892333984,-0.025797545909881592
1772642875819084300,9.058084228515625,0.043148815631866455,-0.12415409088134766,-0.027446061372756958
