time,seconds_elapsed,z,y,x
1772642866947304400,0.186304443359375,0.0006657897029072046,0.003595264395698905,-0.006924212910234928
1772642866957308700,0.19630859375,0.004926843568682671,0.003595264395698905,-0.007989476434886456
1772642866967313000,0.20631298828125,0.003328948514536023,0.0057257916778326035,-0.005858949385583401
1772642866977317000,0.216317138671875,0.0027963167522102594,0.008388950489461422,-0.003728422336280346
1772642866987321000,0.226321044921875,0.003861580276861787,0.008921582251787186,-0.003728422336280346
1772642866997325300,0.2363251953125,0.003328948514536023,0.011584741063416004,-0.0026631588116288185
1772642867007329500,0.24632958984375,0.001731053227558732,0.009986845776438713,-0.004793685860931873
1772642867017333500,0.25633349609375,0.003328948514536023,0.007856318727135658,-0.006924212910234928
1772642867027337700,0.266337646484375,-0.0009321055840700865,0.00945421401411295,-0.01012000348418951
1772642867037342000,0.276342041015625,-0.00519315991550684,0.013715268112719059,-0.013315794058144093
1772642867047346200,0.28634619140625,0.004926843568682671,0.0003994738217443228,-0.012250530533492565
1772642867057350100,0.29635009765625,0.005992107093334198,-0.0011984214652329683,-0.01012000348418951
1772642867067355100,0.306355224609375,0.008122634142637253,-0.001731053227558732,-0.009054739959537983
1772642867077359900,0.31635986328125,0.008122634142637253,-0.003861580276861787,-0.006924212910234928
1772642867087364600,0.326364501953125,0.009720529429614544,-0.0022636849898844957,-0.0026631588116288185
1772642867097369300,0.336369384765625,0.008655265904963017,0.0025300008710473776,-0.0026631588116288185
1772642867107374000,0.3463740234375,0.008122634142637253,0.001997369108721614,-0.003728422336280346
1772642867117378800,0.35637890625,0.00918789766728878,-0.001731053227558732,-0.002130527049303055
1772642867127383800,0.3663837890625,0.010785792954266071,-0.004394211806356907,-0.005858949385583401
1772642867137388500,0.376388427734375,0.015046847052872181,-0.004926843568682671,-0.007456844672560692
1772642867147393300,0.386393310546875,0.016112111508846283,-0.004926843568682671,-0.01012000348418951
1772642867157398000,0.39639794921875,0.016112111508846283,-0.007057370617985725,-0.010652635246515274
1772642867167403000,0.406403076171875,0.016112111508846283,-0.003861580276861787,-0.013848425820469856
1772642867177407700,0.41640771484375,0.012916320003569126,-0.00013315794058144093,-0.017576847225427628
1772642867187412500,0.42641259765625,0.018242638558149338,-0.005992107093334198,-0.013315794058144093
1772642867197417200,0.436417236328125,0.016644742339849472,-0.005459475331008434,-0.010652635246515274
1772642867207422000,0.446421875,0.013981583528220654,-0.0022636849898844957,-0.010652635246515274
1772642867217426700,0.4564267578125,0.009720529429614544,-0.001731053227558732,-0.012783162295818329
1772642867227431700,0.466431640625,0.007057370617985725,-0.0022636849898844957,-0.009054739959537983
1772642867237436400,0.4764365234375,0.005459475331008434,-0.0006657897029072046,-0.01012000348418951
1772642867247441200,0.486441162109375,0.004394211806356907,-0.0027963167522102594,-0.010652635246515274
1772642867257446000,0.49644580078125,0.003328948514536023,-0.00013315794058144093,-0.009587371721863747
1772642867267450600,0.50645068359375,0.004394211806356907,0.0003994738217443228,-0.011717898771166801
1772642867277455400,0.516455322265625,0.003328948514536023,0.0014647373463958502,-0.01012000348418951
1772642867287460400,0.52646044921875,0.0022636849898844957,0.003595264395698905,-0.007989476434886456
1772642867297465000,0.536465087890625,0.001731053227558732,0.0057257916778326035,-0.004793685860931873
1772642867307469800,0.5464697265625,0.0022636849898844957,0.0025300008710473776,-0.006391581147909164
1772642867317474600,0.556474609375,-0.0009321055840700865,0.001997369108721614,-0.006924212910234928
1772642867327479600,0.5664794921875,-0.0009321055840700865,0.0009321055840700865,-0.005326317623257637
1772642867337484300,0.576484375,-0.006258423440158367,0.0003994738217443228,-0.007456844672560692
1772642867347489000,0.586489013671875,-0.0073236869648098946,-0.004394211806356907,-0.005326317623257637
1772642867357493800,0.59649365234375,-0.0057257916778326035,-0.009720529429614544,-0.00426105409860611
1772642867367498500,0.60649853515625,-0.008388950489461422,-0.011851056478917599,-0.002130527049303055
1772642867377503200,0.616503173828125,-0.008921582251787186,-0.016112111508846283,-0.0010652635246515274
1772642867387508200,0.62650830078125,-0.007856318727135658,-0.018775269389152527,-0.002130527049303055
1772642867397513000,0.636512939453125,-0.0057257916778326035,-0.020373165607452393,-0.003195790573954582
1772642867407517700,0.646517578125,-0.001997369108721614,-0.023036323487758636,-0.006924212910234928
1772642867417522400,0.6565224609375,-0.0014647373463958502,-0.02516685053706169,-0.006924212910234928
1772642867427527200,0.666527099609375,-0.001997369108721614,-0.02516685053706169,-0.007989476434886456
1772642867437532200,0.6765322265625,0.001731053227558732,-0.031025800853967667,-0.006391581147909164
1772642867447537000,0.686536865234375,0.003861580276861787,-0.028895273804664612,-0.00852210819721222
1772642867457541600,0.696541748046875,0.003861580276861787,-0.028895273804664612,-0.006391581147909164
1772642867467546400,0.70654638671875,0.006524738855659962,-0.031558431684970856,-0.007989476434886456
1772642867477551000,0.716551025390625,0.007057370617985725,-0.03688475117087364,-0.006924212910234928
1772642867487555800,0.726555908203125,0.008655265904963017,-0.035819485783576965,-0.005326317623257637
1772642867497560800,0.736560791015625,0.008655265904963017,-0.03368895873427391,-0.003195790573954582
1772642867507565600,0.746565673828125,0.008122634142637253,-0.031025800853967667,-0.003195790573954582
1772642867527575000,0.766574951171875,0.003328948514536023,-0.028362641111016273,-0.005858949385583401
1772642867537580000,0.776580078125,0.0011984214652329683,-0.03049316816031933,-0.001597895286977291
1772642867547584800,0.786584716796875,0.0027963167522102594,-0.03049316816031933,0.003195790573954582
1772642867557589500,0.796589599609375,0.001731053227558732,-0.03315632790327072,0.005326317623257637
1772642867567594000,0.806593994140625,0.0006657897029072046,-0.03315632790327072,0.006391581147909164
1772642867577598500,0.816598388671875,0.0022636849898844957,-0.0294279046356678,0.006924212910234928
1772642867587603000,0.82660302734375,0.001731053227558732,-0.0294279046356678,0.006391581147909164
1772642867597607400,0.836607421875,0.0011984214652329683,-0.027297377586364746,0.004793685860931873
1772642867607612000,0.84661181640625,-0.001997369108721614,-0.023568956181406975,0.004793685860931873
1772642867617616600,0.85661669921875,-0.001997369108721614,-0.023036323487758636,0.0026631588116288185
1772642867627621000,0.86662109375,-0.0025300008710473776,-0.02569948323071003,0.0010652635246515274
1772642867637625600,0.87662548828125,-0.004127896390855312,-0.023568956181406975,0.002130527049303055
1772642867647630000,0.886630126953125,-0.0025300008710473776,-0.02090579643845558,0.003195790573954582
1772642867657634600,0.896634521484375,-0.0014647373463958502,-0.019307902082800865,0.003728422336280346
1772642867667639000,0.90663916015625,-0.0003994738217443228,-0.016112111508846283,0.001597895286977291
1772642867677643500,0.9166435546875,0.001731053227558732,-0.014514215290546417,0.0010652635246515274
1772642867687648300,0.926648193359375,0.0022636849898844957,-0.00918789766728878,0.003195790573954582
1772642867697652700,0.93665283203125,0.0027963167522102594,-0.004926843568682671,0.0026631588116288185
1772642867707657200,0.9466572265625,0.0022636849898844957,-0.0006657897029072046,0.0005326317623257637
1772642867717661700,0.95666162109375,0.0011984214652329683,0.0003994738217443228,-0.001597895286977291
1772642867727666200,0.966666259765625,0.0027963167522102594,0.006791055202484131,-0.0026631588116288185
1772642867737670700,0.976670654296875,0.0022636849898844957,0.014247899875044823,-0.003728422336280346
1772642867747675100,0.986675048828125,0.001731053227558732,0.01904158480465412,-0.005326317623257637
1772642867757679600,0.9966796875,-0.0009321055840700865,0.014780531637370586,-0.007989476434886456
1772642867767684400,1.006684326171875,-0.001997369108721614,0.017443690448999405,-0.007989476434886456
1772642867777688800,1.016688720703125,-0.0014647373463958502,0.01957421749830246,-0.006924212910234928
1772642867787693300,1.026693359375,-0.0030626326333731413,0.01957421749830246,-0.006924212910234928
1772642867797697800,1.03669775390625,0.001731053227558732,0.020639481022953987,-0.006924212910234928
1772642867807702300,1.046702392578125,-0.0003994738217443228,0.021704744547605515,-0.006391581147909164
1772642867817706800,1.056706787109375,0.0011984214652329683,0.024900535121560097,-0.003728422336280346
1772642867827711200,1.066711181640625,-0.0003994738217443228,0.02703106217086315,-0.005326317623257637
1772642867837716000,1.076716064453125,0.00013315794058144093,0.030226852744817734,-0.005326317623257637
1772642867847720400,1.086720458984375,0.0011984214652329683,0.026498429477214813,-0.007989476434886456
1772642867857725000,1.096724853515625,0.0011984214652329683,0.022237375378608704,-0.00852210819721222
1772642867867729400,1.1067294921875,-0.0014647373463958502,0.01584579423069954,-0.009054739959537983
1772642867877734000,1.11673388671875,0.0011984214652329683,0.014780531637370586,-0.007456844672560692
1772642867887738400,1.12673828125,0.0006657897029072046,0.013182636350393295,-0.010652635246515274
1772642867897742800,1.136742919921875,0.001731053227558732,0.01904158480465412,-0.011717898771166801
1772642867907747300,1.146747314453125,0.003328948514536023,0.021172111853957176,-0.010652635246515274
1772642867917752000,1.156751953125,0.0022636849898844957,0.024900535121560097,-0.00852210819721222
1772642867927756500,1.166756591796875,0.0027963167522102594,0.029694220051169395,-0.006391581147909164
1772642867937761000,1.176760986328125,0.0022636849898844957,0.030759483575820923,-0.007989476434886456
1772642867947765500,1.186765625,-0.0014647373463958502,0.030759483575820923,-0.007456844672560692
1772642867957770000,1.19677001953125,-0.001997369108721614,0.02809632569551468,-0.006924212910234928
1772642867967774500,1.2067744140625,-0.0030626326333731413,0.025965798646211624,-0.003728422336280346
1772642867977779000,1.216779052734375,-0.0025300008710473776,0.022237375378608704,-0.005326317623257637
1772642867987783700,1.22678369140625,-0.004660528153181076,0.01957421749830246,-0.002130527049303055
1772642867997788200,1.2367880859375,-0.001997369108721614,0.01904158480465412,-0.001597895286977291
1772642868007792600,1.246792724609375,-0.003595264395698905,0.01531316339969635,-0.0010652635246515274
1772642868017797000,1.256797119140625,-0.0057257916778326035,0.012117372825741768,-0.0026631588116288185
1772642868027801600,1.266801513671875,-0.006258423440158367,0.011584741063416004,-0.0010652635246515274
1772642868037806000,1.27680615234375,-0.0073236869648098946,0.012650004588067532,-0.002130527049303055
1772642868047810600,1.286810546875,-0.006258423440158367,0.011584741063416004,-0.003195790573954582
1772642868057815300,1.296815185546875,-0.006791055202484131,0.009986845776438713,-0.0026631588116288185
1772642868067819800,1.30681982421875,-0.0025300008710473776,0.006791055202484131,-0.0010652635246515274
1772642868077824500,1.316824462890625,-0.004127896390855312,0.0057257916778326035,-0.0005326317623257637
1772642868087829200,1.326829345703125,-0.0014647373463958502,0.0073236869648098946,0.002130527049303055
1772642868097834000,1.336833984375,-0.0025300008710473776,0.0057257916778326035,0.001597895286977291
1772642868107838500,1.34683837890625,-0.0025300008710473776,0.003595264395698905,0.003195790573954582
1772642868117843200,1.35684326171875,-0.0014647373463958502,0.0003994738217443228,0.0026631588116288185
1772642868127848000,1.366847900390625,-0.0025300008710473776,-0.00013315794058144093,0.0026631588116288185
1772642868137852400,1.376852294921875,-0.0014647373463958502,-0.003861580276861787,0.00426105409860611
1772642868147857200,1.386857177734375,-0.0025300008710473776,-0.007590002380311489,0.003195790573954582
1772642868157862000,1.39686181640625,-0.001997369108721614,-0.011318424716591835,0.003728422336280346
1772642868167866600,1.40686669921875,-0.0025300008710473776,-0.012383688241243362,0.0010652635246515274
1772642868177871000,1.41687109375,-0.0009321055840700865,-0.014514215290546417,0.0026631588116288185
1772642868187875800,1.426875732421875,-0.0009321055840700865,-0.015046847052872181,0.0026631588116288185
1772642868197880600,1.436880615234375,0.0011984214652329683,-0.018242638558149338,0.00426105409860611
1772642868207885000,1.446885009765625,0.0022636849898844957,-0.020373165607452393,0.003728422336280346
1772642868217889800,1.456889892578125,0.001731053227558732,-0.018242638558149338,0.005326317623257637
1772642868227894500,1.46689453125,0.001731053227558732,-0.018242638558149338,0.006924212910234928
1772642868237899300,1.476899169921875,0.0006657897029072046,-0.018775269389152527,0.005326317623257637
1772642868247903700,1.48690380859375,0.00013315794058144093,-0.018775269389152527,0.006391581147909164
1772642868257908500,1.496908447265625,-0.0003994738217443228,-0.019840532913804054,0.004793685860931873
1772642868267913200,1.506913330078125,0.0011984214652329683,-0.02090579643845558,0.0010652635246515274
1772642868277918000,1.51691796875,0.00013315794058144093,-0.023036323487758636,-0.002130527049303055
1772642868287922400,1.52692236328125,0.003328948514536023,-0.02090579643845558,-0.0005326317623257637
1772642868297927200,1.53692724609375,0.005992107093334198,-0.019307902082800865,-0.0010652635246515274
1772642868307932000,1.546931884765625,0.006524738855659962,-0.019840532913804054,0.0010652635246515274
1772642868317936600,1.5569365234375,0.005992107093334198,-0.01344895176589489,0.0010652635246515274
1772642868327941000,1.566941162109375,0.005459475331008434,-0.008122634142637253,0.002130527049303055
1772642868337945900,1.57694580078125,0.004394211806356907,-0.003328948514536023,0
1772642868347950600,1.58695068359375,0.001731053227558732,-0.001731053227558732,-0.0005326317623257637
1772642868357955300,1.596955322265625,0.00013315794058144093,-0.0022636849898844957,-0.002130527049303055
1772642868367959800,1.606959716796875,-0.003595264395698905,-0.0022636849898844957,-0.0010652635246515274
1772642868377964500,1.616964599609375,-0.0030626326333731413,0.0014647373463958502,0.0010652635246515274
1772642868387969300,1.62696923828125,-0.001997369108721614,-0.004394211806356907,0.003195790573954582
1772642868397973800,1.636973876953125,-0.003595264395698905,-0.0022636849898844957,0.00426105409860611
1772642868407978500,1.646978515625,-0.004127896390855312,-0.0011984214652329683,0.006391581147909164
1772642868417983200,1.656983154296875,-0.0057257916778326035,-0.00013315794058144093,0.004793685860931873
1772642868427988000,1.666988037109375,-0.006791055202484131,0.004660528153181076,0.003728422336280346
1772642868437992400,1.676992431640625,-0.008921582251787186,0.004660528153181076,0.002130527049303055
1772642868447997200,1.6869970703125,-0.00945421401411295,-0.0011984214652329683,0.0010652635246515274
1772642868458002000,1.697001953125,-0.010519477538764477,-0.0006657897029072046,0.00426105409860611
1772642868468006700,1.707006591796875,-0.009986845776438713,-0.003861580276861787,0.002130527049303055
1772642868478011100,1.71701123046875,-0.0073236869648098946,-0.0006657897029072046,0.004793685860931873
1772642868488016000,1.727015869140625,-0.004127896390855312,-0.0006657897029072046,0.005326317623257637
1772642868498020600,1.7370205078125,-0.004127896390855312,0.0003994738217443228,0.004793685860931873
1772642868508025300,1.747025390625,-0.004127896390855312,0.004127896390855312,0.00426105409860611
1772642868518029800,1.75702978515625,-0.006258423440158367,0.00519315991550684,0.0010652635246515274
1772642868528034600,1.76703466796875,-0.00519315991550684,0.003595264395698905,-0.0005326317623257637
1772642868538039300,1.777039306640625,-0.006791055202484131,0.0030626326333731413,-0.0005326317623257637
1772642868548044000,1.7870439453125,-0.006791055202484131,-0.0022636849898844957,-0.003195790573954582
1772642868558048800,1.797048828125,0.001731053227558732,-0.0006657897029072046,-0.003195790573954582
1772642868568054000,1.807053955078125,0.0006657897029072046,-0.0011984214652329683,0.002130527049303055
1772642868578059300,1.817059326171875,0.0006657897029072046,0.0009321055840700865,0.0005326317623257637
1772642868588064800,1.827064697265625,-0.0009321055840700865,-0.00013315794058144093,0.0005326317623257637
1772642868598070000,1.837070068359375,-0.003595264395698905,0.001997369108721614,0.001597895286977291
1772642868608075300,1.8470751953125,-0.0030626326333731413,0.001997369108721614,0.003728422336280346
1772642868618080800,1.857080810546875,-0.004660528153181076,0.004127896390855312,0.0010652635246515274
1772642868628086000,1.8670859375,-0.003595264395698905,0.0073236869648098946,0.001597895286977291
1772642868638091300,1.87709130859375,-0.0073236869648098946,0.0073236869648098946,0
1772642868648096800,1.8870966796875,-0.007856318727135658,0.008388950489461422,-0.0010652635246515274
1772642868658102000,1.89710205078125,-0.007856318727135658,0.006258423440158367,-0.003728422336280346
1772642868668107300,1.907107177734375,-0.00519315991550684,0.007856318727135658,-0.0026631588116288185
1772642868678112800,1.91711279296875,-0.00519315991550684,0.0057257916778326035,0.003195790573954582
1772642868688118000,1.927117919921875,-0.004127896390855312,0.0073236869648098946,0.007456844672560692
1772642868698123500,1.93712353515625,-0.00519315991550684,0.007856318727135658,0.010652635246515274
1772642868708128800,1.947128662109375,-0.00519315991550684,0.004127896390855312,0.009054739959537983
1772642868718134000,1.957134033203125,-0.006258423440158367,0.0009321055840700865,0.009054739959537983
1772642868728139300,1.96713916015625,-0.003595264395698905,-0.0011984214652329683,0.005858949385583401
1772642868738144800,1.977144775390625,-0.0003994738217443228,-0.0027963167522102594,0.00426105409860611
1772642868748150000,1.98714990234375,-0.0009321055840700865,-0.004926843568682671,0.003195790573954582
1772642868758155300,1.9971552734375,0.0011984214652329683,-0.007057370617985725,0.002130527049303055
1772642868768160800,2.007160888671875,0.001731053227558732,-0.008122634142637253,0.0005326317623257637
1772642868778166000,2.017166015625,0.003861580276861787,-0.007057370617985725,0.003195790573954582
1772642868788171500,2.027171630859375,0.0027963167522102594,-0.007590002380311489,0.00426105409860611
1772642868798176800,2.0371767578125,0.003328948514536023,-0.008122634142637253,0.003195790573954582
1772642868808182000,2.04718212890625,0.003328948514536023,-0.010785792954266071,0
1772642868818187500,2.0571875,0.0006657897029072046,-0.012383688241243362,-0.003195790573954582
1772642868828192800,2.06719287109375,0.0011984214652329683,-0.014514215290546417,-0.003728422336280346
1772642868838198000,2.077197998046875,0.005459475331008434,-0.012916320003569126,-0.002130527049303055
1772642868848203500,2.08720361328125,0.006524738855659962,-0.01344895176589489,0.0010652635246515274
1772642868858208800,2.097208740234375,0.006524738855659962,-0.01344895176589489,0.003728422336280346
1772642868868214000,2.107214111328125,0.005459475331008434,-0.012383688241243362,0.003728422336280346
1772642868878219500,2.117219482421875,0.006524738855659962,-0.012383688241243362,0.005326317623257637
1772642868888224800,2.127224853515625,0.004394211806356907,-0.011851056478917599,0.00852210819721222
1772642868898230000,2.13722998046875,0.005459475331008434,-0.012916320003569126,0.01012000348418951
1772642868908235500,2.147235595703125,0.005992107093334198,-0.016644742339849472,0.005858949385583401
1772642868918240800,2.15724072265625,0.005459475331008434,-0.019840532913804054,0.003728422336280346
1772642868928246300,2.167246337890625,0.008122634142637253,-0.02143842913210392,0.0010652635246515274
1772642868938251500,2.17725146484375,0.007590002380311489,-0.01717737503349781,0.0010652635246515274
1772642868948256800,2.1872568359375,0.009720529429614544,-0.011851056478917599,0.0005326317623257637
1772642868958262300,2.19726220703125,0.008122634142637253,-0.010785792954266071,-0.002130527049303055
1772642868968267500,2.207267578125,0.007590002380311489,-0.009720529429614544,-0.005858949385583401
1772642868978272800,2.217272705078125,0.004394211806356907,-0.012916320003569126,-0.00426105409860611
1772642868988278000,2.227278076171875,0.001731053227558732,-0.013981583528220654,-0.0026631588116288185
1772642868998283500,2.237283447265625,0.0006657897029072046,-0.01717737503349781,-0.0010652635246515274
1772642869008288800,2.247288818359375,-0.0003994738217443228,-0.018775269389152527,-0.003728422336280346
1772642869018294300,2.257294189453125,-0.001997369108721614,-0.018242638558149338,-0.00426105409860611
1772642869028299500,2.267299560546875,-0.003595264395698905,-0.018775269389152527,-0.00426105409860611
1772642869038304800,2.2773046875,-0.0030626326333731413,-0.016644742339849472,-0.0026631588116288185
1772642869048310300,2.287310302734375,-0.0025300008710473776,-0.010253161191940308,-0.0005326317623257637
1772642869058315500,2.2973154296875,-0.0014647373463958502,-0.003861580276861787,0.0010652635246515274
1772642869068320800,2.30732080078125,0.00013315794058144093,-0.0006657897029072046,0.003728422336280346
1772642869078325800,2.31732568359375,0.00013315794058144093,0.006258423440158367,0.00426105409860611
1772642869088331000,2.3273310546875,-0.0014647373463958502,0.00945421401411295,0.003195790573954582
1772642869098336000,2.3373359375,-0.004127896390855312,0.008921582251787186,0.0005326317623257637
1772642869108341200,2.34734130859375,-0.004660528153181076,0.010519477538764477,0
1772642869118346500,2.357346435546875,-0.003595264395698905,0.014247899875044823,-0.002130527049303055
1772642869128351500,2.3673515625,-0.00519315991550684,0.011584741063416004,-0.003728422336280346
1772642869138356700,2.377356689453125,-0.003595264395698905,0.010519477538764477,-0.005326317623257637
1772642869148362000,2.387362060546875,-0.0014647373463958502,0.012117372825741768,-0.005858949385583401
1772642869158367000,2.397366943359375,-0.0003994738217443228,0.008921582251787186,-0.00426105409860611
1772642869168372200,2.407372314453125,0.001731053227558732,0.01105210930109024,-0.00426105409860611
1772642869178377500,2.41737744140625,0.001731053227558732,0.008921582251787186,-0.005326317623257637
1772642869188382500,2.427382568359375,0.003328948514536023,0.008388950489461422,-0.003195790573954582
1772642869198387700,2.4373876953125,0.0027963167522102594,0.006258423440158367,0
1772642869208392700,2.447392822265625,0.0027963167522102594,0.00519315991550684,-0.0026631588116288185
1772642869218398000,2.45739794921875,0.0022636849898844957,0.00519315991550684,-0.006924212910234928
1772642869228403200,2.4674033203125,0.003328948514536023,0.0057257916778326035,-0.009054739959537983
1772642869238408200,2.477408203125,0.0027963167522102594,0.004660528153181076,-0.010652635246515274
1772642869248413400,2.487413330078125,0.003328948514536023,0.0030626326333731413,-0.007989476434886456
1772642869258418700,2.497418701171875,0.004394211806356907,0.001997369108721614,-0.005858949385583401
1772642869268423700,2.507423583984375,0.003328948514536023,0.0009321055840700865,-0.003728422336280346
1772642869278429000,2.517428955078125,-0.0003994738217443228,0.0003994738217443228,-0.0005326317623257637
1772642869288434200,2.52743408203125,0.0011984214652329683,-0.0006657897029072046,0.00426105409860611
1772642869298439200,2.537439208984375,-0.001997369108721614,-0.0006657897029072046,0.005326317623257637
1772642869308444400,2.5474443359375,-0.0014647373463958502,-0.00013315794058144093,0.005858949385583401
1772642869318449700,2.55744970703125,-0.0030626326333731413,0.0014647373463958502,0.0026631588116288185
1772642869328454700,2.56745458984375,-0.0025300008710473776,0.0003994738217443228,0.00426105409860611
1772642869338460000,2.5774599609375,-0.00519315991550684,-0.0022636849898844957,0.0010652635246515274
1772642869348465000,2.58746484375,-0.00519315991550684,-0.0022636849898844957,-0.0026631588116288185
1772642869358470100,2.59747021484375,-0.006258423440158367,-0.001731053227558732,-0.003195790573954582
1772642869368475400,2.607475341796875,-0.00519315991550684,-0.0006657897029072046,0
1772642869378480400,2.61748046875,-0.004127896390855312,0.0014647373463958502,0.0026631588116288185
1772642869388485600,2.627485595703125,-0.004127896390855312,0.0003994738217443228,0.004793685860931873
1772642869398491000,2.637490966796875,-0.001997369108721614,-0.00013315794058144093,0.005858949385583401
1772642869408496000,2.64749609375,0.0011984214652329683,-0.001731053227558732,0.009054739959537983
1772642869418501000,2.657501220703125,0.0022636849898844957,-0.0011984214652329683,0.009054739959537983
1772642869428506400,2.66750634765625,0.0011984214652329683,-0.001731053227558732,0.007989476434886456
1772642869438511400,2.677511474609375,0.0027963167522102594,0.0030626326333731413,0.005326317623257637
1772642869448516600,2.6875166015625,0.001731053227558732,0.006791055202484131,0.0026631588116288185
1772642869458521900,2.69752197265625,0.0027963167522102594,0.0057257916778326035,0.0005326317623257637
1772642869468526800,2.70752685546875,0.0011984214652329683,0.004127896390855312,-0.003195790573954582
1772642869478532000,2.717531982421875,0.003328948514536023,0.0030626326333731413,-0.0005326317623257637
1772642869488537300,2.727537353515625,0.001731053227558732,0.0009321055840700865,0.0010652635246515274
1772642869498542300,2.737542236328125,0.001731053227558732,-0.001731053227558732,0.0010652635246515274
1772642869508547600,2.747547607421875,0.001731053227558732,-0.004926843568682671,0.001597895286977291
1772642869518552800,2.757552734375,0.0011984214652329683,-0.006524738855659962,0.0005326317623257637
1772642869528557800,2.767557861328125,0.00013315794058144093,-0.006524738855659962,0.003728422336280346
1772642869538563000,2.77756298828125,0.0006657897029072046,-0.005459475331008434,0.001597895286977291
1772642869548568000,2.787568115234375,0.0027963167522102594,-0.0006657897029072046,0.0010652635246515274
1772642869558573300,2.7975732421875,0.004394211806356907,0.0025300008710473776,-0.0010652635246515274
1772642869568577800,2.807577880859375,0.005459475331008434,0.0025300008710473776,0.0005326317623257637
1772642869578582300,2.817582275390625,0.005459475331008434,0.004127896390855312,0.0005326317623257637
1772642869588586800,2.827586669921875,0.005992107093334198,0.00519315991550684,0.0010652635246515274
1772642869598591200,2.83759130859375,0.0027963167522102594,0.00519315991550684,0.0005326317623257637
1772642869608595700,2.847595703125,-0.0003994738217443228,0.0014647373463958502,0
1772642869618600200,2.85760009765625,-0.0009321055840700865,-0.00013315794058144093,-0.001597895286977291
1772642869628604700,2.867604736328125,-0.0009321055840700865,-0.0022636849898844957,-0.0026631588116288185
1772642869638609200,2.877609130859375,-0.0025300008710473776,-0.003328948514536023,-0.004793685860931873
1772642869648613600,2.887613525390625,-0.001997369108721614,-0.005459475331008434,-0.007456844672560692
1772642869658618000,2.8976181640625,-0.001997369108721614,-0.006524738855659962,-0.005326317623257637
1772642869668622600,2.90762255859375,0.00013315794058144093,-0.004926843568682671,-0.00426105409860611
1772642869678627300,2.91762744140625,0.003861580276861787,-0.001731053227558732,-0.0005326317623257637
1772642869688631800,2.9276318359375,0.006524738855659962,0.0025300008710473776,-0.0005326317623257637
1772642869698636300,2.93763623046875,0.006524738855659962,0.0057257916778326035,0
1772642869708640800,2.947640869140625,0.004394211806356907,0.008921582251787186,-0.0026631588116288185
1772642869718645200,2.957645263671875,0.003861580276861787,0.00945421401411295,-0.005858949385583401
1772642869728649700,2.967649658203125,0.003328948514536023,0.009986845776438713,-0.006924212910234928
1772642869738654200,2.977654296875,0.0011984214652329683,0.008921582251787186,-0.010652635246515274
1772642869748658700,2.98765869140625,0.0027963167522102594,0.00519315991550684,-0.010652635246515274
1772642869758663200,2.9976630859375,0.0006657897029072046,0.006791055202484131,-0.012783162295818329
1772642869768667600,3.007667724609375,0.004394211806356907,0.010519477538764477,-0.011185267008841038
1772642869778672000,3.017672119140625,0.003861580276861787,0.010519477538764477,-0.006924212910234928
1772642869788676600,3.027676513671875,0.004394211806356907,0.013715268112719059,-0.003195790573954582
1772642869798681000,3.03768115234375,0.003861580276861787,0.012650004588067532,-0.0026631588116288185
1772642869808685600,3.047685546875,0.003861580276861787,0.016911057755351067,-0.0010652635246515274
1772642869818690000,3.05768994140625,0.003861580276861787,0.021172111853957176,0.0010652635246515274
1772642869828694800,3.06769482421875,0.003861580276861787,0.026498429477214813,0.0026631588116288185
1772642869838699300,3.07769921875,0.001731053227558732,0.02383527159690857,0.0010652635246515274
1772642869848703700,3.087703857421875,0.00013315794058144093,0.021704744547605515,0
1772642869858708200,3.097708251953125,-0.0003994738217443228,0.017443690448999405,-0.0010652635246515274
1772642869868712700,3.107712646484375,-0.0003994738217443228,0.016911057755351067,0.0010652635246515274
1772642869878717200,3.11771728515625,-0.0014647373463958502,0.017443690448999405,0.0005326317623257637
1772642869888721700,3.1277216796875,-0.0014647373463958502,0.016378426924347878,-0.0010652635246515274
1772642869898726100,3.13772607421875,-0.0025300008710473776,0.01584579423069954,-0.001597895286977291
1772642869908730600,3.147730712890625,-0.001997369108721614,0.013182636350393295,-0.0026631588116288185
1772642869918735000,3.157735107421875,-0.003595264395698905,0.014780531637370586,-0.0005326317623257637
1772642869928739600,3.167739501953125,-0.00519315991550684,0.014780531637370586,-0.0005326317623257637
1772642869938744000,3.177744140625,-0.00519315991550684,0.010519477538764477,0.0005326317623257637
1772642869948748800,3.187748779296875,-0.0057257916778326035,0.006791055202484131,0.002130527049303055
1772642869958753300,3.197753173828125,-0.006258423440158367,0.003595264395698905,0.003195790573954582
1772642869968757800,3.2077578125,-0.006258423440158367,0.004127896390855312,0.003195790573954582
1772642869978762200,3.21776220703125,-0.003595264395698905,0.0030626326333731413,0.003728422336280346
1772642869988766700,3.2277666015625,-0.003595264395698905,0.004660528153181076,0.001597895286977291
1772642869998771200,3.237771240234375,-0.004127896390855312,0.0014647373463958502,-0.002130527049303055
1772642870008775700,3.247775634765625,-0.004660528153181076,-0.00013315794058144093,-0.003728422336280346
1772642870018780200,3.2577802734375,-0.0057257916778326035,-0.006524738855659962,-0.002130527049303055
1772642870028784600,3.26778466796875,-0.0057257916778326035,-0.009720529429614544,0.003195790573954582
1772642870038789000,3.2777890625,-0.00519315991550684,-0.011851056478917599,0.009054739959537983
1772642870048793600,3.287793701171875,-0.00519315991550684,-0.011318424716591835,0.007989476434886456
1772642870058798000,3.297798095703125,-0.001997369108721614,-0.008122634142637253,0.0026631588116288185
1772642870068802600,3.307802490234375,-0.0003994738217443228,-0.007590002380311489,0.002130527049303055
1772642870078807000,3.31780712890625,-0.0009321055840700865,-0.004394211806356907,-0.00426105409860611
1772642870088811300,3.327811279296875,-0.0014647373463958502,-0.001731053227558732,-0.005326317623257637
1772642870098815700,3.337815673828125,-0.0014647373463958502,-0.003328948514536023,-0.006391581147909164
1772642870108820200,3.3478203125,-0.001997369108721614,-0.001731053227558732,-0.006391581147909164
1772642870118824400,3.357824462890625,-0.003595264395698905,-0.0022636849898844957,-0.003195790573954582
1772642870128829000,3.367828857421875,-0.001997369108721614,-0.003328948514536023,0.0010652635246515274
1772642870138833400,3.37783349609375,-0.0025300008710473776,-0.007057370617985725,0.007456844672560692
1772642870148838000,3.387837890625,-0.003595264395698905,-0.011318424716591835,0.011185267008841038
1772642870158842000,3.397842041015625,-0.00519315991550684,-0.016644742339849472,0.013315794058144093
1772642870168846600,3.4078466796875,-0.0030626326333731413,-0.023568956181406975,0.014913689345121384
1772642870178851000,3.41785107421875,-0.0030626326333731413,-0.022503692656755447,0.012783162295818329
1772642870188855300,3.427855224609375,-0.0009321055840700865,-0.02143842913210392,0.012250530533492565
1772642870198859800,3.43785986328125,-0.003595264395698905,-0.02197105996310711,0.006924212910234928
1772642870208864300,3.4478642578125,-0.004660528153181076,-0.02516685053706169,0.003728422336280346
1772642870218868500,3.457868408203125,-0.006258423440158367,-0.028362641111016273,0.001597895286977291
1772642870228873000,3.467873046875,-0.0057257916778326035,-0.0294279046356678,0.003195790573954582
1772642870238877400,3.47787744140625,-0.004660528153181076,-0.031025800853967667,0.004793685860931873
1772642870248881700,3.487881591796875,-0.003595264395698905,-0.03262369707226753,0.005858949385583401
1772642870258886100,3.49788623046875,-0.001997369108721614,-0.032091062515974045,0.006391581147909164
1772642870268890600,3.507890625,-0.0009321055840700865,-0.03262369707226753,0.006924212910234928
1772642870278894800,3.517894775390625,-0.0009321055840700865,-0.028895273804664612,0.005858949385583401
1772642870288899300,3.5278994140625,-0.0025300008710473776,-0.0294279046356678,0.00852210819721222
1772642870298903800,3.53790380859375,-0.001997369108721614,-0.03049316816031933,0.007989476434886456
1772642870308908300,3.547908203125,-0.001997369108721614,-0.023568956181406975,0.007456844672560692
1772642870318912500,3.55791259765625,-0.0025300008710473776,-0.02143842913210392,0.00426105409860611
1772642870328917000,3.5679169921875,-0.001997369108721614,-0.02090579643845558,0.003195790573954582
1772642870338921500,3.57792138671875,-0.003595264395698905,-0.017710005864501,0.002130527049303055
1772642870348925700,3.58792578125,-0.003595264395698905,-0.015579478815197945,0.003728422336280346
1772642870358930200,3.59793017578125,-0.0030626326333731413,-0.011851056478917599,0.004793685860931873
1772642870368934700,3.6079345703125,-0.0030626326333731413,-0.007057370617985725,0.007456844672560692
1772642870378939000,3.61793896484375,-0.0025300008710473776,-0.004394211806356907,0.005858949385583401
1772642870388943400,3.627943359375,-0.003595264395698905,-0.0027963167522102594,0.00426105409860611
1772642870398947800,3.63794775390625,-0.004127896390855312,-0.0011984214652329683,0.005326317623257637
1772642870408952000,3.6479521484375,-0.0057257916778326035,0.0003994738217443228,0.006391581147909164
1772642870418956500,3.65795654296875,-0.006791055202484131,0.004660528153181076,0.002130527049303055
1772642870428961000,3.6679609375,-0.0057257916778326035,0.012117372825741768,-0.0010652635246515274
1772642870438965500,3.677965576171875,-0.008921582251787186,0.017443690448999405,-0.001597895286977291
1772642870448969700,3.6879697265625,-0.009986845776438713,0.022237375378608704,-0.0005326317623257637
1772642870458974200,3.69797412109375,-0.010519477538764477,0.026498429477214813,-0.0026631588116288185
1772642870468978400,3.707978515625,-0.010519477538764477,0.02010684832930565,-0.0010652635246515274
1772642870478983000,3.71798291015625,-0.009986845776438713,0.016911057755351067,0.002130527049303055
1772642870488987400,3.7279873046875,-0.0057257916778326035,0.016378426924347878,0.007456844672560692
1772642870498991900,3.737991943359375,-0.004660528153181076,0.017976321280002594,0.006924212910234928
1772642870508996000,3.74799609375,-0.0009321055840700865,0.01904158480465412,0.007456844672560692
1772642870519000600,3.75800048828125,-0.0014647373463958502,0.022237375378608704,0.007989476434886456
1772642870529005000,3.768005126953125,-0.0014647373463958502,0.025965798646211624,0.00426105409860611
1772642870539009300,3.77800927734375,-0.0025300008710473776,0.026498429477214813,-0.001597895286977291
1772642870549013800,3.788013671875,-0.0030626326333731413,0.02436790242791176,-0.00426105409860611
1772642870559018200,3.798018310546875,-0.004660528153181076,0.02383527159690857,-0.002130527049303055
1772642870569023000,3.80802294921875,-0.0057257916778326035,0.01957421749830246,-0.0010652635246515274
1772642870579027700,3.81802783203125,-0.004127896390855312,0.016911057755351067,0.002130527049303055
1772642870589032400,3.828032470703125,-0.0030626326333731413,0.013715268112719059,0.005326317623257637
1772642870599037200,3.838037109375,-0.0009321055840700865,0.012650004588067532,0.00426105409860611
1772642870609042200,3.848042236328125,-0.0003994738217443228,0.012117372825741768,0.00426105409860611
1772642870619047000,3.858046875,0.0011984214652329683,0.01105210930109024,0.004793685860931873
1772642870629051600,3.8680517578125,-0.001997369108721614,0.00945421401411295,0.003195790573954582
1772642870639056400,3.878056396484375,-0.0030626326333731413,0.007856318727135658,0.002130527049303055
1772642870649061000,3.88806103515625,-0.004127896390855312,0.0057257916778326035,0.003195790573954582
1772642870659065900,3.89806591796875,-0.004127896390855312,0.0030626326333731413,0.0010652635246515274
1772642870669070600,3.908070556640625,-0.001997369108721614,-0.0011984214652329683,0.0005326317623257637
1772642870679075300,3.918075439453125,-0.003595264395698905,-0.005459475331008434,0.0026631588116288185
1772642870689080000,3.928080078125,-0.003595264395698905,-0.008122634142637253,0.0010652635246515274
1772642870699084800,3.938084716796875,-0.0025300008710473776,-0.008122634142637253,0.003195790573954582
1772642870709089800,3.94808984375,-0.001997369108721614,-0.007590002380311489,0.003195790573954582
1772642870719094500,3.958094482421875,-0.003595264395698905,-0.006524738855659962,0.0005326317623257637
1772642870729099300,3.968099365234375,-0.004660528153181076,-0.005992107093334198,0.0010652635246515274
1772642870739104000,3.97810400390625,-0.003595264395698905,-0.003861580276861787,-0.0026631588116288185
1772642870749108700,3.988108642578125,-0.00519315991550684,0.0003994738217443228,-0.003728422336280346
1772642870759113500,3.998113525390625,-0.0030626326333731413,0.0025300008710473776,-0.0026631588116288185
1772642870769118200,4.0081181640625,-0.003595264395698905,0.0030626326333731413,0.0010652635246515274
1772642870779123000,4.018123046875,-0.003595264395698905,0.0030626326333731413,-0.0005326317623257637
1772642870789127700,4.028127685546875,-0.0030626326333731413,0.007856318727135658,0.001597895286977291
1772642870799132700,4.038132568359375,-0.0014647373463958502,0.011584741063416004,0
1772642870809137400,4.048137451171875,-0.001997369108721614,0.017976321280002594,0.002130527049303055
1772642870819142100,4.05814208984375,-0.004127896390855312,0.016378426924347878,0
1772642870829147000,4.06814697265625,-0.004660528153181076,0.014780531637370586,-0.001597895286977291
1772642870839151600,4.078151611328125,-0.0057257916778326035,0.012650004588067532,-0.002130527049303055
1772642870849156400,4.08815625,-0.006791055202484131,0.008921582251787186,-0.0005326317623257637
1772642870859161000,4.0981611328125,-0.0073236869648098946,0.006258423440158367,0.002130527049303055
1772642870869165800,4.108165771484375,-0.007856318727135658,0.008921582251787186,0.003195790573954582
1772642870879170600,4.118170654296875,-0.00945421401411295,0.0073236869648098946,0.003195790573954582
1772642870889175300,4.12817529296875,-0.008921582251787186,0.00519315991550684,0.0026631588116288185
1772642870899180300,4.13818017578125,-0.0073236869648098946,0.001997369108721614,0.003195790573954582
1772642870909185000,4.14818505859375,-0.00519315991550684,0.001997369108721614,0.00426105409860611
1772642870919189800,4.158189697265625,-0.0057257916778326035,0.001997369108721614,0.003728422336280346
1772642870929194500,4.168194580078125,-0.00519315991550684,-0.0027963167522102594,0.003195790573954582
1772642870939199200,4.17819921875,-0.004127896390855312,-0.003328948514536023,-0.0005326317623257637
1772642870949204000,4.188203857421875,-0.00519315991550684,-0.008655265904963017,0
1772642870959208700,4.198208740234375,-0.004127896390855312,-0.011318424716591835,-0.0026631588116288185
1772642870969213400,4.20821337890625,-0.004660528153181076,-0.013981583528220654,-0.0010652635246515274
1772642870979218200,4.21821826171875,-0.00519315991550684,-0.015046847052872181,-0.001597895286977291
1772642870989223000,4.228222900390625,-0.003595264395698905,-0.013981583528220654,0
1772642870999228000,4.238227783203125,-0.0003994738217443228,-0.015579478815197945,0
1772642871009232600,4.248232666015625,-0.004660528153181076,-0.01717737503349781,0.00426105409860611
1772642871019237400,4.2582373046875,-0.006791055202484131,-0.015046847052872181,0.0005326317623257637
1772642871029242000,4.2682421875,-0.006791055202484131,-0.012916320003569126,0
1772642871039246800,4.278246826171875,-0.006258423440158367,-0.011851056478917599,-0.0005326317623257637
1772642871049251600,4.28825146484375,-0.007856318727135658,-0.010253161191940308,0.0010652635246515274
1772642871059256300,4.29825634765625,-0.006258423440158367,-0.008122634142637253,0.002130527049303055
1772642871069261600,4.308261474609375,-0.006791055202484131,-0.008122634142637253,0.003195790573954582
1772642871079266800,4.318266845703125,-0.001997369108721614,-0.005992107093334198,0.00426105409860611
1772642871089271800,4.328271728515625,-0.001997369108721614,-0.006524738855659962,0.004793685860931873
1772642871099277000,4.338277099609375,-0.004660528153181076,-0.008122634142637253,0.003195790573954582
1772642871109282300,4.3482822265625,-0.00519315991550684,-0.007590002380311489,-0.0005326317623257637
1772642871119287300,4.358287353515625,-0.006258423440158367,-0.008655265904963017,-0.004793685860931873
1772642871129292500,4.36829248046875,-0.0030626326333731413,-0.008122634142637253,-0.002130527049303055
1772642871139297800,4.3782978515625,-0.004660528153181076,-0.009720529429614544,-0.001597895286977291
1772642871149302800,4.388302734375,0.001731053227558732,-0.008122634142637253,-0.0005326317623257637
1772642871159308000,4.39830810546875,0.0022636849898844957,-0.008122634142637253,0.0026631588116288185
1772642871169313000,4.40831298828125,0.0011984214652329683,-0.003861580276861787,0.003728422336280346
1772642871179318300,4.418318359375,0.00013315794058144093,-0.003861580276861787,0.003195790573954582
1772642871189323500,4.428323486328125,-0.0014647373463958502,-0.003328948514536023,-0.0005326317623257637
1772642871199328500,4.43832861328125,-0.004127896390855312,-0.003861580276861787,-0.001597895286977291
1772642871209333800,4.448333740234375,-0.0057257916778326035,-0.0027963167522102594,-0.002130527049303055
1772642871219339000,4.458339111328125,-0.006791055202484131,-0.004926843568682671,-0.0005326317623257637
1772642871229344000,4.468343994140625,-0.006258423440158367,-0.004394211806356907,-0.001597895286977291
1772642871239349200,4.478349365234375,-0.00519315991550684,-0.003861580276861787,-0.002130527049303055
1772642871249354500,4.4883544921875,-0.004127896390855312,-0.005992107093334198,0.0005326317623257637
1772642871259359500,4.498359375,-0.004660528153181076,-0.003861580276861787,-0.001597895286977291
1772642871269364700,4.50836474609375,-0.006791055202484131,-0.0022636849898844957,0.001597895286977291
1772642871279370000,4.518369873046875,-0.004660528153181076,-0.003328948514536023,0.003195790573954582
1772642871289375000,4.528375,-0.006791055202484131,-0.001731053227558732,0.002130527049303055
1772642871299380200,4.538380126953125,-0.008921582251787186,-0.004926843568682671,0.00426105409860611
1772642871309385200,4.54838525390625,-0.009986845776438713,-0.004926843568682671,0.005326317623257637
1772642871319390500,4.558390380859375,-0.010519477538764477,-0.0027963167522102594,0.003728422336280346
1772642871329395700,4.568395751953125,-0.010519477538764477,-0.004926843568682671,0.00426105409860611
1772642871339400700,4.578400634765625,-0.010519477538764477,-0.0006657897029072046,0.005326317623257637
1772642871349406000,4.588406005859375,-0.01105210930109024,0.0014647373463958502,0.00426105409860611
1772642871359411000,4.598410888671875,-0.01105210930109024,0.004127896390855312,0.003195790573954582
1772642871369416200,4.608416259765625,-0.01105210930109024,0.0030626326333731413,0.002130527049303055
1772642871379421400,4.61842138671875,-0.00945421401411295,0.0025300008710473776,-0.0010652635246515274
1772642871389426400,4.628426513671875,-0.00945421401411295,0.006791055202484131,-0.001597895286977291
1772642871399431700,4.638431640625,-0.0073236869648098946,0.011584741063416004,-0.003195790573954582
1772642871409437000,4.64843701171875,-0.006791055202484131,0.007856318727135658,-0.003195790573954582
1772642871419442000,4.65844189453125,-0.006258423440158367,0.007856318727135658,-0.003195790573954582
1772642871429447200,4.668447265625,-0.004660528153181076,0.0057257916778326035,-0.004793685860931873
1772642871439452400,4.678452392578125,-0.0073236869648098946,0.003595264395698905,-0.005326317623257637
1772642871449457400,4.68845751953125,-0.00519315991550684,0.001997369108721614,-0.0026631588116288185
1772642871459462700,4.698462646484375,-0.0057257916778326035,-0.0011984214652329683,-0.0005326317623257637
1772642871469467600,4.708467529296875,-0.00519315991550684,-0.001731053227558732,-0.0010652635246515274
1772642871479473000,4.718472900390625,-0.00519315991550684,-0.0011984214652329683,-0.0026631588116288185
1772642871489478100,4.72847802734375,-0.004127896390855312,-0.00013315794058144093,-0.007456844672560692
1772642871499483100,4.738483154296875,-0.007856318727135658,0.0009321055840700865,-0.007989476434886456
1772642871509488400,4.74848828125,-0.0073236869648098946,0.0030626326333731413,-0.006391581147909164
1772642871519493600,4.75849365234375,-0.006258423440158367,0.004127896390855312,-0.00426105409860611
1772642871529498600,4.76849853515625,-0.008388950489461422,0.003595264395698905,-0.001597895286977291
1772642871539503900,4.77850390625,-0.009986845776438713,0.004127896390855312,0.0005326317623257637
1772642871549509000,4.788509033203125,-0.007856318727135658,0.004127896390855312,0.005326317623257637
1772642871559514000,4.79851416015625,-0.00519315991550684,0.0057257916778326035,0.005858949385583401
1772642871569519600,4.80851953125,-0.0057257916778326035,0.00945421401411295,0.00426105409860611
1772642871579524900,4.81852490234375,-0.006258423440158367,0.009986845776438713,0.003728422336280346
1772642871589530000,4.828530029296875,-0.006258423440158367,0.012117372825741768,0
1772642871599535400,4.838535400390625,-0.006258423440158367,0.012650004588067532,-0.003195790573954582
1772642871609540900,4.848540771484375,-0.004660528153181076,0.008921582251787186,-0.003195790573954582
1772642871619546000,4.858546142578125,-0.004660528153181076,0.006791055202484131,-0.001597895286977291
1772642871629551400,4.86855126953125,-0.006258423440158367,0.001997369108721614,-0.001597895286977291
1772642871639556600,4.878556640625,-0.00519315991550684,-0.0006657897029072046,-0.003728422336280346
1772642871649562000,4.88856201171875,-0.0025300008710473776,-0.0027963167522102594,-0.001597895286977291
1772642871659567400,4.8985673828125,-0.0025300008710473776,-0.0006657897029072046,0.0026631588116288185
1772642871669572600,4.908572509765625,-0.0014647373463958502,-0.0006657897029072046,0.006924212910234928
1772642871679577900,4.918577880859375,-0.0014647373463958502,-0.00013315794058144093,0.003728422336280346
1772642871689583400,4.928583251953125,-0.0030626326333731413,0.001997369108721614,0.004793685860931873
1772642871699588600,4.938588623046875,-0.00519315991550684,0.004660528153181076,0.003728422336280346
1772642871709593900,4.94859375,-0.00519315991550684,0.006791055202484131,0.002130527049303055
1772642871719599000,4.95859912109375,-0.004660528153181076,0.008388950489461422,0.003728422336280346
1772642871729604600,4.9686044921875,-0.003595264395698905,0.007856318727135658,0.003728422336280346
1772642871739609900,4.97860986328125,-0.001997369108721614,0.00519315991550684,0.004793685860931873
1772642871749615000,4.988614990234375,-0.004127896390855312,0.003595264395698905,0.005326317623257637
1772642871759620400,4.998620361328125,-0.004127896390855312,0.004127896390855312,0.006391581147909164
1772642871769625900,5.0086259765625,-0.004127896390855312,0.006791055202484131,0.005326317623257637
1772642871779631000,5.018631103515625,-0.0009321055840700865,0.0073236869648098946,0.005326317623257637
1772642871789636400,5.02863623046875,0.0011984214652329683,0.007856318727135658,0.001597895286977291
1772642871799641600,5.0386416015625,0.0006657897029072046,0.01105210930109024,-0.0010652635246515274
1772642871809647000,5.048647216796875,0.0006657897029072046,0.01105210930109024,-0.0026631588116288185
1772642871819652400,5.05865234375,0.0011984214652329683,0.010519477538764477,-0.005858949385583401
1772642871829657600,5.06865771484375,0.0022636849898844957,0.00945421401411295,-0.005326317623257637
1772642871839662800,5.078662841796875,0.004926843568682671,0.008388950489461422,0
1772642871849668400,5.08866845703125,0.004926843568682671,0.00945421401411295,0.002130527049303055
1772642871859673600,5.098673583984375,0.004926843568682671,0.0057257916778326035,0.003195790573954582
1772642871869678800,5.108678955078125,0.005992107093334198,0.004660528153181076,0.003195790573954582
1772642871879684000,5.11868408203125,0.005459475331008434,0.001997369108721614,0.0010652635246515274
1772642871889689300,5.128689453125,0.008122634142637253,-0.00013315794058144093,-0.0005326317623257637
1772642871899694800,5.13869482421875,0.008122634142637253,-0.001731053227558732,-0.006924212910234928
1772642871909700000,5.1487001953125,0.008655265904963017,0.0003994738217443228,-0.006924212910234928
1772642871919705300,5.158705322265625,0.00918789766728878,-0.003328948514536023,-0.006924212910234928
1772642871929710600,5.168710693359375,0.008122634142637253,0.001997369108721614,-0.01012000348418951
1772642871939716000,5.178716064453125,0.007057370617985725,0.0025300008710473776,-0.00426105409860611
1772642871949721300,5.188721435546875,0.004394211806356907,0.0025300008710473776,-0.002130527049303055
1772642871959726600,5.1987265625,0.004926843568682671,0.0014647373463958502,0.002130527049303055
1772642871969731800,5.20873193359375,-0.0009321055840700865,-0.003861580276861787,0.009054739959537983
1772642871989742600,5.22874267578125,-0.00519315991550684,-0.008655265904963017,0.007456844672560692
1772642871999747800,5.238747802734375,-0.0030626326333731413,-0.009720529429614544,0.005326317623257637
1772642872009753000,5.248753173828125,-0.0025300008710473776,-0.008655265904963017,0.006924212910234928
1772642872019758600,5.258758544921875,-0.0030626326333731413,-0.007590002380311489,0.007989476434886456
1772642872029763800,5.268763916015625,-0.0014647373463958502,-0.006524738855659962,0.007456844672560692
1772642872039769000,5.27876904296875,-0.0009321055840700865,-0.006524738855659962,0.007456844672560692
1772642872049774300,5.2887744140625,0.00013315794058144093,-0.007057370617985725,0.006391581147909164
1772642872059779600,5.298779541015625,-0.0003994738217443228,-0.00918789766728878,0.005858949385583401
1772642872069784000,5.3087841796875,-0.0009321055840700865,-0.00918789766728878,0.009587371721863747
1772642872079788800,5.318788818359375,-0.0014647373463958502,-0.016112111508846283,0.007456844672560692
1772642872089793500,5.32879345703125,-0.0014647373463958502,-0.016644742339849472,0.004793685860931873
1772642872099798000,5.338798095703125,0.0011984214652329683,-0.016644742339849472,0.00426105409860611
1772642872109802800,5.348802734375,0.0022636849898844957,-0.015579478815197945,0.003195790573954582
1772642872119807500,5.358807373046875,0.005992107093334198,-0.010785792954266071,0.0005326317623257637
1772642872129812200,5.368812255859375,0.008122634142637253,-0.007590002380311489,-0.002130527049303055
1772642872139816700,5.378816650390625,0.00918789766728878,-0.003861580276861787,-0.00426105409860611
1772642872149821400,5.388821533203125,0.008655265904963017,-0.00013315794058144093,-0.005858949385583401
1772642872159826200,5.398826171875,0.007590002380311489,0.0009321055840700865,-0.007989476434886456
1772642872169830700,5.40883056640625,0.005459475331008434,0.0003994738217443228,-0.005326317623257637
1772642872179835400,5.41883544921875,0.006524738855659962,0.001997369108721614,-0.003728422336280346
1772642872189840100,5.428840087890625,0.007057370617985725,0.0030626326333731413,-0.005326317623257637
1772642872199844600,5.4388447265625,0.008655265904963017,0.006791055202484131,-0.005326317623257637
1772642872209849300,5.448849365234375,0.008655265904963017,0.008921582251787186,-0.0026631588116288185
1772642872219854000,5.45885400390625,0.006524738855659962,0.010519477538764477,-0.0005326317623257637
1772642872229858600,5.468858642578125,0.005992107093334198,0.011584741063416004,-0.0005326317623257637
1772642872239863300,5.47886328125,0.0022636849898844957,0.011584741063416004,0.0005326317623257637
1772642872249868000,5.488867919921875,0.003861580276861787,0.013715268112719059,-0.001597895286977291
1772642872259872500,5.49887255859375,0.003861580276861787,0.01531316339969635,-0.0005326317623257637
1772642872269877200,5.508877197265625,0.003328948514536023,0.013715268112719059,0
1772642872289886700,5.52888671875,0.004394211806356907,0.007856318727135658,-0.001597895286977291
1772642872299891200,5.53889111328125,0.0027963167522102594,0.006791055202484131,-0.003728422336280346
1772642872309896000,5.54889599609375,0.0022636849898844957,0.004127896390855312,0.0010652635246515274
1772642872319900700,5.558900634765625,0.0022636849898844957,0.003595264395698905,0.00426105409860611
1772642872329905200,5.5689052734375,0.005992107093334198,0.003595264395698905,0.00426105409860611
1772642872339910000,5.578909912109375,0.003861580276861787,0.003595264395698905,0.003195790573954582
1772642872349914600,5.58891455078125,0.005459475331008434,0.006258423440158367,0.002130527049303055
1772642872359919000,5.598919189453125,0.004926843568682671,0.0073236869648098946,0.003195790573954582
1772642872369923800,5.608923828125,0.005992107093334198,0.00519315991550684,0.001597895286977291
1772642872379928600,5.618928466796875,0.005992107093334198,0.006258423440158367,0.003195790573954582
1772642872389933300,5.628933349609375,0.005459475331008434,0.00519315991550684,0.0026631588116288185
1772642872399937800,5.638937744140625,0.007590002380311489,0.0025300008710473776,0.0005326317623257637
1772642872409942500,5.648942626953125,0.007057370617985725,0.0030626326333731413,0.0005326317623257637
1772642872419947300,5.658947265625,0.007057370617985725,0.003595264395698905,0.0005326317623257637
1772642872429951700,5.66895166015625,0.008122634142637253,0.00519315991550684,0.0005326317623257637
1772642872439956500,5.67895654296875,0.008122634142637253,0.0014647373463958502,-0.003195790573954582
1772642872449961200,5.688961181640625,0.009720529429614544,0.001997369108721614,-0.004793685860931873
1772642872459965700,5.698965576171875,0.008655265904963017,-0.0006657897029072046,-0.007456844672560692
1772642872469970400,5.708970458984375,0.008655265904963017,-0.0022636849898844957,-0.007989476434886456
1772642872479975200,5.71897509765625,0.008655265904963017,-0.005992107093334198,-0.007456844672560692
1772642872489979600,5.728979736328125,0.010785792954266071,-0.004394211806356907,-0.004793685860931873
1772642872499984400,5.738984375,0.008655265904963017,-0.003861580276861787,-0.003728422336280346
1772642872519993600,5.75899365234375,0.007590002380311489,0.0025300008710473776,-0.0026631588116288185
1772642872529998300,5.768998291015625,0.007057370617985725,0.006791055202484131,-0.003728422336280346
1772642872540003000,5.779003173828125,0.007590002380311489,0.01105210930109024,-0.006391581147909164
1772642872550007600,5.789007568359375,0.004394211806356907,0.01584579423069954,-0.01012000348418951
1772642872560012300,5.79901220703125,0.003328948514536023,0.018508953973650932,-0.012783162295818329
1772642872570016800,5.809016845703125,-0.001997369108721614,0.018508953973650932,-0.012250530533492565
1772642872580021200,5.819021240234375,-0.0025300008710473776,0.013182636350393295,-0.00852210819721222
1772642872590025700,5.829025634765625,-0.003595264395698905,0.018508953973650932,-0.004793685860931873
1772642872600030200,5.8390302734375,-0.0057257916778326035,0.016911057755351067,-0.001597895286977291
1772642872610034700,5.84903466796875,-0.00945421401411295,0.017443690448999405,-0.0005326317623257637
1772642872620039200,5.8590390625,-0.013715268112719059,0.016378426924347878,0.002130527049303055
1772642872630043600,5.869043701171875,-0.013182636350393295,0.01584579423069954,0.002130527049303055
1772642872640048000,5.879048095703125,-0.017443690448999405,0.01904158480465412,0.003195790573954582
1772642872650052600,5.889052490234375,-0.01584579423069954,0.016378426924347878,0.003195790573954582
1772642872660057000,5.89905712890625,-0.012650004588067532,0.014780531637370586,0
1772642872670061600,5.9090615234375,-0.012117372825741768,0.014247899875044823,0.0026631588116288185
1772642872680066000,5.919066162109375,-0.008921582251787186,0.01105210930109024,0.003195790573954582
1772642872690070500,5.929070556640625,-0.0073236869648098946,0.006791055202484131,0.00426105409860611
1772642872700075000,5.939074951171875,-0.003595264395698905,0.008388950489461422,0.003195790573954582
1772642872710079500,5.94907958984375,-0.001997369108721614,0.0073236869648098946,0.0026631588116288185
1772642872720084000,5.959083984375,0.00013315794058144093,0.008388950489461422,0.0005326317623257637
1772642872730088400,5.96908837890625,0.0011984214652329683,0.00519315991550684,0
1772642872740093000,5.979093017578125,0.0027963167522102594,0.006258423440158367,-0.004793685860931873
1772642872750097400,5.989097412109375,0.003861580276861787,0.004127896390855312,-0.00426105409860611
1772642872760102000,5.999101806640625,0.005459475331008434,0.0030626326333731413,-0.005326317623257637
1772642872770106400,6.0091064453125,0.005992107093334198,0.0030626326333731413,-0.003195790573954582
1772642872780110800,6.01911083984375,0.00918789766728878,0.004127896390855312,-0.003728422336280346
1772642872790115300,6.029115234375,0.00918789766728878,0.0057257916778326035,-0.002130527049303055
1772642872800119800,6.039119873046875,0.009720529429614544,0.0073236869648098946,-0.003728422336280346
1772642872810124300,6.049124267578125,0.005992107093334198,0.006791055202484131,-0.002130527049303055
1772642872820128800,6.059128662109375,0.003861580276861787,0.006791055202484131,-0.003195790573954582
1772642872830133200,6.06913330078125,0.00013315794058144093,0.0030626326333731413,-0.003728422336280346
1772642872840137700,6.0791376953125,-0.0014647373463958502,0.0025300008710473776,-0.003728422336280346
1772642872850142200,6.08914208984375,-0.003595264395698905,0.0014647373463958502,-0.005326317623257637
1772642872860146700,6.099146728515625,-0.001997369108721614,0.00519315991550684,-0.003728422336280346
1772642872870151200,6.109151123046875,-0.0025300008710473776,0.007856318727135658,-0.003195790573954582
1772642872880155600,6.11915576171875,-0.0009321055840700865,0.011584741063416004,-0.00426105409860611
1772642872890160000,6.12916015625,0.0006657897029072046,0.012117372825741768,-0.003728422336280346
1772642872900164600,6.13916455078125,-0.0014647373463958502,0.013182636350393295,-0.00426105409860611
1772642872910169000,6.149169189453125,-0.0014647373463958502,0.012117372825741768,-0.0026631588116288185
1772642872920173600,6.159173583984375,0.0011984214652329683,0.010519477538764477,-0.003195790573954582
1772642872930178000,6.169177978515625,-0.0014647373463958502,0.007856318727135658,-0.002130527049303055
1772642872940182500,6.1791826171875,-0.0009321055840700865,0.0057257916778326035,-0.00426105409860611
1772642872950187000,6.18918701171875,-0.0009321055840700865,0.0025300008710473776,-0.003728422336280346
1772642872960191500,6.19919140625,0.00013315794058144093,0.0025300008710473776,0.0010652635246515274
1772642872970196000,6.209196044921875,0.001731053227558732,0.0003994738217443228,0.001597895286977291
1772642872980200400,6.219200439453125,-0.0003994738217443228,-0.004394211806356907,0.003195790573954582
1772642872990205000,6.229204833984375,-0.0009321055840700865,-0.00918789766728878,0.004793685860931873
1772642873000209400,6.23920947265625,-0.0030626326333731413,-0.007057370617985725,0.001597895286977291
1772642873010214000,6.2492138671875,-0.004127896390855312,-0.003861580276861787,0.0005326317623257637
1772642873020218400,6.25921826171875,-0.00519315991550684,-0.003861580276861787,-0.005326317623257637
1772642873030222800,6.269222900390625,-0.006258423440158367,-0.0027963167522102594,-0.005326317623257637
1772642873040227300,6.279227294921875,-0.007856318727135658,-0.0027963167522102594,-0.003195790573954582
1772642873050231800,6.289231689453125,-0.010519477538764477,-0.003861580276861787,-0.002130527049303055
1772642873060236500,6.299236572265625,-0.012650004588067532,-0.008655265904963017,-0.001597895286977291
1772642873070241500,6.309241455078125,-0.012650004588067532,-0.011851056478917599,0.003195790573954582
1772642873080246500,6.31924658203125,-0.011584741063416004,-0.012383688241243362,0.003728422336280346
1772642873090251800,6.329251708984375,-0.006258423440158367,-0.006524738855659962,0.006924212910234928
1772642873100256800,6.3392568359375,-0.004660528153181076,-0.008655265904963017,0.005326317623257637
1772642873110262000,6.349261962890625,-0.004127896390855312,-0.003861580276861787,0.00426105409860611
1772642873120267000,6.35926708984375,-0.0030626326333731413,-0.0006657897029072046,0.003728422336280346
1772642873130272300,6.369272216796875,-0.004660528153181076,0.0030626326333731413,0.001597895286977291
1772642873140277200,6.37927734375,-0.0073236869648098946,0.0025300008710473776,-0.0005326317623257637
1772642873150282200,6.3892822265625,-0.01105210930109024,-0.00013315794058144093,-0.0010652635246515274
1772642873160287500,6.39928759765625,-0.014247899875044823,-0.0027963167522102594,-0.004793685860931873
1772642873170292500,6.40929248046875,-0.013715268112719059,-0.001731053227558732,-0.00426105409860611
1772642873180297700,6.419297607421875,-0.01531316339969635,-0.0011984214652329683,-0.0005326317623257637
1772642873190302700,6.429302734375,-0.01531316339969635,0.001997369108721614,-0.001597895286977291
1772642873200307700,6.4393076171875,-0.013715268112719059,0.006791055202484131,-0.0026631588116288185
1772642873210313000,6.44931298828125,-0.012650004588067532,0.009986845776438713,-0.003728422336280346
1772642873220318000,6.45931787109375,-0.012117372825741768,0.013182636350393295,-0.005326317623257637
1772642873230323200,6.4693232421875,-0.013715268112719059,0.013182636350393295,-0.00426105409860611
1772642873240328200,6.479328125,-0.014247899875044823,0.01531316339969635,-0.003728422336280346
1772642873250333200,6.489333251953125,-0.01105210930109024,0.018508953973650932,-0.004793685860931873
1772642873260338400,6.49933837890625,-0.009986845776438713,0.017443690448999405,-0.005858949385583401
1772642873270343400,6.509343505859375,-0.008921582251787186,0.016378426924347878,-0.004793685860931873
1772642873280348700,6.5193486328125,-0.01105210930109024,0.011584741063416004,-0.009054739959537983
1772642873290353700,6.529353759765625,-0.01105210930109024,0.0073236869648098946,-0.010652635246515274
1772642873300358700,6.539358642578125,-0.00945421401411295,0.008388950489461422,-0.006391581147909164
1772642873310364000,6.549364013671875,-0.01105210930109024,0.008388950489461422,-0.006924212910234928
1772642873320369000,6.559368896484375,-0.00945421401411295,0.010519477538764477,-0.0026631588116288185
1772642873330374100,6.5693740234375,-0.009986845776438713,0.009986845776438713,-0.0026631588116288185
1772642873340379100,6.579379150390625,-0.012117372825741768,0.008921582251787186,-0.0026631588116288185
1772642873350384000,6.589384033203125,-0.012117372825741768,0.007856318727135658,-0.0010652635246515274
1772642873360389400,6.599389404296875,-0.01105210930109024,0.011584741063416004,-0.0005326317623257637
1772642873370394400,6.609394287109375,-0.010519477538764477,0.012650004588067532,-0.002130527049303055
1772642873380399600,6.619399658203125,-0.0073236869648098946,0.016911057755351067,-0.00426105409860611
1772642873390404600,6.629404541015625,-0.008388950489461422,0.013182636350393295,-0.005858949385583401
1772642873400409600,6.63940966796875,-0.006791055202484131,0.00945421401411295,-0.005858949385583401
1772642873410414800,6.649414794921875,-0.00519315991550684,0.0073236869648098946,-0.005858949385583401
1772642873420419800,6.659419921875,-0.001997369108721614,0.004127896390855312,-0.003728422336280346
1772642873430425000,6.669425048828125,0.0027963167522102594,0.0057257916778326035,-0.0010652635246515274
1772642873440430000,6.67943017578125,0.004394211806356907,0.004127896390855312,-0.0005326317623257637
1772642873450435000,6.68943505859375,0.007057370617985725,0.0025300008710473776,-0.003195790573954582
1772642873460440300,6.6994404296875,0.005992107093334198,0.0025300008710473776,-0.006391581147909164
1772642873470445300,6.7094453125,0.008122634142637253,-0.0006657897029072046,-0.007989476434886456
1772642873480450600,6.719450439453125,0.006524738855659962,-0.0027963167522102594,-0.007456844672560692
1772642873490455600,6.72945556640625,0.004926843568682671,-0.006524738855659962,-0.004793685860931873
1772642873500460500,6.73946044921875,0.005992107093334198,-0.008122634142637253,-0.004793685860931873
1772642873510465800,6.7494658203125,0.007057370617985725,-0.008122634142637253,-0.001597895286977291
1772642873520470800,6.759470703125,0.007590002380311489,-0.007057370617985725,0.0005326317623257637
1772642873530475800,6.769475830078125,0.006524738855659962,-0.005992107093334198,0.004793685860931873
1772642873540481000,6.77948095703125,0.005992107093334198,-0.005459475331008434,0.006391581147909164
1772642873550486000,6.789486083984375,0.003861580276861787,-0.004394211806356907,0.006391581147909164
1772642873560491000,6.799490966796875,0.0006657897029072046,-0.00918789766728878,0.005858949385583401
1772642873570496000,6.80949609375,-0.0014647373463958502,-0.008655265904963017,0.005326317623257637
1772642873580500700,6.819500732421875,-0.0009321055840700865,-0.009720529429614544,0.003728422336280346
1772642873590505500,6.82950537109375,-0.001997369108721614,-0.00918789766728878,0.003195790573954582
1772642873600510500,6.839510498046875,0.0006657897029072046,-0.008655265904963017,0.003728422336280346
1772642873610515200,6.84951513671875,0.0022636849898844957,-0.004394211806356907,0.003195790573954582
1772642873620520200,6.859520263671875,0.004926843568682671,-0.001731053227558732,0.002130527049303055
1772642873630525000,6.86952490234375,0.003861580276861787,0.0009321055840700865,0.002130527049303055
1772642873640530000,6.879530029296875,0.004394211806356907,0.0014647373463958502,0.0026631588116288185
1772642873650534700,6.88953466796875,0.003861580276861787,0.0014647373463958502,0.003728422336280346
1772642873660539400,6.899539306640625,0.003861580276861787,-0.0027963167522102594,0.0026631588116288185
1772642873670544400,6.90954443359375,0.003328948514536023,-0.004394211806356907,0.003728422336280346
1772642873680549000,6.919549072265625,0.004394211806356907,-0.007590002380311489,0.0005326317623257637
1772642873690553900,6.929553955078125,0.0027963167522102594,-0.006524738855659962,-0.0005326317623257637
1772642873700558800,6.939558837890625,0.003328948514536023,-0.004394211806356907,-0.0026631588116288185
1772642873710563600,6.9495634765625,0.005992107093334198,-0.0006657897029072046,0
1772642873720568600,6.959568603515625,0.006524738855659962,0.003595264395698905,0
1772642873730573300,6.9695732421875,0.005992107093334198,0.004127896390855312,-0.001597895286977291
1772642873740578000,6.979578125,0.004394211806356907,0.00519315991550684,-0.001597895286977291
1772642873750583000,6.9895830078125,0.003861580276861787,0.006258423440158367,-0.003728422336280346
1772642873760587800,6.999587890625,0.004926843568682671,0.003595264395698905,-0.007456844672560692
1772642873770592800,7.0095927734375,0.004926843568682671,0.0025300008710473776,-0.005858949385583401
1772642873780597500,7.019597412109375,0.004926843568682671,0.0014647373463958502,-0.003195790573954582
1772642873790602200,7.029602294921875,0.004926843568682671,0.003595264395698905,-0.0026631588116288185
1772642873800607200,7.039607177734375,0.004394211806356907,0.0073236869648098946,-0.002130527049303055
1772642873810612000,7.049612060546875,0.0022636849898844957,0.007856318727135658,-0.003195790573954582
1772642873820617000,7.059616943359375,0.003861580276861787,0.008921582251787186,-0.00426105409860611
1772642873830621700,7.06962158203125,0.001731053227558732,0.0073236869648098946,-0.005858949385583401
1772642873840626400,7.07962646484375,-0.0014647373463958502,0.00519315991550684,-0.006924212910234928
1772642873850631400,7.08963134765625,-0.0025300008710473776,0.006791055202484131,-0.007989476434886456
1772642873860636200,7.09963623046875,-0.003595264395698905,0.008388950489461422,-0.006391581147909164
1772642873880646000,7.11964599609375,-0.006258423440158367,0.012650004588067532,-0.003195790573954582
1772642873890650600,7.129650634765625,-0.0073236869648098946,0.010519477538764477,-0.003195790573954582
1772642873900655600,7.139655517578125,-0.00945421401411295,0.014780531637370586,0
1772642873910660400,7.149660400390625,-0.01105210930109024,0.01531316339969635,0.003195790573954582
1772642873920665000,7.1596650390625,-0.008921582251787186,0.016378426924347878,0.00426105409860611
1772642873930670000,7.169670166015625,-0.007856318727135658,0.020639481022953987,0.005858949385583401
1772642873940674800,7.1796748046875,-0.0073236869648098946,0.022770008072257042,0.005326317623257637
1772642873950679800,7.1896796875,-0.004127896390855312,0.02383527159690857,0.004793685860931873
1772642873960684500,7.1996845703125,-0.0014647373463958502,0.02809632569551468,-0.0005326317623257637
1772642873970689300,7.209689208984375,-0.0009321055840700865,0.033955276012420654,-0.002130527049303055
1772642873980694300,7.2196943359375,-0.0009321055840700865,0.03235737979412079,-0.002130527049303055
1772642873990699000,7.229698974609375,0.00013315794058144093,0.02809632569551468,-0.007456844672560692
1772642874000703700,7.239703857421875,0.00013315794058144093,0.020639481022953987,-0.009587371721863747
1772642874010708700,7.249708740234375,0.003328948514536023,0.01531316339969635,-0.006924212910234928
1772642874020713500,7.25971337890625,0.005992107093334198,0.013715268112719059,-0.002130527049303055
1772642874030718500,7.269718505859375,0.005992107093334198,0.008921582251787186,0.0005326317623257637
1772642874040723200,7.27972314453125,0.008122634142637253,0.003595264395698905,-0.0010652635246515274
1772642874050728200,7.289728271484375,0.004394211806356907,0.001997369108721614,-0.002130527049303055
1772642874060733000,7.29973291015625,0.005992107093334198,0.004127896390855312,-0.005858949385583401
1772642874070738000,7.309738037109375,0.005459475331008434,0.0030626326333731413,-0.005326317623257637
1772642874080742700,7.31974267578125,0.007590002380311489,0.0014647373463958502,-0.005858949385583401
1772642874090747600,7.32974755859375,0.008655265904963017,0.0009321055840700865,-0.00426105409860611
1772642874100752600,7.339752685546875,0.010253161191940308,-0.003861580276861787,-0.0010652635246515274
1772642874110757600,7.349757568359375,0.010785792954266071,-0.0022636849898844957,0.002130527049303055
1772642874120762400,7.359762451171875,0.007057370617985725,-0.003861580276861787,0.003728422336280346
1772642874130767400,7.369767333984375,0.007590002380311489,-0.005459475331008434,0.003728422336280346
1772642874140772400,7.3797724609375,0.005459475331008434,-0.00918789766728878,0.005326317623257637
1772642874150777000,7.389777099609375,0.005459475331008434,-0.010253161191940308,0.005326317623257637
1772642874160782000,7.399781982421875,0.005459475331008434,-0.012383688241243362,0.003728422336280346
1772642874170787000,7.409787109375,0.006524738855659962,-0.012383688241243362,0.003195790573954582
1772642874180791800,7.419791748046875,0.008122634142637253,-0.011851056478917599,0.0005326317623257637
1772642874190796800,7.429796875,0.00918789766728878,-0.012916320003569126,0
1772642874200801800,7.4398017578125,0.010253161191940308,-0.010785792954266071,0.001597895286977291
1772642874210806800,7.449806884765625,0.007590002380311489,-0.015046847052872181,0.0005326317623257637
1772642874220811500,7.4598115234375,0.009720529429614544,-0.019307902082800865,0.0026631588116288185
1772642874230816500,7.46981640625,0.00918789766728878,-0.02090579643845558,0.006391581147909164
1772642874240821500,7.479821533203125,0.009720529429614544,-0.024634219706058502,0.009054739959537983
1772642874250826200,7.489826171875,0.008655265904963017,-0.023568956181406975,0.013848425820469856
1772642874260831200,7.499831298828125,0.012383688241243362,-0.024634219706058502,0.013315794058144093
1772642874270836200,7.509836181640625,0.011851056478917599,-0.024634219706058502,0.01012000348418951
1772642874280841000,7.519841064453125,0.010253161191940308,-0.023568956181406975,0.006391581147909164
1772642874290846000,7.529845947265625,0.012383688241243362,-0.018775269389152527,0.00426105409860611
1772642874300851000,7.539850830078125,0.012916320003569126,-0.016644742339849472,0.001597895286977291
1772642874310855700,7.549855712890625,0.012383688241243362,-0.018775269389152527,-0.0010652635246515274
1772642874320860700,7.559860595703125,0.011851056478917599,-0.019307902082800865,0.0005326317623257637
1772642874330865700,7.56986572265625,0.010253161191940308,-0.023036323487758636,0.003728422336280346
1772642874340870700,7.57987060546875,0.010785792954266071,-0.024101587012410164,0.007989476434886456
1772642874350875400,7.58987548828125,0.010785792954266071,-0.02197105996310711,0.006924212910234928
1772642874360880400,7.59988037109375,0.011318424716591835,-0.02197105996310711,0.005858949385583401
1772642874370885400,7.609885498046875,0.010785792954266071,-0.018775269389152527,0.004793685860931873
1772642874380890000,7.61989013671875,0.007590002380311489,-0.018775269389152527,0.005326317623257637
1772642874390895000,7.62989501953125,0.003861580276861787,-0.01717737503349781,0.00426105409860611
1772642874400900000,7.639900146484375,0.0027963167522102594,-0.015579478815197945,0.005326317623257637
1772642874410905000,7.649905029296875,0.001731053227558732,-0.012916320003569126,0.007456844672560692
1772642874420909800,7.659909912109375,0.001731053227558732,-0.008655265904963017,0.007456844672560692
1772642874430914800,7.669914794921875,0.003328948514536023,-0.005992107093334198,0.007456844672560692
1772642874440919800,7.679919921875,0.004926843568682671,-0.004926843568682671,0.007456844672560692
1772642874450924500,7.689924560546875,0.004926843568682671,-0.0027963167522102594,0.0010652635246515274
1772642874460929500,7.699929443359375,0.003328948514536023,0.0009321055840700865,0.0005326317623257637
1772642874470934500,7.7099345703125,0.003328948514536023,0.004127896390855312,-0.001597895286977291
1772642874480939300,7.719939208984375,0.005459475331008434,-0.00013315794058144093,-0.003728422336280346
1772642874490944300,7.7299443359375,0.004394211806356907,0.0003994738217443228,-0.002130527049303055
1772642874500949200,7.73994921875,0.005459475331008434,-0.00013315794058144093,-0.0010652635246515274
1772642874510954200,7.749954345703125,0.004926843568682671,-0.00013315794058144093,0
1772642874520959000,7.759958984375,0.004394211806356907,0.0030626326333731413,0.0005326317623257637
1772642874530964000,7.7699638671875,0.007057370617985725,0.00519315991550684,0.0010652635246515274
1772642874540969000,7.779968994140625,0.007057370617985725,0.006258423440158367,0.0005326317623257637
1772642874550973700,7.7899736328125,0.005459475331008434,0.0073236869648098946,0.0010652635246515274
1772642874560978400,7.799978515625,0.007057370617985725,0.006258423440158367,-0.0026631588116288185
1772642874570983200,7.809983154296875,0.005459475331008434,0.0057257916778326035,-0.0026631588116288185
1772642874580987600,7.819987548828125,0.007057370617985725,0.004127896390855312,-0.0005326317623257637
1772642874590992400,7.829992431640625,0.007057370617985725,0.003595264395698905,0
1772642874600996900,7.839996826171875,0.008122634142637253,0.004127896390855312,0.001597895286977291
1772642874611001600,7.850001708984375,0.007057370617985725,0.004660528153181076,0.003195790573954582
1772642874621006000,7.860006103515625,0.010253161191940308,0.0030626326333731413,0.003728422336280346
1772642874631010800,7.8700107421875,0.006524738855659962,-0.00013315794058144093,0.002130527049303055
1772642874641015300,7.880015380859375,0.007057370617985725,-0.0011984214652329683,0.0010652635246515274
1772642874651019800,7.890019775390625,0.006524738855659962,-0.0022636849898844957,-0.0005326317623257637
1772642874661024500,7.9000244140625,0.005459475331008434,-0.004394211806356907,-0.0026631588116288185
1772642874671029000,7.910029052734375,0.006524738855659962,-0.004394211806356907,-0.00426105409860611
1772642874681033700,7.92003369140625,0.005459475331008434,-0.004394211806356907,-0.0026631588116288185
1772642874701042700,7.940042724609375,0.004394211806356907,-0.0011984214652329683,0
1772642874711047400,7.95004736328125,0.004926843568682671,-0.0006657897029072046,0.004793685860931873
1772642874721052000,7.960052001953125,0.007057370617985725,-0.00013315794058144093,0.004793685860931873
1772642874731056600,7.970056640625,0.007590002380311489,-0.003328948514536023,0.006924212910234928
1772642874741061000,7.98006103515625,0.008122634142637253,-0.0011984214652329683,0.00426105409860611
1772642874751065900,7.99006591796875,0.009720529429614544,-0.003861580276861787,0.005326317623257637
1772642874761070300,8.0000703125,0.009720529429614544,-0.005459475331008434,0.001597895286977291
1772642874771074800,8.01007470703125,0.010253161191940308,-0.003861580276861787,-0.001597895286977291
1772642874781079600,8.02007958984375,0.011318424716591835,-0.004926843568682671,-0.003728422336280346
1772642874791084000,8.030083984375,0.010253161191940308,-0.0027963167522102594,-0.005858949385583401
1772642874801088800,8.0400888671875,0.008655265904963017,-0.0027963167522102594,-0.00426105409860611
1772642874811093200,8.05009326171875,0.007057370617985725,-0.003861580276861787,-0.004793685860931873
1772642874821098000,8.060097900390625,0.007590002380311489,0.0025300008710473776,-0.0026631588116288185
1772642874831102500,8.0701025390625,0.004926843568682671,0.001997369108721614,-0.0010652635246515274
1772642874841107000,8.08010693359375,0.0027963167522102594,0.001997369108721614,0.0010652635246515274
1772642874851111700,8.090111572265625,0.003861580276861787,0.004660528153181076,0.0026631588116288185
1772642874861116200,8.1001162109375,0.0022636849898844957,0.004127896390855312,0.002130527049303055
1772642874871121000,8.110120849609375,0.003328948514536023,0.001997369108721614,0.0010652635246515274
1772642874881125400,8.12012548828125,0.0027963167522102594,0.0014647373463958502,0.0005326317623257637
1772642874891129900,8.1301298828125,0.0027963167522102594,-0.0022636849898844957,0
1772642874901134600,8.140134521484375,0.004394211806356907,-0.0027963167522102594,-0.0010652635246515274
1772642874911139000,8.15013916015625,0.004394211806356907,0.0003994738217443228,-0.0005326317623257637
1772642874921143800,8.160143798828125,0.005992107093334198,-0.001731053227558732,0.0005326317623257637
1772642874931148300,8.170148193359376,0.004394211806356907,0.001997369108721614,0.002130527049303055
1772642874941153000,8.180153076171875,0.0027963167522102594,0.0009321055840700865,0.0026631588116288185
1772642874951157500,8.190157470703125,0.001731053227558732,-0.0022636849898844957,0.0010652635246515274
1772642874961162000,8.200161865234374,0.0006657897029072046,-0.0011984214652329683,0.0026631588116288185
1772642874971166700,8.210166748046875,0.0011984214652329683,-0.00013315794058144093,0.00426105409860611
1772642874981171200,8.220171142578126,0.001731053227558732,-0.003328948514536023,0.003728422336280346
1772642874991176000,8.230176025390625,0.0022636849898844957,-0.003861580276861787,0.004793685860931873
1772642875001180400,8.240180419921876,0.0011984214652329683,-0.0006657897029072046,0.004793685860931873
1772642875011185000,8.250184814453124,0.003861580276861787,0.0014647373463958502,0.002130527049303055
1772642875021189600,8.260189697265625,0.004926843568682671,0.0025300008710473776,0.0010652635246515274
1772642875031194000,8.270194091796874,0.003861580276861787,0.006791055202484131,0.003195790573954582
1772642875041198800,8.28019873046875,0.003861580276861787,0.007856318727135658,0.00426105409860611
1772642875051203300,8.290203369140626,0.004926843568682671,0.0073236869648098946,0.001597895286977291
1772642875061208000,8.3002080078125,0.003328948514536023,0.0057257916778326035,0.001597895286977291
1772642875071213000,8.310213134765625,0.004394211806356907,0.001997369108721614,-0.0010652635246515274
1772642875081218000,8.320218017578124,0.004394211806356907,-0.0027963167522102594,0.001597895286977291
1772642875091223300,8.330223388671875,0.003861580276861787,-0.0006657897029072046,0.005858949385583401
1772642875101228300,8.340228271484374,0.0027963167522102594,0.0030626326333731413,0.006391581147909164
1772642875121238300,8.36023828125,0.005459475331008434,0.012650004588067532,0.006924212910234928
1772642875131243300,8.3702431640625,0.005459475331008434,0.014247899875044823,0.004793685860931873
1772642875141248300,8.380248291015626,0.005459475331008434,0.013182636350393295,0.003728422336280346
1772642875151253200,8.390253173828125,0.005992107093334198,0.011584741063416004,0.001597895286977291
1772642875161258200,8.40025830078125,0.004926843568682671,0.008388950489461422,-0.0005326317623257637
1772642875171263200,8.41026318359375,0.006524738855659962,0.0073236869648098946,0.0010652635246515274
1772642875181268200,8.420268310546875,0.008655265904963017,0.0030626326333731413,0.002130527049303055
1772642875191273200,8.430273193359374,0.00918789766728878,0.006258423440158367,0.0010652635246515274
1772642875201278500,8.440278564453125,0.011318424716591835,0.00945421401411295,-0.0010652635246515274
1772642875211283500,8.450283447265624,0.008655265904963017,0.014247899875044823,-0.005858949385583401
1772642875221288400,8.460288330078125,0.007590002380311489,0.018508953973650932,-0.007989476434886456
1772642875231293400,8.47029345703125,0.006524738855659962,0.02010684832930565,-0.007456844672560692
1772642875241298400,8.48029833984375,0.005992107093334198,0.02010684832930565,-0.01012000348418951
1772642875251303400,8.490303466796876,0.0027963167522102594,0.018508953973650932,-0.006924212910234928
1772642875261308400,8.500308349609375,0.0022636849898844957,0.01584579423069954,-0.0010652635246515274
1772642875271313400,8.5103134765625,0.003328948514536023,0.01584579423069954,0.003195790573954582
1772642875281318400,8.520318359375,0.003328948514536023,0.016911057755351067,0.007989476434886456
1772642875291323400,8.530323486328125,0.0022636849898844957,0.014247899875044823,0.01012000348418951
1772642875301328400,8.540328369140624,0.001731053227558732,0.01105210930109024,0.010652635246515274
1772642875311333600,8.550333740234375,-0.0003994738217443228,0.012117372825741768,0.009054739959537983
1772642875321338600,8.560338623046874,0.0011984214652329683,0.012650004588067532,0.006391581147909164
1772642875331343600,8.570343505859375,0.0027963167522102594,0.013182636350393295,0.003195790573954582
1772642875341348600,8.5803486328125,0.004394211806356907,0.01105210930109024,0.003195790573954582
1772642875351353600,8.590353515625,0.005992107093334198,0.0073236869648098946,0.0005326317623257637
1772642875361358600,8.600358642578126,0.005992107093334198,0.00519315991550684,0.001597895286977291
1772642875371363600,8.610363525390625,0.004394211806356907,0.0009321055840700865,0.001597895286977291
1772642875381368600,8.62036865234375,0.007590002380311489,-0.0011984214652329683,0.002130527049303055
1772642875391373600,8.63037353515625,0.007057370617985725,-0.0006657897029072046,0.001597895286977291
1772642875401378600,8.640378662109375,0.007590002380311489,-0.003328948514536023,0.0005326317623257637
1772642875411383600,8.650383544921874,0.008655265904963017,-0.006524738855659962,0.0010652635246515274
1772642875421388500,8.660388427734375,0.008122634142637253,-0.007057370617985725,0.0010652635246515274
1772642875431393500,8.6703935546875,0.008122634142637253,-0.006524738855659962,0.00426105409860611
1772642875441398800,8.680398681640625,0.011318424716591835,-0.003328948514536023,0.003195790573954582
1772642875451403800,8.69040380859375,0.010785792954266071,-0.003328948514536023,0.00426105409860611
1772642875461408800,8.70040869140625,0.010785792954266071,-0.003861580276861787,0.00426105409860611
1772642875471413800,8.710413818359376,0.012916320003569126,-0.007590002380311489,0.005326317623257637
1772642875481418800,8.720418701171875,0.01344895176589489,-0.008655265904963017,0.006924212910234928
1772642875491423700,8.730423828125,0.013981583528220654,-0.009720529429614544,0.006924212910234928
1772642875501428700,8.7404287109375,0.015046847052872181,-0.008655265904963017,0.009587371721863747
1772642875511433700,8.750433837890625,0.013981583528220654,-0.011318424716591835,0.009054739959537983
1772642875521438700,8.760438720703124,0.012383688241243362,-0.010785792954266071,0.010652635246515274
1772642875531443700,8.770443603515625,0.008655265904963017,-0.006524738855659962,0.005858949385583401
1772642875541448700,8.78044873046875,0.009720529429614544,-0.003861580276861787,0.00426105409860611
1772642875551453700,8.79045361328125,0.010253161191940308,0.0009321055840700865,-0.0005326317623257637
1772642875561458700,8.800458740234374,0.010785792954266071,0.0057257916778326035,0
1772642875571463700,8.810463623046875,0.00918789766728878,0.007856318727135658,-0.001597895286977291
1772642875581468400,8.820468505859376,0.010253161191940308,0.006791055202484131,-0.004793685860931873
1772642875601478100,8.84047802734375,0.008122634142637253,0.0073236869648098946,-0.0005326317623257637
1772642875611483000,8.85048291015625,0.008122634142637253,0.004127896390855312,0.002130527049303055
1772642875621487600,8.860487548828125,0.008122634142637253,0.004660528153181076,0.003195790573954582
1772642875631492600,8.87049267578125,0.008655265904963017,0.00519315991550684,0.005326317623257637
1772642875641497300,8.880497314453125,0.008655265904963017,0.0073236869648098946,0.006924212910234928
1772642875651502000,8.890502197265626,0.00918789766728878,0.007856318727135658,0.003728422336280346
1772642875661507000,8.900507080078125,0.00918789766728878,0.004127896390855312,0.0026631588116288185
1772642875671511800,8.91051171875,0.009720529429614544,0.003595264395698905,0.002130527049303055
1772642875681516500,8.9205166015625,0.010253161191940308,-0.0011984214652329683,0.001597895286977291
1772642875691521500,8.930521484375,0.010253161191940308,-0.004926843568682671,0
1772642875701526300,8.9405263671875,0.009720529429614544,-0.004394211806356907,0.0010652635246515274
1772642875711531300,8.95053125,0.010253161191940308,-0.008122634142637253,-0.003728422336280346
1772642875721536000,8.960535888671876,0.011318424716591835,-0.004394211806356907,0.00426105409860611
1772642875731540700,8.970540771484375,0.012383688241243362,0.008388950489461422,0.02077263966202736
1772642875741545700,8.980545654296876,0.01344895176589489,0.003595264395698905,0.00426105409860611
1772642875751550500,8.990550537109375,0.017710005864501,0.008388950489461422,0.013315794058144093
1772642875761555200,9.00055517578125,0.016112111508846283,0.0014647373463958502,0.006924212910234928
1772642875771560200,9.010560302734374,0.010785792954266071,-0.0022636849898844957,0.0010652635246515274
1772642875781565000,9.02056494140625,0.00918789766728878,-0.005459475331008434,0.004793685860931873
1772642875791569700,9.030569580078126,0.010253161191940308,-0.004394211806356907,0.001597895286977291
1772642875801574700,9.04057470703125,0.007057370617985725,-0.005992107093334198,-0.0010652635246515274
1772642875811579400,9.050579345703126,0.006524738855659962,-0.012383688241243362,-0.006391581147909164
1772642875821584100,9.060584228515625,0.003328948514536023,-0.02197105996310711,-0.007456844672560692
1772642875831589000,9.070589111328125,0.005992107093334198,-0.014514215290546417,0.0026631588116288185
