time,seconds_elapsed,z,y,x
1772643995218225000,0.069224853515625,0.08302899634242057,0.004218786738812924,0.0031025508589111266
1772643995228266000,0.079265869140625,0.10008885221481323,-0.0014887407204136251,0.0017231613976415245
1772643995238307000,0.08930712890625,0.0951531493782997,0.007123458671756088,-0.0012705861913971603
1772643995248347100,0.09934716796875,0.09769698864221572,0.0011178981140255928,0.00535780983925797
1772643995258388000,0.109387939453125,0.08063888633549213,0.009914002705737947,-0.00242407620861195
1772643995268429000,0.119428955078125,0.09994096817672252,0.011908866317383944,0.007137806857516989
1772643995278470100,0.12947021484375,0.10652443822026252,0.011609079653210938,0.0035766529103741047
1772643995288510200,0.13951025390625,0.0930576384037733,0.001252228550799191,0.007055562801007181
1772643995298551000,0.149551025390625,0.0848275701969862,0.004882328681461513,0.01310120877395384
1772643995308592000,0.159592041015625,0.0964998878121376,-0.0008140928618609904,0.014159330391604453
1772643995318633000,0.169633056640625,0.07495324191451072,0.006762406807020306,0.008772385789407417
1772643995328674000,0.179674072265625,0.09709785370528698,0.023710253672301767,0.012103548639267683
1772643995338714000,0.189714111328125,0.0951531493782997,-0.0009697948802262544,0.0044321554948575795
1772643995348755200,0.199755126953125,0.08976561112105846,0.007866459058783947,-0.000627913506841287
1772643995358796000,0.209796142578125,0.08901566953659057,0.0034142654228955507,-0.0010403210994787513
1772643995368837000,0.219837158203125,0.09559972410202026,-0.0019911372845992444,-0.003261056755715981
1772643995378877200,0.229877197265625,0.09290624723434447,0.008826609327830373,0.008168766473606228
1772643995388918300,0.239918212890625,0.1011357309192419,0.006941343570500612,0.0012154676038306205
1772643995398959000,0.249958984375,0.08497603875696659,0.0018053689215332268,-0.00477473098798655
1772643995409000200,0.260000244140625,0.08348375437259674,0.006657375529967248,0.0024718426067847758
1772643995419040000,0.2700400390625,0.10114157613813876,0.01175674449559301,0.0052307950592599805
1772643995429081000,0.2800810546875,0.09366028047204017,0.008872603894025086,0.00424624100131914
1772643995439122000,0.290121826171875,0.09620528877973555,-0.00014846855998039245,0.011887430803710594
1772643995449163000,0.3001630859375,0.09036883771121501,-0.006434891885705292,-0.0009312347018159926
1772643995459203800,0.310203857421875,0.09919979442059994,0.002755253524892032,-0.0003136233932804316
1772643995469244000,0.320243896484375,0.08363631458580494,0.005480915629118681,-0.0018101729608140885
1772643995479285000,0.330284912109375,0.09366320308148861,0.0023092267904430627,-0.003611888620536774
1772643995489326000,0.340326171875,0.0948614729553461,0.00031878362558782097,0.006001121844630688
1772643995499367000,0.350366943359375,0.0974064812630415,0.0029592333980835973,0.00737139641768299
1772643995509407000,0.360406982421875,0.09366612569093703,0.0026301293078809973,-0.0036875202731695023
1772643995519448000,0.370447998046875,0.08932663518190384,0.006818995832465588,0.0018799228619318454
1772643995529489200,0.3804892578125,0.09890461086630821,0.012795677355583757,0.009150279191089794
1772643995539530000,0.390530029296875,0.09441782084107399,0.004048654336296022,-0.000013644932862371206
1772643995549571000,0.400571044921875,0.08185060021281242,0.0020291494737379252,-0.0001541402489412576
1772643995559611100,0.410611083984375,0.08888239854574204,0.008647891760058701,0.015396863696770742
1772643995569652000,0.42065185546875,0.09696399819254875,0.004599036494363099,0.009216640691878273
1772643995579693000,0.430693115234375,0.08858370786011219,0.011065803089365363,0.013197390024270861
1772643995589734100,0.440734130859375,0.1083335334688425,0.0037893092803657053,-0.0027532533640507607
1772643995599774200,0.450774169921875,0.0929185221940279,0.0074530376859940585,0.0005494871089234948
1772643995609815000,0.46081494140625,0.09097381786704063,0.009864135682024062,0.0030183249078691004
1772643995619856100,0.470856201171875,0.0906745426595211,0.0038625023807398974,0.011866771608171983
1772643995629897200,0.480897216796875,0.09351648808717727,0.006583999766502529,0.008905912508582695
1772643995639937300,0.490937255859375,0.09306815979778767,-0.0028424934169277547,-0.0067269519011490045
1772643995649978000,0.50097802734375,0.0927700536340475,0.003720664490945637,0.00027552900575101376
1772643995660019200,0.511019287109375,0.09770809455811977,0.007314378133974969,0.006281043897708878
1772643995670060000,0.52106005859375,0.08499065180420876,0.010892821142636238,0.0013987243494018912
1772643995680101000,0.53110107421875,0.09412029919922352,0.005323569642938673,0.00389104348863475
1772643995690141000,0.541140869140625,0.0999590883553028,0.0004145904165692627,0.014701794104697182
1772643995700182000,0.55118212890625,0.09442425058186053,0.004228047757502645,0.0012708510528784244
1772643995710222800,0.561222900390625,0.10130758035480976,0.01334987717224285,0.009245830253744498
1772643995720264000,0.571263916015625,0.10414835673868655,0.006033891603071242,0.006204298000223934
1772643995730304000,0.581303955078125,0.0972667805314064,0.007936236359365283,0.0016973785024136305
1772643995740345000,0.591344970703125,0.09577157353758811,0.003116122726537287,0.00709197668810375
1772643995750386000,0.601385986328125,0.10055880781412124,0.00239001867538318,0.0017063381270039826
1772643995760427000,0.611427001953125,0.09128419899046421,0.015636508538387713,-0.0017623700300231574
1772643995770468000,0.621468017578125,0.09742167883217334,0.006903148718271404,-0.0016677688154391943
1772643995780508200,0.631508056640625,0.09233400030434132,-0.007615699168108403,0.017958083353750407
1772643995790549000,0.641549072265625,0.09158873489499092,-0.003092102530132979,0.00049413105933927
1772643995800590000,0.651590087890625,0.08964753769934176,-0.00038015842400491236,0.006774572168849408
1772643995810631000,0.661630859375,0.08201952703893184,0.007589103422127663,0.009006231077900155
1772643995820671000,0.6716708984375,0.08456628891229628,0.003603595716226846,0.0051417559357825665
1772643995830712000,0.681712158203125,0.09758417591750622,0.006887037833686918,0.00639633170729503
1772643995840753200,0.691753173828125,0.0945914238423109,0.010609035765193403,0.01494515614020638
1772643995850794000,0.7017939453125,0.10087561867833136,0.00238400905970484,0.011858213842380791
1772643995860834000,0.711833984375,0.08800620023310184,0.0006193922736681997,-0.0023847945109941064
1772643995870875100,0.721875244140625,0.09503916760981082,0.007053827501647174,0.0011796747712418435
1772643995880916200,0.731916259765625,0.09878244579136371,0.005375884352065622,0.012602310207951814
1772643995890957000,0.74195703125,0.10117547840774059,0.0038892990561202167,0.005940642095357179
1772643995900998100,0.751998046875,0.10596446624994277,0.005048826088476926,0.002241504449630156
1772643995911038200,0.7620380859375,0.09055062401890754,0.007613032286986708,-0.00040093635055236514
1772643995921079000,0.7720791015625,0.09384440486729144,0.0076935136446729295,0.007836885904427618
1772643995931120000,0.7821201171875,0.09190203862786292,-0.011832129553053527,-0.004917180799134075
1772643995941161200,0.7921611328125,0.08157470588088035,0.002299582179263234,0.00693731584935449
1772643995951201000,0.802200927734375,0.09503916760981082,0.014804898286145179,0.0005017298439051955
1772643995961241900,0.812241943359375,0.09668459672927855,0.005258705979492515,-0.002493753044493496
1772643995971283000,0.822282958984375,0.09399053533971309,-0.004476707022637128,0.0068438836785499006
1772643995981324000,0.832323974609375,0.10476385828852652,0.002422733634896576,0.0025084665564354507
1772643995991364900,0.84236474609375,0.10970189921259879,0.01556930678738281,0.012423501308634876
1772643996001405700,0.85240576171875,0.09399053533971309,0.009277293971087784,0.0034358562001958488
1772643996011446800,0.86244677734375,0.08232055581212043,0.01310962040927261,0.012129532463895157
1772643996021487600,0.872487548828125,0.08800444666743278,-0.0007362601189874113,0.006603517317725345
1772643996031528700,0.88252880859375,0.09773089091181754,0.006000245061796158,0.009269676920212805
1772643996041568800,0.89256884765625,0.09937748907506465,0.013305672704335301,0.006588840338401496
1772643996051609900,0.90260986328125,0.08935352318882941,-0.011007442231941968,-0.0007120663926471025
1772643996061650700,0.912650634765625,0.0935457141816616,0.010597400126326829,0.009236130843637511
1772643996071691800,0.92269189453125,0.09668868838250637,0.007278137776814401,0.00729551816987805
1772643996081731600,0.932731689453125,0.09534253447055815,0.0012747143772430718,-0.00033832857627421616
1772643996091772700,0.942772705078125,0.09235036691725254,0.004407751705963164,-0.0066559324915520844
1772643996101813500,0.9528134765625,0.08756137907505035,0.005743786082696169,0.007044877010211348
1772643996111854800,0.962854736328125,0.0874111569494009,0.00514039509575814,0.005890044419281184
1772643996121895700,0.972895751953125,0.09085282183587551,0.012192048906628042,0.0063021049520466475
1772643996131935500,0.982935546875,0.08815876044631003,0.015787059457600117,0.006780810113390907
1772643996141976600,0.9929765625,0.09220014479160309,0.014243538076337426,0.0011208663892466574
1772643996152017700,1.003017578125,0.09878770648837089,0.0047102600501850245,0.0022951160666998473
1772643996162058500,1.01305859375,0.0875678088158369,-0.002101849383767694,0.0060149585737381125
1772643996172098600,1.0230986328125,0.09939210212230681,0.011147161229886115,0.01119402344576083
1772643996182139600,1.0331396484375,0.09864157601594924,0.013308540514856576,0.00733395961727947
1772643996192180700,1.0431806640625,0.09369944343864917,0.014766374640353023,0.007348755327612162
1772643996202221600,1.0532216796875,0.09205050718784331,-0.001903513800073415,0.003339875879278406
1772643996212262700,1.0632626953125,0.09564239419996738,0.0009301387232728301,0.0037682482260279356
1772643996222302700,1.073302734375,0.09758592948317527,0.003223199830204248,0.002431784591032192
1772643996232343600,1.083343505859375,0.09324468540847301,0.0035514636701904235,0.0011585041190497576
1772643996242384600,1.093384521484375,0.09489069904983043,0.010881861357204616,0.0036805973420385267
1772643996252425700,1.10342578125,0.0921948840945959,0.0135061637124978,0.0017271982519421725
1772643996262465800,1.1134658203125,0.08770400241613388,0.001719681665766984,0.0020762582847848533
1772643996272506600,1.123506591796875,0.09892623817622662,-0.0006874525411985815,-0.006831124661676585
1772643996282547700,1.133547607421875,0.09653262103796005,-0.0013116123215295373,0.008156080521969124
1772643996292588800,1.1435888671875,0.09578267945349216,0.006647219462133943,0.0050589638900011774
1772643996302628900,1.15362890625,0.08141746949255466,0.002145067470986396,0.00644240847188048
1772643996312669700,1.163669677734375,0.09727847096920013,0.0069230407288298,0.0030784575972706077
1772643996322710800,1.173710693359375,0.0896463686555624,0.0006473214602097868,-0.002289005986321717
1772643996332752000,1.183751953125,0.10416121622025966,0.001975336927268654,0.0077849182551726695
1772643996342792700,1.193792724609375,0.08051730578243732,0.007668689730670302,0.013244791096262634
1772643996352832500,1.20383251953125,0.08784837932288646,-0.001619490960612893,0.01109255409897305
1772643996362873600,1.21387353515625,0.09338380161821842,0.0054465567017905414,0.0028792178312782198
1772643996372914700,1.223914794921875,0.08799801692664623,0.006051098466198891,0.004746555206272751
1772643996382955800,1.233955810546875,0.08964403056800364,0.0007946027101017534,0.009869980900920927
1772643996392995600,1.24399560546875,0.08919453323483467,0.00513681489918381,-0.0011753547891508787
1772643996403036700,1.25403662109375,0.098321258020401,0.01638940926492214,0.0051331616373732685
1772643996413077500,1.264077392578125,0.09667232176959514,-0.004634308737143874,0.008592690974101425
1772643996423118600,1.27411865234375,0.09966565836668013,0.009719831840507686,0.010533449778333306
1772643996433159700,1.28415966796875,0.08844166904091834,0.0019832645053975283,-0.00040250725313089783
1772643996443199700,1.29419970703125,0.0908358707010746,0.0012446845651604235,0.004655132329463958
1772643996453240600,1.304240478515625,0.08679857800900935,0.011351908288057893,0.0005857457323931157
1772643996463281700,1.31428173828125,0.09428162724077702,-0.002280420821066946,0.002004608687525615
1772643996473322800,1.32432275390625,0.08889525802731514,-0.004825410862453282,0.013803731020120903
1772643996483362600,1.334362548828125,0.08410802375078201,-0.0006867218888364732,0.005448246335377917
1772643996493403600,1.344403564453125,0.09143792824745178,0.008966620586719364,-0.01190482032992877
1772643996503444700,1.35444482421875,0.09637538464963435,0.005412745763733982,-0.0056650765569880605
1772643996513485600,1.364485595703125,0.08694704656898974,0.013239073741529135,0.001195602992735803
1772643996523525600,1.374525634765625,0.09622691608965396,0.014536018216889351,0.011775394397135824
1772643996533566700,1.384566650390625,0.09517945286333561,0.007631042867712676,0.003707357484800741
1772643996543607800,1.39460791015625,0.0920382322281599,0.009861852393392472,0.006217449742741883
1772643996553648600,1.404648681640625,0.09997077879309654,0.011144348218291997,0.018496565011469648
1772643996563689700,1.414689697265625,0.0918903481900692,0.011906217702571302,0.019393029794003813
1772643996573729800,1.424729736328125,0.09473463170528411,0.0036342100501991804,0.0014443992551881819
1772643996583770600,1.4347705078125,0.09024608811438083,0.013191544805373996,0.008748520856630056
1772643996593811700,1.444811767578125,0.07588087815344333,0.006639017889369278,0.008374901771266013
1772643996603852800,1.454852783203125,0.09488543835282325,0.010526618178747595,-0.0046753257341217245
1772643996613892600,1.464892578125,0.08291384553015231,0.01234205183656886,0.0015971603977959603
1772643996623933400,1.474933349609375,0.08246493271887302,0.0026228410505689677,0.009665105978585779
1772643996633974800,1.484974853515625,0.09099544517695904,0.0009576112520880997,0.0008057634249329567
1772643996644015900,1.495015869140625,0.09638122986853122,0.004902933078072965,-0.0041854050590191035
1772643996654056700,1.505056640625,0.08411036183834075,-0.0013741378974169492,0.0036411695139482616
1772643996664096500,1.515096435546875,0.08815116166174411,0.008189316071290522,0.009310474721482023
1772643996674137600,1.5251376953125,0.1076058037161827,0.005597472947183996,0.008241274587390945
1772643996684178700,1.5351787109375,0.0944388636291027,0.0007703815842978656,0.001953545220568776
1772643996694219500,1.545219482421875,0.0998287399739027,0.0027825068579986688,-0.0007715962938498705
1772643996704259600,1.555259521484375,0.09758359139561652,0.004581007647328078,0.008431134603684767
1772643996714300700,1.56530078125,0.10910451784133911,-0.007661237076576798,0.0021369937623851
1772643996724341500,1.575341552734375,0.09728606975376605,0.001255881812609732,0.007466865281946957
1772643996734382600,1.585382568359375,0.09100187491774558,0.0008211253908462822,0.018326021616999057
1772643996744422700,1.595422607421875,0.09264905760288238,-0.0003877937411889434,0.008206678198045119
1772643996754463700,1.605463623046875,0.08771277024447917,0.014260562276374547,-0.007268621029797941
1772643996764504600,1.615504638671875,0.08711071269810199,-0.010809837300609797,-0.004022643112204969
1772643996774545700,1.625545654296875,0.07738368393182754,-0.006181209385581314,0.01385292219039984
1772643996784586800,1.635586669921875,0.0866617998868227,-0.00020485665602609513,0.004373849436361342
1772643996794626800,1.645626708984375,0.08411912966668605,0.009947612714394927,0.0010769450491294264
1772643996804667600,1.655667724609375,0.0917547391116619,-0.0013785218115895987,0.006830083482060581
1772643996814708700,1.665708740234375,0.09444996954500674,0.0013060045646503568,0.0011964980418793856
1772643996824749800,1.675749755859375,0.09175649267733096,0.004164627132471651,0.007586235611606389
1772643996834789600,1.68578955078125,0.08771627737581729,0.01646968969320878,0.004681545412354171
1772643996844830700,1.695830810546875,0.10612170263826846,-0.003105382136814296,0.001463368817139417
1772643996854871800,1.705871826171875,0.10402619166374207,0.0008006305920891464,-0.0010952844234183431
1772643996864912600,1.71591259765625,0.09115911130607128,0.007481624459661543,-0.00151547346371226
1772643996874953700,1.72595361328125,0.09564882394075393,0.009584368892572819,0.008734693260677159
1772643996884993800,1.735993896484375,0.10013970561921597,-0.0012500183274038136,0.008130060164723545
1772643996895035000,1.746034912109375,0.11226152056753634,-0.0007074906822293997,0.009228687322698532
1772643996905075700,1.75607568359375,0.0919113909780979,0.009312840208504349,0.000960077203810215
1772643996915116800,1.76611669921875,0.08622516203522682,-0.0010045739326626061,0.0024469090949278322
1772643996925156600,1.776156494140625,0.08712240313589573,-0.0021730331901460885,-0.0041681616632733495
1772643996935197700,1.78619775390625,0.09430500811636447,0.008588124396838247,0.002445685252221301
1772643996945238500,1.796238525390625,0.09041676850616931,0.0058125587362796065,0.012184970711870118
1772643996955279600,1.806279541015625,0.08922259028553962,0.010374478090647607,0.005713144349260255
1772643996965319700,1.816319580078125,0.09386310956776142,0.0033182211698964234,-0.0006515775102190673
1772643996975360500,1.826360595703125,0.08712824835479259,0.0014077844386920333,0.010310326813254505
1772643996985401600,1.836401611328125,0.09042027563750743,-0.005786839773133397,-0.0007680434967391193
1772643996995442700,1.846442626953125,0.08473463121652602,0.004526628845278173,-0.001366265118215233
1772643997005483500,1.8564833984375,0.0952098480015993,0.00613095876937732,0.00526973883016035
1772643997015523600,1.866523681640625,0.09087152653634548,-0.008390501199197023,0.001746670137392357
1772643997025564700,1.876564697265625,0.09745675014555454,0.002224343252275139,0.008439409241685644
1772643997035605800,1.886605712890625,0.09626140288114547,-0.00005878098253160715,0.008533718195324762
1772643997045646600,1.896646484375,0.08893032934069633,0.01006239820048213,0.006458263628138229
1772643997055686700,1.906686767578125,0.10224749155342579,0.00318628361960873,-0.0014463354839477688
1772643997065727700,1.916727783203125,0.0952139396548271,-0.008763334833271802,0.01025081517836079
1772643997075768800,1.926768798828125,0.08384148176908493,0.0006863748289644717,0.009455655345832929
1772643997085809700,1.9368095703125,0.09236965613961219,-0.003034380993526429,-0.0038534331582952288
1772643997095850800,1.946850830078125,0.07995031954944133,0.001323741150740534,0.016877896034764125
1772643997105890800,1.956890869140625,0.09581365911364555,0.0013131101588718592,-0.0010585234764497727
1772643997115931600,1.966931640625,0.08818506393134594,0.0032014629224315283,0.004558951079146936
1772643997125972700,1.97697265625,0.08893383647203446,0.0028884697168134153,0.010842479194886982
1772643997136013800,1.987013916015625,0.09297463629543781,0.004646072240173817,0.01342289674268104
1772643997146054000,1.997053955078125,0.09461948089301586,-0.001138612108491361,0.0059121831858530635
1772643997156094700,2.0070947265625,0.09461831184923648,0.0016234912822954356,-0.003158308767294511
1772643997166135800,2.0171357421875,0.09371873266100883,-0.0037290669931098817,0.003780577984638512
1772643997176177000,2.027177001953125,0.09850713598132133,0.0021196955677121876,0.00748919584476389
1772643997186217700,2.0372177734375,0.09252221635282039,-0.0017984642567113042,0.009180710861971602
1772643997196257800,2.0472578125,0.08713818522691726,0.0006693323626182973,0.0030015655693132427
1772643997206299000,2.057298828125,0.096717329955101,-0.00582885228395462,0.007767108603846281
1772643997216339700,2.067339599609375,0.08923720333278179,-0.008704425986576825,0.0006801642838865518
1772643997226380800,2.077380859375,0.10420154823064803,0.006567048631701618,0.007944666260993107
1772643997236420600,2.087420654296875,0.09671966804265976,0.006411985934153199,-0.0031368367210030555
1772643997246461700,2.097461669921875,0.0831020615786314,0.0023801914011128246,-0.00008870119675993918
1772643997256502500,2.10750244140625,0.09432663542628288,0.005033646785654127,0.01648765460816212
1772643997266543600,2.117543701171875,0.09746902510523796,0.00027247853213921186,0.009391202674340456
1772643997276583700,2.127583740234375,0.10046060813665389,-0.0064221420019865035,0.012504667652910575
1772643997286624800,2.137624755859375,0.09238017753362655,0.004062153138685971,0.004394810025999322
1772643997296665600,2.14766552734375,0.10001227984726428,0.005390734861325472,0.003958236106485128
1772643997306706700,2.157706787109375,0.09178396520614623,0.004291377050988376,-0.0029375512892380355
1772643997316747800,2.167747802734375,0.08639818051457404,-0.0063621554430574176,0.0073679349521175025
1772643997326787600,2.17778759765625,0.09462649515569209,-0.00734733055550605,-0.0025385603005997834
1772643997336828700,2.18782861328125,0.10091244355738162,0.01916077367439866,0.00243572098063305
1772643997346869800,2.197869873046875,0.10555120927393435,0.0024087051095440983,0.015736909306095913
1772643997356910600,2.20791064453125,0.08699380832016468,0.007251998688559979,0.00004386654119007289
1772643997366950700,2.21795068359375,0.08849076887965202,-0.005144815542548894,0.006554709739936515
1772643997376991700,2.22799169921875,0.0953752676963806,-0.0041379400549456475,0.0011775284799281508
1772643997387032800,2.23803271484375,0.07502455358505249,0.006180076874420046,-0.002834246178390458
1772643997397073700,2.24807373046875,0.10540215619206428,0.007503160438034683,0.004618745841830968
1772643997407114800,2.25811474609375,0.10061316834986209,0.005143153308425098,0.00801573133636266
1772643997417154800,2.26815478515625,0.09791969148218631,0.0016852496732026338,0.005480970428045839
1772643997427196000,2.27819580078125,0.09717150346338749,0.012628997285477816,0.002024363700766116
1772643997437236700,2.28823681640625,0.10091127451360225,0.0012670973263680934,0.00474773338320665
1772643997447277800,2.29827783203125,0.09702069681584835,0.0001014145478606224,-0.0005280972610227764
1772643997457318000,2.30831787109375,0.08579612296819686,0.0023761545468121764,0.003264344691345468
1772643997467358700,2.318358642578125,0.09432195925116539,0.0059003831502050155,-0.0013259970399085432
1772643997477399800,2.32839990234375,0.0982119524270296,0.0017298194672912357,0.0009370616544038057
1772643997487441000,2.33844091796875,0.09656710782945155,-0.007107621781807392,0.0018996230762451886
1772643997497480700,2.348480712890625,0.09028525108098984,-0.0002716748145408928,0.013494765535648911
1772643997507521500,2.358521484375,0.10569675522446632,0.009930698112212121,0.00046242074682377275
1772643997517562600,2.368562744140625,0.10030863244533539,0.004564348773472011,-0.006381590795889496
1772643997527603700,2.378603759765625,0.09551847555935382,0.008060319396760314,-0.0006789404411800205
1772643997537644500,2.38864453125,0.10330021547675132,-0.003184968445356935,-0.0003699932230170816
1772643997547684600,2.3986845703125,0.09551730651557445,0.007193619564827531,0.00038054201649501915
1772643997557725700,2.4087255859375,0.09806231482326984,0.009707008891552685,-0.002622174330288544
1772643997567766800,2.418766845703125,0.09222644827663898,0.004311214262619614,-0.0026147856082767247
1772643997577807600,2.4288076171875,0.09432195925116539,-0.00451992510985583,0.00514457808053121
1772643997587847700,2.43884765625,0.10075403812527656,0.0012441000432707368,0.005906456697965041
1772643997597888800,2.448888671875,0.0863829829454422,0.007968019737116992,0.00644163215374574
1772643997607929600,2.4589296875,0.08817863419055938,0.005549085494503379,0.015199797621555626
1772643997617970700,2.468970703125,0.09955167659819125,0.006285765738599002,0.007216808644169941
1772643997628011800,2.47901171875,0.09581190554797649,-0.0009277458367869258,-0.0012977938587311654
1772643997638051800,2.4890517578125,0.09521569322049617,0.00903146598385647,-0.000142349346447736
1772643997648092700,2.4990927734375,0.07755845597684383,0.010558511154353618,0.006367544004227965
1772643997658133800,2.5091337890625,0.08818506393134594,0.004686404250562191,0.0023957268969621508
1772643997668174800,2.5191748046875,0.08608896843492984,-0.0030608671416528523,0.00016884462772868573
1772643997678215000,2.52921484375,0.09252280087471008,0.004605758496094495,0.008195590548450126
1772643997688255700,2.539255859375,0.08728431569933891,0.010948843912500887,0.007264054452534765
1772643997698296800,2.549296875,0.08997896161079406,0.00269205209556967,0.004859249199973419
1772643997708337700,2.559337646484375,0.0977589479625225,-0.0037278431504033506,0.00263277792269364
1772643997718378800,2.569378662109375,0.09806056125760078,0.003687620737869292,-0.002177910294663161
1772643997728418800,2.579418701171875,0.08220131334662437,0.007371789143327623,0.006014985973201692
1772643997738460000,2.5894599609375,0.08040741566717624,0.01138321674177423,0.0013380984696559606
1772643997748500700,2.599500732421875,0.09148176738917826,0.005493957773782312,0.002881327589973807
1772643997758541800,2.609541748046875,0.10465396817326546,0.0059887007544748485,0.005059265284100547
1772643997768581600,2.61958154296875,0.09732114106714725,0.004908486036024988,0.009790394592378288
1772643997778622700,2.629622802734375,0.08669687120020389,-0.00990475995335728,-0.003232177721103653
1772643997788663600,2.63966357421875,0.1018067620486021,-0.006074059216678142,-0.00452518580686301
1772643997798704600,2.64970458984375,0.09701718968451023,0.006051573390234262,0.0015385255457367748
1772643997808745700,2.659745849609375,0.08893559003770352,-0.0009584880349226295,-0.005769066654425114
1772643997818785800,2.669785888671875,0.08011047854721545,0.002258117657713592,0.00343873314387165
1772643997828826600,2.67982666015625,0.10016250197291374,0.00044863881664350625,0.008081928440369665
1772643997838867700,2.68986767578125,0.10674597201645374,0.0019241364629939198,-0.002183545451005921
1772643997848908500,2.699908447265625,0.10225625938177108,0.006892627324257046,-0.002654186036903411
1772643997858948600,2.709948486328125,0.09327741863429546,0.0015277210239320993,0.008569492761604488
1772643997868989700,2.71998974609375,0.0783136582583189,0.00033065672647207973,-0.009068829719023778
1772643997879030800,2.73003076171875,0.08399988720118999,-0.0005825856609269976,0.0018786350871436296
1772643997889071600,2.740071533203125,0.09701660516262053,0.006793788325972855,-0.006783623124985024
1772643997899112700,2.75011279296875,0.09641805474758147,-0.0012802308025769888,0.0003833184954710305
1772643997909152800,2.76015283203125,0.0953711760431528,0.00499930612463504,0.0036740397370886055
1772643997919193900,2.77019384765625,0.09327391150295734,-0.0018300467050634324,0.00027967545790597795
1772643997929234700,2.780234619140625,0.09836159003078937,-0.00031545915734022855,0.00665917476140894
1772643997939275800,2.79027587890625,0.10599135425686836,0.0015219306039623915,-0.009035950362728909
1772643997949315800,2.80031591796875,0.10853285543322562,-0.013679693648498505,-0.0007790672142524271
1772643997959356700,2.810356689453125,0.10105039072334766,-0.00033277561832219363,0.011796619848255068
1772643997969397800,2.820397705078125,0.08907879790067673,-0.002115476050321013,0.007607397130643948
1772643997979438800,2.83043896484375,0.09371756361722945,0.006835819103103131,0.00558942663804628
1772643997989479000,2.84047900390625,0.0922211875796318,0.004889342944137752,0.00422112482637167
1772643997999519200,2.850519287109375,0.09776011700630187,-0.0038889519962482153,0.002181426559155807
1772643998009560000,2.86056005859375,0.08818331036567688,0.004054189027938992,0.0069533354023937136
1772643998019601200,2.87060107421875,0.09476794945299624,0.0035507878167554733,0.0009063925215043127
1772643998029642000,2.88064208984375,0.08788228159248829,0.0011999686405993997,-0.0018928188761230557
1772643998039682000,2.89068212890625,0.09027940586209296,-0.0014042955736629664,0.00207529017040506
1772643998049723100,2.90072314453125,0.09132686908841132,0.00875800107102841,-0.002234718515817076
1772643998059764200,2.91076416015625,0.10374679020047187,0.009213763748202472,0.002994094648910686
1772643998069805000,2.92080517578125,0.08923369620144367,0.006028594373445957,0.0011751995255239306
1772643998079845000,2.93084521484375,0.09447276589870453,-0.013452168502938,0.0003493888264056295
1772643998089886200,2.94088623046875,0.09088146340847014,-0.0023924115618690848,0.009089516314025967
1772643998099927300,2.95092724609375,0.08968319353461265,-0.0004466295226477086,0.008855972419632598
1772643998109968100,2.960968017578125,0.09237550135850905,0.0021201339591294527,0.005876289888564497
1772643998120009200,2.97100927734375,0.10000935723781586,0.012820318606495856,0.008431180269457399
1772643998130049300,2.98104931640625,0.09657119948267937,0.0053931825467385345,0.007517599955340847
1772643998140090000,2.991090087890625,0.09791852243840694,0.006109715051949024,0.003947614247770979
1772643998150131200,3.001131103515625,0.105100542896986,0.01735032671894878,-0.0019133136748801915
1772643998160172300,3.01117236328125,0.09492460131943226,0.011691296310257166,-0.0005472586192190647
1772643998170212400,3.02121240234375,0.10420096370875835,0.003338935164362192,0.0016788929976522921
1772643998180253200,3.031253173828125,0.08759177421331406,0.00873133225981146,0.008060593391396104
1772643998190294300,3.041294189453125,0.09656827687323093,0.003412858917098492,-0.015602186143677681
1772643998200335400,3.05133544921875,0.09821779764592647,0.0033378939847461876,0.0007893602794036269
1772643998210376200,3.061376220703125,0.08490238899886608,-0.0009106485715135932,0.00029933000644668937
1772643998220416300,3.071416259765625,0.08355740413069725,0.010713427721429615,-0.009747496165568009
1772643998230457300,3.081457275390625,0.09014028965234756,0.004442786486726254,0.006759401999181136
1772643998240498400,3.09149853515625,0.0932797567218542,0.0021120054516009985,0.0036829902285244313
1772643998250539300,3.101539306640625,0.09821838216781616,-0.010753485737182199,-0.005782538057351485
1772643998260579000,3.1115791015625,0.10764672024846077,0.000287493438180536,0.011103943142667412
1772643998270620200,3.1216201171875,0.0929839886456728,0.0053096507154405115,0.00423857828467153
1772643998280661000,3.131660888671875,0.08939385519921779,0.005284333611093461,-0.003277003243518993
1772643998290702000,3.1417021484375,0.08580255270898342,0.0006526369561441242,-0.0013473046894185243
1772643998300743200,3.1517431640625,0.08026654589176177,0.0010861147362738847,-0.0013554788627196102
1772643998310783200,3.161783203125,0.07967091808617115,0.008504976158030331,-0.005597071088384836
1772643998320824000,3.171823974609375,0.09209142372012138,0.00774084165142849,0.003497979917284101
1772643998330865200,3.181865234375,0.09897650705873966,0.005007873023580759,-0.002345658943848684
1772643998340906200,3.19190625,0.0958335328578949,0.002948127482179552,-0.00570409339312464
1772643998350946300,3.2019462890625,0.09388882853090763,0.000688219726178795,-0.003921310762735083
1772643998360987100,3.211987060546875,0.094486794424057,0.003254563082847744,-0.010805024128174408
1772643998371028200,3.2220283203125,0.0867050545066595,0.004192592851631343,-0.0012686682289466261
1772643998381069000,3.232069091796875,0.09254033653140067,0.013638941513001919,0.007858376217028125
1772643998391109000,3.242109130859375,0.08505728729963302,-0.0035665516414679584,0.009588469678955151
1772643998401150200,3.252150146484375,0.10795300971865654,-0.0031367453894577918,0.0015965941422153263
1772643998411191300,3.26219140625,0.09299041838645934,0.009276471987180412,0.006632761678518727
1772643998421232000,3.272232177734375,0.08311609010398388,0.002197382180113345,0.012280722703924402
1772643998431273200,3.282273193359375,0.09509002101421356,0.008400365006085484,0.007931176591757684
1772643998441313300,3.292313232421875,0.10122399372458457,0.007694518291670829,0.0064347457552328706
1772643998451354400,3.302354248046875,0.08491349491477013,0.005587901401240378,-0.009880383563926443
1772643998461395200,3.312395263671875,0.08700842136740684,-0.0011127835474908352,0.00622246384457685
1772643998471436300,3.322436279296875,0.09703530986309052,0.01116900773551315,-0.0013560085856821388
1772643998481476400,3.332476318359375,0.09688391869366168,0.003436349390540272,0.005510981973819435
1772643998491517200,3.34251708984375,0.09179916277527808,-0.009515486641135067,0.009079807770764454
1772643998501558300,3.352558349609375,0.08865677309632301,0.00962250894587487,0.002095940232789144
1772643998511599400,3.362599365234375,0.10077624995708465,0.006185374104045331,0.011428626786079256
1772643998521640200,3.37264013671875,0.08491232587099075,0.007013130165077745,0.010108940755948424
1772643998531680000,3.382679931640625,0.08910042521059512,0.004372808256745338,-0.002025852404953912
1772643998541721000,3.39272119140625,0.09328852455019951,-0.0018561675270088015,0.01758064660979435
1772643998551762200,3.40276220703125,0.08176759810447692,-0.006641264645382761,0.008375815086718648
1772643998561803000,3.412802978515625,0.09972469507753848,0.009066920889727772,-0.011297657350171356
1772643998571843000,3.422843017578125,0.08880173452496529,-0.004417451116070151,0.003977561861462891
1772643998581884200,3.43288427734375,0.10316928257346153,-0.001759739681519568,0.0067485426784493025
1772643998591925200,3.44292529296875,0.09254501270651817,0.002721369521599263,0.00869196836380288
1772643998601966000,3.452966064453125,0.08820552219748497,0.013176913491822779,0.0126248325670138
1772643998612007200,3.463007080078125,0.08581073601543902,0.004088146096467972,0.00018295535147190093
1772643998622047200,3.473047119140625,0.08566343649923801,0.004962389914039522,0.010229671925632282
1772643998632088000,3.483088134765625,0.08925532351136208,0.00031781551120802756,0.010652482181275263
1772643998642129200,3.493129150390625,0.09224573749899864,0.003777600576262921,0.0014775891387369482
1772643998652170200,3.503170166015625,0.07802782705426216,-0.0025825273064896464,0.01886452154102735
1772643998662210300,3.513210205078125,0.08236439495384693,0.002585906573664397,-0.00400213004713878
1772643998672251100,3.523251220703125,0.08011632376611233,0.008785711061861365,-0.005562310302257538
1772643998682292200,3.533292236328125,0.08984393705427646,-0.005880710335355251,0.003370636343723163
1772643998692333300,3.543333251953125,0.08729951326847075,0.004794029343500733,0.0037207558224909005
1772643998702374100,3.5533740234375,0.09029226534366608,0.00015838716579601167,0.009402052861917764
1772643998712414200,3.563414306640625,0.08864508265852927,0.0008051971693523228,0.003712152390927076
1772643998722455300,3.573455322265625,0.08460369831323623,0.015808047446701674,0.007720100257499143
1772643998732496400,3.583496337890625,0.07667056722640991,0.006479644342884421,0.0051319925935938955
1772643998742537200,3.593537109375,0.07951601978540421,0.0018050401279702782,-0.011554810449015348
1772643998752577300,3.603577392578125,0.10286299310326576,0.006514953118283301,-0.0029502829066477714
1772643998762618400,3.613618408203125,0.09074234719872475,0.009936342401709408,0.005002648859191686
1772643998772659200,3.6236591796875,0.09702537299096584,0.0012968531438149512,-0.011702950215432792
1772643998782700300,3.6337001953125,0.0926829598724842,0.006791724233049899,0.01562372212205082
1772643998792740000,3.643739990234375,0.09686930564641952,-0.0015180581464432179,-0.006720741356071085
1772643998802781200,3.65378125,0.08624269769191742,0.01184031285950914,-0.003191599115543067
1772643998812822000,3.663822021484375,0.09596914193630218,0.006166852066665888,0.005475490535330027
1772643998822863000,3.673863037109375,0.10689093344509601,0.009820168676134198,0.0005235946158412844
1772643998832904200,3.683904296875,0.09327274245917797,0.007744586244784295,0.006851144536398351
1772643998842944300,3.6939443359375,0.09372340883612632,0.0051860791346989565,-0.0022204251289833334
1772643998852985000,3.703985107421875,0.09073007223904132,-0.001242657004855573,0.006042741629807278
1772643998863026200,3.714026123046875,0.0926741920441389,0.00327816315414384,0.007837963616661727
1772643998873067300,3.7240673828125,0.09252455444037913,0.007177947071660309,0.008562953422963619
1772643998883107000,3.734107177734375,0.09162555977404117,0.010374478090647607,-0.006590383841516449
1772643998893148200,3.744148193359375,0.08833236344754695,-0.002050393191166222,0.0041269163374323395
1772643998903189200,3.754189208984375,0.08848258557319641,0.015578969664871692,-0.0013618264051154256
1772643998913230000,3.76422998046875,0.09536649986803532,0.0002942519725300372,0.0032502978996839372
1772643998923271200,3.774271240234375,0.09970423681139945,-0.009350359207298606,0.0022889877200126646
1772643998933311200,3.784311279296875,0.09985328989326954,-0.003801730370521545,0.015474166716681793
1772643998943352300,3.794352294921875,0.09596212767362594,0.002203190866392106,0.0026201193705201148
1772643998953393200,3.80439306640625,0.09087386462390422,0.0004056399251334369,0.009690824941731988
1772643998963434200,3.814434326171875,0.08832827179431915,0.004625632240343839,0.0036097514623776076
1772643998973474300,3.824474365234375,0.0866834271967411,-0.009487941047083585,-0.0068438654122408476
1772643998983515100,3.83451513671875,0.08518471307158469,-0.0016512560720555484,0.006530689543532207
1772643998993556200,3.84455615234375,0.09476093519032001,0.004829338118899613,0.0019857578565832226
1772643999003597300,3.854597412109375,0.08907061459422111,0.011554627785924821,-0.0005786310050170868
1772643999013638100,3.86463818359375,0.08892156151235103,-0.0014994813101366162,0.0010946816352196036
1772643999023678200,3.87467822265625,0.09236322639882565,-0.0034589813474565742,0.007713953644502908
1772643999033719300,3.88471923828125,0.08997019378244876,0.010126786939892917,0.007126500012213364
1772643999043760400,3.894760498046875,0.08757540760040283,-0.006016447277925908,0.001434882508171722
1772643999053801200,3.90480126953125,0.09550386251211165,-0.0007481149535626172,-0.004768858369626105
1772643999063841300,3.91484130859375,0.10044073439240456,0.00004363821232691407,0.0018332889749202877
1772643999073882400,3.92488232421875,0.08876783225536346,0.00011292232256382704,-0.00365810238244012
1772643999083923500,3.93492333984375,0.0868225434064865,-0.0000044569794088602065,-0.007021012077433988
1772643999093964300,3.94496435546875,0.08128595206737518,0.006860898745432496,-0.00803368711816147
1772643999104005400,3.95500537109375,0.10867197164297103,0.005167575363628566,0.008530503324931486
1772643999114045400,3.96504541015625,0.09819675485789775,0.004748966359067708,0.0049197472155559805
1772643999124086300,3.975086181640625,0.09460311428010464,0.009011811435315757,-0.006601307094329967
1772643999134127400,3.98512744140625,0.09355740461945533,0.006143544256314635,-0.008471768008172512
1772643999144168400,3.99516845703125,0.09729776019155978,0.0048095009072683746,0.013821604603528976
1772643999154208300,4.005208251953125,0.08801847519278526,0.001564235375728458,-0.000832276972522959
1772643999164249000,4.0152490234375,0.09265548734366894,-0.0004976107912138104,0.008198330494808033
1772643999174290200,4.025290283203125,0.09250643426179886,0.007838639470096677,0.004217699893424287
1772643999184331300,4.035331298828125,0.09804244107902049,-0.0037721024172380564,-0.0037900764653459188
1772643999194372400,4.045372314453125,0.09744389066398143,-0.002081555514410138,0.0019594635047018526
1772643999204412200,4.055412109375,0.08442483461499213,0.00750179046485573,0.009767388176126405
1772643999214453200,4.065453369140625,0.11644903538525103,0.0005476787443272769,-0.011916720830276608
1772643999224494300,4.075494384765625,0.08801613710522652,0.004629504697863013,0.014904166542692108
1772643999234535200,4.08553515625,0.09639233578443526,0.0012991729650646446,0.0003910542773548513
1772643999244575200,4.0955751953125,0.0968394950300455,0.009431881744600832,0.004600844858959317
1772643999254616300,4.1056162109375,0.09129998108148574,0.009981971641723066,-0.009652767086820677
1772643999264657200,4.1156572265625,0.08231821772456169,0.0057470557520166035,0.0056415495509281755
1772643999274698200,4.1256982421875,0.09967559523880481,0.010698047489207238,-0.00571533630634658
1772643999284738300,4.13573828125,0.09219371505081653,0.002464326020609587,0.004297140071494504
1772643999294779400,4.145779296875,0.08635960206985473,-0.0008676679463125765,0.006229295444162562
1772643999304820200,4.1558203125,0.09787935947179793,0.009214275204855947,0.001913715533679351
1772643999314861300,4.165861328125,0.09653262103796005,0.010703107256814837,-0.00045670339209027586
1772643999324902400,4.17590234375,0.09353811539709568,0.006122282272577285,0.007475203852029517
1772643999334942500,4.1859423828125,0.09668108959794044,-0.00045333325807005165,0.003679026439459994
1772643999344983300,4.1959833984375,0.09922609790563583,-0.0000583060584962368,0.003998065793374553
1772643999355024400,4.2060244140625,0.07977554750442505,-0.0038639636854641136,-0.014731970047252251
1772643999365065200,4.216065185546875,0.09339140040278435,0.00590695902146399,0.003217628605943173
1772643999375105300,4.226105224609375,0.09458908575475215,0.007695924797467887,-0.00203735104650259
1772643999385146400,4.236146484375,0.09339256944656371,0.0020018961406312883,-0.001750889654783532
1772643999395187500,4.2461875,0.09324293184280395,-0.001469816824235022,0.003667345134820789
1772643999405228300,4.256228271484375,0.08441372869908809,0.010699125201441347,-0.012077984939748421
1772643999415269400,4.266269287109375,0.09398878177404403,0.003433408514782786,0.0010552812065929174
1772643999425309200,4.27630908203125,0.10730711303055286,0.006414013494458049,-0.003147056720918044
1772643999435350300,4.286350341796875,0.08979951339066028,0.009102247931435704,0.005530682188132778
1772643999445391400,4.296391357421875,0.09817921920120716,0.003530950605124235,0.0023034820362459866
1772643999455432400,4.306432373046875,0.10431377643346786,0.006997695133928209,0.0006640990650746971
1772643999465472300,4.31647216796875,0.09025076428949833,0.005737703401781619,-0.0007426076613832265
1772643999475513300,4.326513427734375,0.08261924649775028,0.014289715305622666,-0.0005222611752804369
1772643999485554200,4.33655419921875,0.10401859287917613,0.000029518355429172515,0.006843737548077478
1772643999495595300,4.34659521484375,0.08935352318882941,0.0013823942691087723,-0.0020961959611158817
1772643999505636000,4.356635986328125,0.0857592980891466,0.003405588926095515,0.006016456411080434
1772643999515676200,4.36667626953125,0.09847966345250606,0.0027776114871725438,0.002099127703718841
1772643999525717200,4.37671728515625,0.10491466493606567,-0.0029094394396059213,-0.008119876697426661
1772643999535758300,4.38675830078125,0.08201894251704216,0.004769333293661475,-0.006211001735646277
1772643999545799200,4.396799072265625,0.08381284019649028,0.0006340601198375225,-0.007554616630636155
1772643999555839200,4.406839111328125,0.09368892204463482,0.003340104208141565,0.0048600711838807905
1772643999565880300,4.41688037109375,0.09069383188188075,0.0017723069021478295,0.0066325790154282
1772643999575921400,4.42692138671875,0.07946925803422927,0.006600055852159857,-0.005606797897955402
1772643999585962200,4.436962158203125,0.09009352790117263,0.005865384902060031,0.01323330158786848
1772643999596003300,4.44700341796875,0.09248831408321857,0.010947400874085723,0.015455681211920454
1772643999606043400,4.45704345703125,0.09233809195756912,-0.00025952771902084347,-0.004170773745467886
1772643999616084200,4.467084228515625,0.0902431655049324,0.00679119451008737,0.008210669386573135
1772643999626125300,4.477125244140625,0.0932365021020174,0.02116308994013816,0.00785012897849083
1772643999636166400,4.48716650390625,0.08800035501420497,0.007845708531700074,-0.0016298022920731455
1772643999646206500,4.49720654296875,0.09428279628455638,-0.001997311297059059,0.0009772292680107057
1772643999656247300,4.507247314453125,0.0938332989513874,0.0055387467635795475,-0.004305898766685277
1772643999666288400,4.517288330078125,0.09742226335406302,0.0017525427557528019,0.0011384568448644132
1772643999676329500,4.52732958984375,0.09233400030434132,0.011681377704441546,0.003914196035359054
1772643999686370300,4.537370361328125,0.0920335560530424,0.0073687021370977155,-0.0008467621556017547
1772643999696410000,4.54741015625,0.10190613076984882,0.0007175736848264933,-0.0021153390530031175
1772643999706451500,4.557451416015625,0.10070493828654288,0.004127637856639921,-0.0031460520739201455
1772643999716492300,4.5674921875,0.09382043946981429,-0.004186674567498267,0.0005389565817546099
1772643999726533400,4.577533447265625,0.09726093531250952,0.006734934278205037,-0.012871628668624907
1772643999736573200,4.5875732421875,0.09187515062093735,0.016565788745135066,0.003628319165529683
1772643999746614300,4.5976142578125,0.07825754415690898,0.0016009689232334495,0.006968660835688934
1772643999756655000,4.607655029296875,0.0956155061930418,0.006551869328878819,0.007217959421640261
1772643999766696200,4.6176962890625,0.09651099372804164,0.0037683030249550937,0.007413728588912635
1772643999776736300,4.627736328125,0.08199614616334437,-0.005811133964173496,-0.008573602681141346
1772643999786777300,4.63777734375,0.0798994661450386,0.002485387074947357,0.009050508611043914
1772643999796818200,4.647818115234375,0.10009703552126883,0.009045768503844738,0.010942496370105073
1772643999806859300,4.657859375,0.08587970959842205,-0.004400573046505451,0.00369563964754343
1772643999816900400,4.667900390625,0.0999462288737297,-0.005610642956010997,0.0005399794950615614
1772643999826940400,4.6779404296875,0.09530512506961822,-0.003006926731020212,-0.0028403471256140617
1772643999836981200,4.687981201171875,0.08901800762414931,0.015461663428135215,0.0007595679293386638
1772643999847022300,4.698022216796875,0.07674713959395885,0.008305836856737732,-0.0034578488362953064
1772643999857063200,4.708063232421875,0.08946458234786987,0.0034287688722833987,0.0031410379720851777
1772643999867103200,4.718103271484375,0.09155717071294785,0.0028923604406416413,-0.005388159311749041
1772643999877144300,4.728144287109375,0.08811842843592166,0.0013291297119110822,0.0026617848214693365
1772643999887185400,4.738185302734375,0.09215572112798691,0.007660049766488373,0.0024531744389329102
1772643999897226200,4.748226318359375,0.09813830266892909,0.005284625872038305,0.0009802797416225075
1772643999907267300,4.758267333984375,0.09244915111660956,0.007742650016024709,0.0016299666888546197
1772643999917307400,4.768307373046875,0.09843640883266926,0.009830087281949817,-0.001451057324837893
1772643999927348500,4.778348388671875,0.10127893878221511,-0.007802819238044321,-0.0007223868572618812
1772643999937389300,4.788389404296875,0.0943956090092659,-0.0072098583135753866,0.0032022392405662682
1772643999947430400,4.798430419921875,0.09349661434292793,0.007902699415944516,-0.0013853077454026787
1772643999957470200,4.80847021484375,0.08766250136196613,0.010988098210655153,-0.0018325583225581794
1772643999967511300,4.81851123046875,0.09663783497810363,-0.006278313084505498,-0.000018330241134390235
1772643999977552400,4.828552490234375,0.10037877507209778,0.0004280892189592123,-0.0021877010363154114
1772643999987593500,4.838593505859375,0.09918050519824027,0.007458681975491345,0.008053871389664709
1772643999997634300,4.84863427734375,0.0957370867460966,0.002424012276530266,-0.0022287362996023146
1772644000007674600,4.858674560546875,0.09154664931893348,0.001264320847392082,0.0004166727758012712
1772644000017715700,4.8687158203125,0.0843605372071266,0.010355974319577216,-0.004102896141028031
1772644000027756800,4.8787568359375,0.08974690642058848,0.004698679210245609,-0.011289866769360378
1772644000037797600,4.888797607421875,0.09034487231373786,0.0045757104177027936,-0.0018940975177567452
1772644000047837400,4.89883740234375,0.09961831209361553,0.0024738793002441525,0.005424363136291504
1772644000057878500,4.90887841796875,0.09063830230236053,0.014182729533500969,-0.006041892246436327
1772644000067919600,4.918919677734375,0.08555003925263881,0.00637256723921746,0.0007756879470776766
1772644000077960400,4.92896044921875,0.08854220680594443,0.002334470829553902,0.0068030402115080504
1772644000088001500,4.93900146484375,0.09467734856009483,0.0008306421378627419,0.0032113815282471475
1772644000098041600,4.94904150390625,0.10500058965384959,0.007574380777031183,0.0016902089761104435
1772644000108082400,4.95908251953125,0.09033551996350288,0.004581446038745343,0.009054399334872142
1772644000118123500,4.96912353515625,0.10215747518241405,0.0013812617579475044,0.003777390513708815
1772644000128164600,4.97916455078125,0.09632160863578319,0.008529416479542851,0.011617619152693078
1772644000138204700,4.98920458984375,0.09093407037854194,0.007336516900546848,0.0035754016682039945
1772644000148245500,4.99924560546875,0.10170739332735537,0.0009352715561166405,0.004595958621287718
1772644000158286600,5.00928662109375,0.09078443277478218,0.00423847781997174,0.0007808025136124342
1772644000168327700,5.01932763671875,0.09482289451062678,0.009821830910257994,-0.006374512601131573
1772644000178368500,5.029368408203125,0.08509703478813171,0.01054462875947356,0.00366468738685362
1772644000188408600,5.03940869140625,0.0882388399451971,0.002941241083666682,0.00007175006195902824
1772644000198449700,5.04944970703125,0.09242810832858085,-0.00705791915487498,0.006607115780608728
1772644000208490500,5.059490478515625,0.09796703775525092,0.012212160112895071,0.00815791628602892
1772644000218531600,5.069531494140625,0.1084422545403242,0.0026262203177437183,0.0036563853493891654
1772644000228571600,5.079571533203125,0.08614625158011913,0.0011505582746118305,0.0031834249422419813
1772644000238612700,5.08961279296875,0.07597206356823444,0.0008180383846163749,0.0031623273552861065
1772644000248653600,5.099653564453125,0.08689736220836639,0.010936075762473046,0.001375608335295692
1772644000258694700,5.109694580078125,0.09033844257295132,0.01169010900016874,-0.004455636835144832
1772644000268734700,5.119734619140625,0.09467676403820514,0.005876162024401128,-0.010397429707972332
1772644000278775800,5.12977587890625,0.08809446303844451,0.01283533351253718,-0.0025664894871413706
1772644000288816600,5.139816650390625,0.0882435161203146,-0.0022627573002129793,0.009120669504115357
1772644000298857700,5.149857666015625,0.09527297636568546,0.0019794103141874075,0.002367569381557405
1772644000308898600,5.159898681640625,0.08614391349256038,0.01262848582882434,-0.00028269853205420073
1772644000318938400,5.1699384765625,0.08793956473767757,0.011558883835934102,0.001234939489280805
1772644000328979500,5.1799794921875,0.08554302498996258,0.009973185547068714,0.0033611287298612293
1772644000339020500,5.1900205078125,0.09661445410251616,0.0037295784497633575,-0.0004728964750654995
1772644000349061400,5.200061279296875,0.09197568838596343,0.0047749958494678136,-0.0006075100396294147
1772644000359101400,5.210101318359375,0.10200433044731616,0.0033269889982417223,0.006895741729950532
1772644000369142500,5.220142578125,0.09347323346734046,-0.0017510449184104798,0.012950849650986493
1772644000379183600,5.23018359375,0.08449380819797515,0.00398943496234715,-0.005031591825885698
1772644000389224400,5.240224365234375,0.09182546626031399,-0.0001999430188909173,0.00039893618971109386
1772644000399265500,5.250265625,0.09451952764987945,0.004742664482444524,0.006037636196427047
1772644000409305600,5.2603056640625,0.09032850570082664,-0.0025614845184609293,0.0044144919740036126
1772644000419346700,5.2703466796875,0.09332184229791164,-0.0028680297169834373,0.008257814730238169
1772644000429387500,5.280387451171875,0.08150047160089015,0.0022079218404367565,0.006972706823144108
1772644000439428600,5.2904287109375,0.08000351104140281,0.0017541867235675453,-0.0027159261615015565
1772644000449468700,5.30046875,0.09003039953708648,0.010237973963096737,0.00492112632188946
1772644000459509500,5.310509521484375,0.10080547605156898,0.010929134565033019,0.02053724052621983
1772644000469550600,5.320550537109375,0.09317746539115905,0.00021378888115286825,0.006432161072501912
1772644000479591700,5.330591796875,0.08794307186901569,-0.003002031360194087,-0.0010832834583707153
1772644000489632500,5.340632568359375,0.0916851810067892,0.008808927540667354,0.007816190176270901
1772644000499672600,5.350672607421875,0.09662205288708209,0.008694068989343941,-0.005491254360042512
1772644000509713700,5.360713623046875,0.09093523942232132,0.004970080030150711,-0.0004099051082972437
1772644000519754800,5.370754638671875,0.09916706119477749,0.008644348096102476,0.00398019220996648
1772644000529795600,5.380795654296875,0.09198094908297061,-0.0005623465904965997,0.010501529403263703
1772644000539835600,5.390835693359375,0.09228314689993858,0.008796214189566672,-0.0010751549508422613
1772644000549876700,5.400876708984375,0.09213292477428912,0.013730674917064607,0.007954950192989781
1772644000559917600,5.41091748046875,0.10754442891776561,0.007623955539800226,0.003489257754711434
1772644000569958700,5.420958740234375,0.0894371098190546,0.00016282587889581917,0.0012462554677389562
1772644000579999700,5.430999755859375,0.07536942149996757,0.006655037442408502,0.002738813846744597
1772644000590039600,5.44103955078125,0.09212649503350258,0.01046907930523157,0.006788317566411569
1772644000600080400,5.451080322265625,0.08239888174533844,0.01305946112461388,0.0010876034404616803
1772644000610121500,5.46112158203125,0.09047872782647609,0.010242029083706437,0.005718158451095223
1772644000620162600,5.47116259765625,0.08239888174533844,-0.0032219577211886645,0.0007412468213587999
1772644000630202600,5.48120263671875,0.08793605760633945,0.003975954426266253,0.00378451437423937
1772644000640243500,5.491243408203125,0.0844961462855339,0.009600881635956465,-0.008628045415272935
1772644000650284500,5.501284423828125,0.0928752675741911,-0.0009851385798305273,-0.001190735021373257
1772644000660325600,5.51132568359375,0.09332476490736007,0.015630919047817587,0.0038474418089259415
1772644000670365700,5.52136572265625,0.09332418038547038,0.01163326424639672,0.012026081222575157
1772644000680406500,5.531406494140625,0.09556815991997718,0.008510675246454776,0.01068899653307162
1772644000690447600,5.541447509765625,0.09212474146783352,0.012304879897646606,0.006325878553278744
1772644000700488400,5.551488525390625,0.08853285445570945,0.009802797416225075,0.0007655684118624776
1772644000710529500,5.561529541015625,0.09960603713393211,0.01473024388104677,0.007497753610555082
1772644000720569600,5.571569580078125,0.0843435860723257,0.024448870145156978,0.005836177073884755
1772644000730610700,5.581610595703125,0.08494272100925446,0.004072400538064539,0.006022931817639619
1772644000740651500,5.591651611328125,0.08898176726698875,0.0049899537744000555,-0.0020247290269471705
1772644000750692600,5.601692626953125,0.09002689240574836,0.011936740704998373,0.01160952717778273
1772644000760732700,5.611732666015625,0.09840659821629523,0.005517302116751671,0.0007816427638288587
1772644000770773800,5.621773681640625,0.10618775361180305,-0.0006106427116319537,0.003933129064692184
1772644000780814600,5.631814697265625,0.08912672869563103,0.0033413828497752544,0.006804455850459635
1772644000790855700,5.641855712890625,0.09690554600358009,-0.00023947131168097256,-0.004143474746588618
1772644000800896800,5.651896728515625,0.099749829518795,0.0035007381299510597,-0.0019722681873477993
1772644000810937600,5.6619375,0.08777706765234469,-0.004486132438108325,0.013067781428387389
1772644000820977700,5.671977783203125,0.08987491671442985,0.008148673533648253,0.007651811661105602
1772644000831018800,5.682018798828125,0.10005144281387328,0.0027327128995209933,0.004805253990413621
1772644000841059600,5.6920595703125,0.09750877259373664,-0.0007678425673395395,0.004526053456543013
1772644000851100700,5.7021005859375,0.09167056795954703,0.012163863991759716,0.004429543412663042
1772644000861140500,5.712140380859375,0.0940641850978136,0.015612068216875195,0.009666658614855259
1772644000871181600,5.722181640625,0.08613163853287696,0.005971219896711409,0.005700001739896834
1772644000881222400,5.732222412109375,0.08822422689795494,0.0018673282418400047,0.0011878946103155612
1772644000891263500,5.742263427734375,0.09031798430681229,0.00613156155757606,0.0005315495934337377
1772644000901304600,5.7523046875,0.10213818596005439,0.005704531784541904,0.006073273765388876
1772644000911344600,5.7623447265625,0.08103986835181713,0.007639701098203658,-0.0034927100871223952
1772644000921385500,5.772385498046875,0.09166413821876049,0.004344349347241223,0.007878514822758734
1772644000931426600,5.782426513671875,0.0907663125962019,0.005252842494286597,0.0021501089722849426
1772644000941467600,5.792467529296875,0.09720306764543056,0.008628200678899883,0.0009484232986345886
1772644000951507500,5.802507568359375,0.08628127613663673,0.00886007320601493,0.019389924521464853
1772644000961548500,5.812548583984375,0.09166939891576767,0.01389514476377517,0.003119227999076247
1772644000971589600,5.822589599609375,0.08254033604264259,0.008212349887005985,-0.007896662400802596
1772644000981630500,5.83263037109375,0.0871755946278572,0.016540946564823387,-0.0014243063152302056
1772644000991671600,5.842671630859375,0.08941840511858462,0.007143880405277013,0.0047521172973793
1772644001001711000,5.852711181640625,0.09629998132586479,0.005407412001490593,0.010884190311608836
1772644001011752200,5.862752197265625,0.09360416637063027,0.005187997097149491,0.0031187713413499294
1772644001021793000,5.87279296875,0.0940513256162405,0.010933043555170297,0.01387773697124794
1772644001031834000,5.882834228515625,0.10033610497415066,0.00886358033735305,0.0012382913569919764
1772644001041874200,5.892874267578125,0.09898995106220244,0.016627053945697842,0.01605305345002562
1772644001051915300,5.902915283203125,0.09973930812478064,0.017642551131173967,0.0019813191434834153
1772644001061956000,5.9129560546875,0.09674655604958533,0.008980192454345524,-0.003746593516645953
1772644001071997200,5.9229970703125,0.08163081998229026,0.0098178123222664,0.007458755040727555
1772644001082037200,5.933037353515625,0.0814811823785305,0.002310505432076752,0.0015077011492103337
1772644001092078300,5.943078369140625,0.10063245757222175,0.019262370885349808,-0.0011061254778411238
1772644001102119200,5.953119140625,0.09599135376811027,0.006181866972707212,0.0034780331077985463
1772644001112160300,5.96316015625,0.09194880037903785,0.011924794538877903,0.0009797134860418737
1772644001122201000,5.973201171875,0.09987667076885699,0.004810542086884379,0.00942487661507912
1772644001132241200,5.9832412109375,0.09733107793927193,0.01039440663382411,0.009006030148500576
1772644001142282200,5.9932822265625,0.0896983911037445,0.011155855992995203,-0.005322948588430881
1772644001152323300,6.0033232421875,0.10496201120913028,0.0024704817667603493,-0.011489115668507292
1772644001162364200,6.0133642578125,0.08745499609112739,0.009056034169532358,0.0103403383590281
1772644001172404200,6.023404296875,0.09418985730409622,0.015574951076880096,0.00875056668324396
1772644001182445300,6.0334453125,0.09733224698305129,0.01574325684849173,0.0018309782868251203
1772644001192486400,6.043486328125,0.0889531256943941,0.015715017134696245,0.0015428911936003714
1772644001202527200,6.05352734375,0.09344225380718707,0.011954568622633815,0.008029266671370714
1772644001212568300,6.063568359375,0.10780571020245551,0.01592022085059434,-0.0014329736788757145
1772644001222608100,6.073608154296875,0.10989946761131286,0.013539061335101722,-0.00020187011449597774
1772644001232649000,6.08364892578125,0.0983779566437006,0.007065846733003854,0.004946735687181353
1772644001242690000,6.09368994140625,0.08939794685244559,0.003084595077112317,0.0031207075701095164
1772644001252731100,6.103731201171875,0.09328852455019951,0.010009754697792231,0.0020124814667273313
1772644001262771200,6.113771240234375,0.09358779975771904,0.013860475309193133,0.005218858026294037
1772644001272812000,6.12381201171875,0.09732873985171317,0.00011226473543792963,0.0045816013023722915
1772644001282853000,6.13385302734375,0.10107260255515575,0.011568966838531196,-0.0015900456704199314
1772644001292894200,6.143894287109375,0.09343991571962833,-0.00007394201904535293,0.011117213616194202
1772644001302935000,6.15393505859375,0.08536065416038036,0.008122881505265831,0.0072340885725338
1772644001312975000,6.16397509765625,0.09448913251161575,0.0060157166255638,0.016050459634140132
1772644001323016200,6.17401611328125,0.10017477693259716,0.0037923414876684545,0.0012029369158204643
1772644001333057300,6.184057373046875,0.10900281103253363,0.004100603719241917,0.0009497658723499625
1772644001343098000,6.19409814453125,0.09284253434836864,0.015434702355973422,-0.0035108576651662585
1772644001353138200,6.20413818359375,0.10122224015891551,0.011704174058139323,0.0026249325429555026
1772644001363179300,6.21417919921875,0.09104571405947208,0.020571809516102074,0.007527262832829729
1772644001373220000,6.22422021484375,0.09702888012230396,0.007055873328261077,0.006306050474802032
1772644001383261200,6.23426123046875,0.09792612122297287,0.012481368975713848,0.005362522546993568
1772644001393302300,6.24430224609375,0.08161503789126873,0.011470730628445744,0.007383872306765988
1772644001403342300,6.25434228515625,0.0837076262563467,0.004969093649461865,0.010234603829076512
1772644001413383200,6.264383056640625,0.08774491894841194,0.011521182174049318,0.002828446625266224
1772644001423424300,6.27442431640625,0.08998714491724967,0.01593541841972619,-0.0031524726815521714
1772644001433465300,6.28446533203125,0.09462474159002303,0.012831059196218847,0.006851281533716246
1772644001443505400,6.29450537109375,0.09103460814356804,0.024324440047889945,0.007442306229425594
1772644001453546200,6.304546142578125,0.08235328903794288,0.015232932706177234,0.00992501729009673
1772644001463587300,6.31458740234375,0.0917810425966978,0.003369038041681051,0.0010026011712849139
1772644001473628200,6.324628173828125,0.07816402065455913,0.0025904914172366258,-0.0038813258122187104
1772644001483668000,6.33466796875,0.08758826708197594,0.002385251168720424,0.008271413997327908
1772644001493709000,6.344708984375,0.09042904346585273,0.0009838599381968378,-0.0012283818843308837
1772644001503750100,6.354750244140625,0.0949181715786457,0.003990713603980839,0.0015676329092122613
1772644001513791000,6.364791015625,0.08638941268622875,0.0074408540578559034,0.016194772608811036
1772644001523832000,6.37483203125,0.09342413362860678,0.011613646230474114,0.005479691786412149
1772644001533872000,6.3848720703125,0.09656886139512061,0.007213401977531612,0.00530755008989945
1772644001543913200,6.394913330078125,0.09911328518092631,0.01575516648199409,0.009279869520664214
1772644001553954000,6.4049541015625,0.09507482344508171,0.012747180305048823,0.00511758047575131
1772644001563995100,6.4149951171875,0.09926467635035514,0.0037928164117038247,0.008374289849912748
1772644001574035200,6.42503515625,0.10255378102362156,0.007811842794716358,-0.0038270200754050164
1772644001584076300,6.435076171875,0.10135551114976406,0.0035661315163597464,-0.0012787238320801407
1772644001594117000,6.4451171875,0.09267653013169765,0.01664038835130632,0.002482364000799134
1772644001604158200,6.455158203125,0.09312602746486663,0.004535159211605787,0.0010562493209727109
1772644001614199000,6.465198974609375,0.0841477712392807,0.007722118684649467,0.013213784036645665
1772644001624239000,6.475239013671875,0.09985738154649734,0.013195106735639273,0.0000288425019942224
1772644001634280200,6.4852802734375,0.0980599767357111,0.007258812021836638,-0.004595575028797611
1772644001644321300,6.4953212890625,0.10539105027616023,0.018628055037185547,0.0028166465896181762
1772644001654362000,6.505362060546875,0.0901256766051054,0.012988332117162644,0.016366530712833626
1772644001664402200,6.515402099609375,0.0955108767747879,0.010976700033806264,0.004618343983031809
1772644001674443300,6.525443359375,0.10299217244088649,0.01038867101278156,0.007608858435368165
1772644001684484400,6.535484375,0.08743219973742962,0.014948599339462815,-0.00627370084146969
1772644001694525200,6.545525146484375,0.08159984032213688,0.008409991350956261,0.012103493840340524
1772644001704566300,6.555566162109375,0.08923135811388493,0.01487849324531853,0.01982606918271631
1772644001714606300,6.5656064453125,0.08025076380074024,0.009851276200450957,0.01085708310897462
1772644001724647200,6.575647216796875,0.0928179844290018,0.0028868440153077242,0.009394636740442365
1772644001734688300,6.585688232421875,0.10329203217029571,0.011263736814260482,-0.0010643778285011648
1772644001744729300,6.595729248046875,0.10239420654773712,0.021907405501417815,0.009535332985920832
1772644001754769200,6.60576904296875,0.08668225815296172,0.004724215510301292,0.0100839798446279
1772644001764810000,6.61581005859375,0.09117021722197532,0.010142916090786457,-0.008317070636805146
1772644001774851000,6.62585107421875,0.08174421722888946,0.006852642373740673,-0.0003107921153772622
1772644001784892200,6.63589208984375,0.08578501705229281,0.007745718755945563,0.01101873081093654
1772644001794933000,6.64593310546875,0.10344166977405547,0.006596731383912265,-0.007450489535881206
1772644001804973000,6.65597314453125,0.08788052802681923,0.008497633101791142,-0.0016189338381867855
1772644001815014100,6.66601416015625,0.0952139396548271,0.00985036288499832,0.010236119932727888
1772644001825055200,6.67605517578125,0.09356734149158,0.009098338941298424,0.005388040580740198
1772644001835096000,6.686095947265625,0.09715513685047626,0.0011290770951658488,-0.00376696045123972
1772644001845136100,6.69613623046875,0.09850129076242446,0.014031557559780776,0.0011288578994572162
1772644001855177200,6.70617724609375,0.08622983821034431,0.006028685704991221,-0.00854075985746458
1772644001865218000,6.716218017578125,0.09805296247303485,0.0010758125379681587,-0.0011249671756289898
1772644001875259100,6.726259033203125,0.07560673738718032,0.011732742565497755,0.005247727927751839
1772644001885300200,6.73630029296875,0.1025432596296072,0.016028247802332043,0.0022575057363603264
1772644001895340300,6.74634033203125,0.0965560019135475,0.011907660740986465,0.008950290506426244
1772644001905381000,6.756381103515625,0.0914677388638258,-0.002584098209068179,0.0032398952366784212
1772644001915422200,6.766422119140625,0.0902694689899683,0.012566855302080512,0.006071054408838972
1772644001925463300,6.77646337890625,0.09625497314035891,0.0076103288732469075,0.004040891154948622
1772644001935503400,6.78650341796875,0.10284078127145767,0.004994703014753759,0.010949656763253733
1772644001945544200,6.796544189453125,0.09969839159250259,0.006025982291251421,0.009068564857542514
1772644001955585300,6.806585205078125,0.09490998827219009,-0.001761785508133471,-0.0026094792454969136
1772644001965626000,6.816626220703125,0.09894903452992439,-0.0003844327403232455,0.007129450021125376
1772644001975667200,6.826667236328125,0.09805296247303485,0.009612206747569144,-0.007586856666114181
1772644001985707300,6.836707275390625,0.10074643934071063,0.008717486397549509,-0.0019057605560868977
1772644001995748400,6.846748291015625,0.08817921871244906,0.01210468115042895,0.0008900807075202464
1772644002005789200,6.8567890625,0.09775544083118438,0.006120674837380647,-0.006575798193737864
1772644002015830300,6.866830322265625,0.09461422019600868,0.007470883869938552,-0.0009525149518623948
1772644002025870300,6.876870361328125,0.0944651671141386,0.007136537349037826,0.004772904357081279
1772644002035911400,6.886911376953125,0.09985153632760048,0.00023541619107127188,-0.015524015474086626
1772644002045952300,6.8969521484375,0.09895254166126251,0.005055310628190636,0.003492911016521975
1772644002055993300,6.906993408203125,0.08638415198922157,0.00693809216748923,0.0007474117006640881
1772644002066033200,6.917033203125,0.09626198740303515,0.007485533449798822,-0.0036198344649747013
1772644002076074200,6.92707421875,0.08623743699491024,0.015215945038758217,0.0005802293070591986
1772644002086115000,6.937114990234375,0.10239596011340618,0.003883453837223351,0.00038100780737586315
1772644002096156200,6.94715625,0.09371756361722945,0.007751527442224323,0.006655877692624926
1772644002106197000,6.957197021484375,0.08803191919624805,0.002667794437147677,0.0022722375146113334
1772644002116237000,6.967237060546875,0.08892857577502727,0.008228241575881838,0.011127451882418244
1772644002126278100,6.977278076171875,0.0826443809390068,0.0027143735252320765,-0.0012280896233860402
1772644002136319200,6.9873193359375,0.08698270240426063,0.0018794936036691068,-0.005184307302720844
1772644002146360000,6.997360107421875,0.10180150135159492,0.009806962134689092,0.007272566552553325
1772644002156400000,7.007400146484375,0.10479249986112117,0.00553195169661194,0.012335183704365043
1772644002166441200,7.017441162109375,0.10449439369738102,0.007295381172560155,-0.0008524795103352517
1772644002176482300,7.027482421875,0.09222294114530086,0.00763802059777081,-0.0002604775670915842
1772644002186523100,7.037523193359375,0.10090133764147757,0.0019383476514369248,-0.009784120115218684
1772644002196564200,7.047564208984375,0.09401683882474898,0.013201719139516352,0.014765022933483123
1772644002206604300,7.057604248046875,0.08967442570626735,0.016256503600254654,0.012149625403853132
1772644002216645000,7.06764501953125,0.0820388162612915,0.011995887013711034,-0.0022636980151291937
1772644002226686200,7.077686279296875,0.0974497358828783,0.01715257565714419,0.004276124682929367
1772644002236727300,7.087727294921875,0.08158639631867408,0.005828560023009776,0.0036869174849707633
1772644002246767400,7.097767333984375,0.10492986250519752,-0.0019533260248601435,0.006848048397013917
1772644002256808200,7.10780810546875,0.09161153124868869,0.015721519940719006,0.0026573643746785817
1772644002266849300,7.117849365234375,0.10118483075797557,0.010174078414030372,-0.002478336279653013
1772644002276890400,7.127890380859375,0.09430325455069541,0.002945734595693648,-0.004923994132410734
1772644002286931200,7.13793115234375,0.08712240313589573,0.005169073200970888,0.003410319900140166
1772644002296971300,7.14797119140625,0.09819733937978745,0.019169431904889643,0.007604702850058674
1772644002307012400,7.158012451171875,0.08083762377798556,0.019628610381856558,-0.0012827332869172095
1772644002317053400,7.168053466796875,0.09011749329864978,0.0034050592031329868,-0.001153645280841738
1772644002327094300,7.17809423828125,0.08443243339955807,0.006976889807917178,0.00032297574351541696
1772644002337134000,7.188134033203125,0.09206336666941642,0.01624346145559102,0.0024737514360807836
1772644002347175200,7.198175048828125,0.10074468577504157,0.008835231025703251,-0.0012522102844901382
1772644002357216000,7.208216064453125,0.09775310274362564,0.010006722490489482,-0.0008335099483840167
1772644002367257000,7.218257080078125,0.09371288744211197,0.00745210610423237,0.0002395626432262361
1772644002377298200,7.228298095703125,0.08907295268177985,0.013011274601332843,-0.003625990211125463
1772644002387338200,7.238338134765625,0.10343933168649673,0.014799582790210842,-0.0023412110975943503
1772644002397379000,7.248379150390625,0.0905699132412672,0.014514628368988633,0.0030476788665167987
1772644002407420200,7.258420166015625,0.0841343272358179,0.012312149888649582,-0.006367005148110911
1772644002417461200,7.268461181640625,0.09789923321604728,0.009071341336518525,-0.012681028866814449
1772644002427501300,7.278501220703125,0.09341127414703368,-0.004681180086173117,-0.00019223463647067546
1772644002437542100,7.288542236328125,0.08458207100331783,0.00414126452319324,-0.002679037350369617
1772644002447583200,7.298583251953125,0.0893675517141819,0.012572627455741166,-0.0036445305148139592
1772644002457624300,7.308624267578125,0.09610124388337135,0.016629428565874696,0.01230622247136198
1772644002467665200,7.3186650390625,0.08757131594717502,0.009770721777528524,0.01005653471527621
1772644002477705200,7.328705322265625,0.09700023854970931,0.01708360207416117,0.005633055717218667
1772644002487746300,7.338746337890625,0.0978986486941576,0.007484583601728081,0.0038408020055852826
1772644002497787100,7.348787109375,0.10253741441071033,0.011387838117964564,0.00771244667400606
1772644002507828200,7.358828125,0.09879647431671619,0.01112736055087298,0.006441860482608899
1772644002517868300,7.368868408203125,0.09206512023508548,0.001628003060631454,-0.003608810747461393
1772644002527909400,7.378909423828125,0.09670797760486602,0.017395115708746016,0.003961679305741563
1772644002537950200,7.3889501953125,0.08713234000802039,0.002528787825256586,0.010283658002037555
1772644002547991300,7.3989912109375,0.10434183348417282,0.012271196823753416,0.002360774314589798
1772644002558031400,7.40903125,0.10703589487373828,0.0050699602080509065,-0.007990131104225293
1772644002568072200,7.419072265625,0.0889320829063654,0.012178257843293249,0.0013264354313258081
1772644002578113300,7.42911328125,0.09446575163602829,0.0016247516576200723,0.0008928297870326787
1772644002588154400,7.439154296875,0.09386837026476859,-0.001981931064836681,0.002800700101815164
1772644002598195200,7.4491953125,0.09177695094346999,-0.0030917554702609776,0.008519945398299023
1772644002608235000,7.459235107421875,0.08908288955390453,0.008580416014418005,-0.0011675642083398996
1772644002618276000,7.469276123046875,0.08848317009508609,-0.0006686565091833472,-0.003979160163505003
1772644002628317200,7.479317138671875,0.10030395627021789,0.0005284808535128832,0.0038247915857005862
1772644002638358000,7.48935791015625,0.0916290669053793,0.01491845992952585,0.004869323069415986
1772644002648399000,7.499399169921875,0.08444880001246928,-0.0035426045102998614,-0.0002383022679015994
1772644002658439200,7.509439208984375,0.09492167870998382,0.012073299631476402,0.0012473423131275922
1772644002668480300,7.519480224609375,0.09163140499293804,0.00407598073463887,-0.004261712565086782
1772644002678521000,7.52952099609375,0.10449965439438819,0.0007855608871206641,-0.00047108811046928166
1772644002688562200,7.539562255859375,0.09836568168401717,0.010484021146036684,0.009247620352031662
1772644002698602200,7.549602294921875,0.08639408886134624,0.005739493500068783,0.0031899186151102183
1772644002708643000,7.55964306640625,0.08699088571071624,0.005948350477777421,-0.002673986715916544
1772644002718684200,7.56968408203125,0.09312895007431507,0.013969232913292943,-0.004519103125948458
1772644002728725200,7.579725341796875,0.09372574692368507,0.0030747678028419613,0.0007858531480655073
1772644002738766000,7.58976611328125,0.0943260509043932,0.013347155492193997,-0.009268727072142064
1772644002748806100,7.59980615234375,0.0973188029795885,0.002130911081470549,-0.008535891886102036
1772644002758847200,7.60984716796875,0.09821487503647804,0.006352255103550851,0.003961094783851877
1772644002768888300,7.619888427734375,0.10270283410549164,0.005771897932328284,-0.0031918639770243313
1772644002778929200,7.62992919921875,0.09462357254624366,0.008425225452706218,0.003410959220957011
1772644002788969200,7.63996923828125,0.0976151555776596,0.00997187037281692,-0.0008148143810685724
1772644002799010300,7.65001025390625,0.0998585505902767,-0.0003166647337377071,0.0029286647298838943
1772644002809051400,7.660051513671875,0.09147942930161952,0.011166158191300927,-0.0052782600633334365
1772644002819092200,7.67009228515625,0.08594225344061851,0.010447232799604534,0.0016108327301219104
1772644002829133300,7.68013330078125,0.09596680384874344,-0.007035232399031519,-0.010222374535165727
1772644002839173400,7.69017333984375,0.0940244376093149,0.01440915870051831,0.0034250334120821207
1772644002849214200,7.700214111328125,0.08938684093654155,0.008386573942750691,0.01243493601810187
1772644002859255300,7.71025537109375,0.08908756572902202,0.013027166290208697,0.00016445158040151
1772644002869296400,7.72029638671875,0.1079419038027525,0.011984233108535408,-0.0031640626546461134
1772644002879336200,7.730336181640625,0.10824059448838233,0.016940796069987118,0.006129972388688475
1772644002889377000,7.740376953125,0.10494856720566749,0.00946421311162412,0.0030978655506391077
1772644002899418000,7.750418212890625,0.10135843375921248,0.012285846403613685,0.0066547908472362905
1772644002909459200,7.760459228515625,0.09537234508693218,0.0022782471302896738,-0.0036474622574169187
1772644002919500000,7.7705,0.10255728815495967,-0.003935403220169246,-0.008119657501718029
1772644002929540000,7.7805400390625,0.1077934352427721,0.013787775399163364,-0.002075555031886324
1772644002939581200,7.790581298828125,0.09028466655910014,0.012484766509197652,0.0023878815172240137
1772644002949622300,7.800622314453125,0.08654548003077507,-0.005511822224035859,-0.002571722784684971
1772644002959663000,7.8106630859375,0.09163374308049678,0.009261201352812349,-0.002071846971148625
1772644002969703200,7.820703125,0.09043664225041866,0.012725991386547683,-0.00659268539645709
1772644002979744300,7.830744140625,0.09283201295435428,0.003089600045792758,-0.008348004631185903
1772644002989785000,7.84078515625,0.08505144208073616,0.005915836447663605,-0.010887670043483375
1772644002999826200,7.850826171875,0.09043839581608772,0.012941570365987717,-0.008207810709206387
1772644003009866800,7.86086669921875,0.09387889165878295,-0.004245126756466925,0.00529891012571752
1772644003019906800,7.87090673828125,0.10390461111068724,0.01401193954385817,0.0032340043520089237
1772644003029947600,7.88094775390625,0.09627192427515983,0.004617978656850755,-0.007846457450371234
1772644003039988700,7.89098876953125,0.0943260509043932,0.008511332833580671,-0.004514052491495385
1772644003050029800,7.90102978515625,0.10435235487818717,0.007888707423210144,-0.0037524844013154504
1772644003060070000,7.91106982421875,0.09372750048935413,0.00281808962803334,0.004182856908906251
1772644003070110700,7.92111083984375,0.09507248535752295,0.0034662878710776564,0.007337585479626431
1772644003080151800,7.93115185546875,0.09896364757716655,0.0022499343512579796,0.006585077478736639
1772644003090193000,7.94119287109375,0.10015899484157562,0.0108277565497905,0.0030343718603719023
1772644003100233700,7.951233642578125,0.10075345360338687,0.003135119687952101,-0.011411419922951608
1772644003110273800,7.961273681640625,0.0890799669444561,0.00547287845313549,0.0016879256874788552
1772644003120315000,7.97131494140625,0.09251987826526165,0.005237170001119375,-0.002224361518584192
1772644003130355700,7.981355712890625,0.08354045299589634,0.010347169958613813,0.007514494682801887
1772644003140396800,7.991396728515625,0.08443827861845493,0.0018211875451728701,-0.0041575398045592005
1772644003150438000,8.00143798828125,0.08653437411487103,0.0062809434330090876,0.0045072300250642
1772644003160478000,8.01147802734375,0.09925473947823046,-0.00018174977507442235,-0.0003001337240450084
1772644003170518800,8.021518798828126,0.10119769023954868,0.007229805123060941,0.009120422908943146
1772644003180560000,8.031559814453125,0.09386427861154079,0.005025974935851991,0.0022186624301597474
1772644003190601000,8.04160107421875,0.1025432596296072,0.0034990210969001053,0.00018086385908536612
1772644003200640800,8.051640869140625,0.08548340375721454,0.0077432710705325,-0.005673899184260517
1772644003210681900,8.061681884765624,0.09236439544260501,0.004820734687335789,0.009447791699785739
1772644003220723000,8.071722900390625,0.09879705883860587,-0.0023031258432194587,0.004181980126071721
1772644003230764000,8.081763916015625,0.09670271690785884,0.024738464208878576,-0.011021909148711711
1772644003240804900,8.091804931640626,0.10897183137238026,0.0030418519139289854,-0.007637198613863438
1772644003250844700,8.1018447265625,0.11241583434641361,0.009564604746177792,-0.001504294482572004
1772644003260885800,8.1118857421875,0.09041852207183837,0.0006176935069262981,0.010579636140773072
1772644003270926600,8.121926513671875,0.09071662823557854,0.01098086475227028,-0.006805707092629745
1772644003280967700,8.1319677734375,0.09715104519724846,0.0072525649441406125,-0.005779642847366631
1772644003291008800,8.1420087890625,0.07575462142527103,0.0015238120337948203,-0.0092554657317698
1772644003301048800,8.152048828125,0.07680383821725845,0.0028024536674842236,0.003933046866301447
1772644003311089700,8.162089599609375,0.10254384415149688,0.005111278599128127,-0.0027640852853190153
1772644003321130800,8.172130859375,0.09670680856108665,0.005437478346191346,0.00610216193315573
1772644003331171800,8.182171875,0.0992494787812233,0.009643186407722533,0.008997189254919066
1772644003341212000,8.1922119140625,0.10209142420887947,0.01071757417358458,0.0025561050904449076
1772644003351252700,8.202252685546876,0.09012333851754664,0.017227759785205125,-0.00448481726385653
1772644003361293800,8.2122939453125,0.09012392303943634,0.016450857128575445,-0.00029373138272203504
1772644003371335000,8.2223349609375,0.08503799807727336,0.005341507158428431,-0.0015383154831826685
1772644003381375700,8.232375732421875,0.08279168045520782,0.01464179841261357,0.0012209748960100113
1772644003391415800,8.242415771484374,0.08892389959990978,0.016514606547169387,0.0014210366459097713
1772644003401457000,8.252456787109375,0.09371171839833259,0.016836093586497007,-0.002160420303745195
1772644003411497700,8.262497802734375,0.09476035066843032,0.021165172299370167,0.008842701946105808
1772644003421538800,8.272538818359376,0.10343874716460705,0.0041269437368959185,0.0021032284901011736
1772644003431580000,8.282579833984375,0.09101999509632587,0.0020247838258743286,0.00369020542060025
1772644003441620000,8.292619873046876,0.0959592050641775,0.008709339623712002,-0.004961083872942254
1772644003451660800,8.302660888671875,0.09236673353016375,0.0018491715306416152,0.00012881401143968103
1772644003461702000,8.312701904296874,0.09595569793283938,0.007474975523166358,-0.00018551263473927973
1772644003471743000,8.322742919921875,0.09056815967559814,0.007950885939225555,-0.005884856787510216
1772644003481783000,8.332782958984374,0.10343874716460705,0.002687047126889229,-0.0001234528497327119
1772644003491823900,8.342823974609376,0.09521277061104774,0.012301957288198172,0.005064334184862673
1772644003501865000,8.352864990234375,0.09057634298205375,0.018982092639245093,0.011286651898967102
1772644003511905800,8.36290576171875,0.09850888954699039,0.009527743334509432,0.0014981113369576633
1772644003521947000,8.37294677734375,0.07905775462388992,0.0057176104618236415,0.001223294717259705
1772644003531986700,8.382986572265626,0.09282441416978836,0.008425700376741587,-0.0007380867498926818
1772644003542027800,8.39302783203125,0.10419570301175117,0.011872479829750954,-0.0018636201811023055
1772644003552068600,8.403068603515624,0.11122983943223953,-0.0013415508020669222,0.01326229935348965
1772644003562109700,8.413109619140625,0.09911036257147789,0.0031529110729694365,-0.0046258697023615234
1772644003572150800,8.42315087890625,0.08684124810695648,0.012701806793361902,0.0032945389002095905
1772644003582190800,8.43319091796875,0.08519640350937843,-0.004884885964728892,-0.0006509381894022226
1772644003592231700,8.443231689453125,0.08893734360337256,0.009896613179519773,0.0015030889061745255
1772644003602272800,8.453272705078126,0.09208090232610702,0.012841617122851312,0.004523706235829741
1772644003612313900,8.46331396484375,0.08879004408717155,0.010557890099845826,0.012920317515404895
1772644003622354700,8.473354736328124,0.08654723359644413,0.006321458106487989,0.008261486258357762
1772644003632394800,8.483394775390625,0.09193710994124411,0.00757058138474822,0.0021227643076330424
1772644003642435800,8.493435791015624,0.08954349280297756,0.007122983747720718,-0.01092051286716014
1772644003652476700,8.5034765625,0.09283902721703052,0.007932802293263375,-0.0017254446862731128
1772644003662517800,8.513517822265625,0.08491174134910107,0.00022365268804132936,-0.0039012726217042652
1772644003672558800,8.523558837890626,0.09299567908346652,0.006713416566140949,0.008024901023507117
1772644003682599000,8.533598876953125,0.09180033181905746,0.0009944909300655127,0.0021468667024280874
1772644003692639700,8.5436396484375,0.0925520269691944,0.0015214739462360738,0.010154569995962082
1772644003702680800,8.553680908203125,0.09135784874856472,-0.006036028761230409,-0.008152518591703847
1772644003712722000,8.563721923828124,0.08746727105081081,0.01130921992380172,-0.00020355974808335304
1772644003722762800,8.5737626953125,0.09719371529519558,0.015061046737991272,-0.0075589457458816465
1772644003732802800,8.583802734375,0.10437632027566432,0.0142916332680732,-0.0018086385908536611
1772644003742844000,8.593843994140625,0.0956979237794876,0.009140534115210175,-0.004109216283960267
1772644003752885000,8.603885009765625,0.09614625206887721,0.006777640908770263,-0.0032177290706429627
1772644003762925800,8.61392578125,0.08716916488707065,-0.005246339688263833,-0.0022889603205490856
1772644003772967000,8.623966796875,0.08447744158506393,0.00021766133867204187,-0.0010685608132742345
1772644003783007000,8.634007080078124,0.0822352156162262,0.0019360095638781786,0.0037422278687823563
1772644003793047800,8.6440478515625,0.08971884936988353,0.01323200467992574,0.0061801042738836255
1772644003803089000,8.6540888671875,0.09421090009212493,0.004476012902893125,0.007197976079536601
1772644003813130000,8.6641298828125,0.08717793271541595,0.004202785452082753,-0.005296151913050562
1772644003823170800,8.6741708984375,0.09166589178442955,0.015475363159924744,0.00228834839919582
1772644003833210600,8.684210693359375,0.09211597363948822,-0.0016024302279576657,0.002845580423157662
1772644003843251700,8.694251708984375,0.08448562489151955,0.010064663222804665,0.008626447113230825
1772644003853292800,8.704292724609376,0.07610591908097267,0.013360234169475734,-0.007412879205541685
1772644003863333600,8.714333740234375,0.08448328680396079,0.008484554424509405,-0.00379916395409964
1772644003873373700,8.724373779296876,0.09271160144507884,0.003740720898285508,-0.004965696115978062
1772644003883414800,8.734414794921875,0.09555179330706595,0.008601349204592407,0.00004579363679513335
1772644003893455600,8.74445556640625,0.09495265837013721,0.006348053852468729,-0.0013967515880241989
1772644003903496700,8.75449658203125,0.09869418298602103,0.004123144344612956,0.008977388575905933
1772644003913537800,8.764537841796875,0.09615209728777407,0.0016745821487158536,-0.005539468282787129
1772644003923578600,8.77457861328125,0.10318506466448306,0.017364610972627998,-0.0020553250946104525
1772644003933618700,8.78461865234375,0.09749942024350165,0.010446611745096743,0.0024828845906071364
1772644003943659800,8.79465966796875,0.07849427552223205,0.010192235125228762,0.01027457964643836
1772644003953700900,8.804700927734375,0.08163666520118713,0.012863609758950768,0.008959697655588388
1772644003963741700,8.81474169921875,0.0952536871433258,0.010632928097434342,0.0005536883600056171
1772644003973782800,8.82478271484375,0.10482874021828174,0.02069397459104657,0.004188373334240168
1772644003983822800,8.83482275390625,0.09884089798033237,0.0035626974502578376,0.013174173545464872
1772644003993864000,8.844864013671875,0.10003975237607955,0.01984141288232058,0.0026336455723736433
1772644004003905300,8.8549052734375,0.10018822093605995,0.01553662836048752,0.010399649064522235
1772644004013946400,8.8649462890625,0.10123860677182674,0.0018545052928850053,0.013482517975429072
1772644004023986400,8.874986328125,0.09929390244483947,0.009475647821091115,0.009443343853531405
1772644004034027300,8.88502734375,0.09794833305478096,0.00976056570969522,0.012815660697687416
1772644004044068400,8.895068359375,0.10079144752621651,0.008263605150207876,0.00026678857686929404
1772644004054109400,8.905109375,0.09555413139462471,0.016925890761800108,0.008215957483043894
1772644004064150300,8.915150390625,0.09345745137631893,0.016247881902381776,0.003836198895704001
1772644004074191400,8.92519140625,0.0934586204200983,0.0019855477940291166,-0.004193387436075136
1772644004084231400,8.9352314453125,0.07894611094295978,0.007603241545334458,0.00983030647765845
1772644004094272300,8.945272216796875,0.0874766234010458,0.01148183654434979,0.0026019169935490934
1772644004104313300,8.955313232421876,0.0895721343755722,0.008615122001618146,-0.009075670451764016
1772644004114354400,8.9653544921875,0.0957066916078329,0.004310008686222136,0.0006194653389044105
1772644004124395300,8.975395263671874,0.0978022025823593,0.004154818124510348,-0.014343427387392147
1772644004134435300,8.985435302734375,0.10738017826676369,0.010079239737428724,0.010216337520023808
1772644004144476400,8.995476318359374,0.08867547779679298,0.011415529842488467,-0.0051609903592150655
1772644004154517500,9.005517578125,0.0907704042494297,0.009311579833179711,-0.0021337971583008765
1772644004164558300,9.015558349609375,0.0970528455197811,0.01911689800005406,-0.0024339582818094637
1772644004174599400,9.025599365234376,0.0973538742929697,0.012328443436324596,-0.011409584158891812
1772644004184639200,9.03563916015625,0.09241583336889743,0.014395422436110675,0.0001484776931349188
1772644004194680300,9.045680419921876,0.10019932685196399,0.009977752124331891,0.009889425386907532
1772644004204721200,9.05572119140625,0.09810615396499633,0.01455039380211383,-0.014303214108012616
1772644004214762200,9.06576220703125,0.08583411689102649,0.0062185822539031505,-0.0010003635484259574
1772644004224803300,9.07580322265625,0.10259411303400992,0.005179558062367141,0.008091627850476651
1772644004234843100,9.085843017578124,0.1040899045497179,0.008328450547344983,0.00332123511089012
1772644004244884200,9.09588427734375,0.09720482121109962,0.0017769465446472166,-0.006040266544930637
1772644004254925300,9.10592529296875,0.10124620555639266,0.003517543134279549,0.003723514035157859
1772644004264966100,9.115966064453126,0.09346855729222298,0.011949161795154213,-0.0009384590270463377
1772644004275007200,9.12600732421875,0.09182195912897587,0.01436170282959938,-0.004228093423275276
1772644004285047300,9.13604736328125,0.09032733665704727,-0.005292261189222335,-0.0024524985854979604
1772644004295088400,9.14608837890625,0.08733283101618289,0.01611497623771429,0.004077716033998877
1772644004305129200,9.156129150390624,0.1030436103671789,0.01259925973434001,0.003553984420839697
1772644004315170300,9.16617041015625,0.09376257180273533,0.006290441913716495,0.009349948215344921
1772644004325211400,9.17621142578125,0.08852350210547447,0.012321977162919938,0.0120665410971269
1772644004335251500,9.18625146484375,0.09001929362118244,0.011003697638586163,-0.004416875727334991
1772644004345292300,9.196292236328125,0.09211480459570884,0.0032092078374698755,-0.0033906836179085076
1772644004355333400,9.20633349609375,0.09630290393531322,0.006735884126275777,-0.005100245748460293
1772644004365374200,9.216374267578125,0.10109013821184634,0.010517046632803976,0.004317415674543008
1772644004375415300,9.226415283203124,0.08972001841366291,0.009987360202893614,0.002531043714424595
1772644004385456400,9.236456298828125,0.09600538229346275,0.012339439754374324,0.0021252393925096837
1772644004395496400,9.246496337890624,0.10213993952572345,0.008912570578232406,0.004702314205747097
1772644004405537300,9.256537353515625,0.09959960739314555,0.008347958965413273,0.00798184733306989
1772644004415578400,9.266578369140625,0.09166881439387797,0.019877105250209567,-0.005027080047549679
1772644004425619500,9.276619384765626,0.10348609343767165,0.00335829745195806,0.00341621991796419
1772644004435660300,9.286660400390625,0.09974749143123626,0.007762852553837001,-0.001777887259563431
1772644004445700400,9.296700439453126,0.09645780223608016,0.009955028835870326,-0.0006472392618190497
1772644004455741400,9.306741455078125,0.09645838675796985,0.0068257543668150894,0.007243249126523733
1772644004465782500,9.316782470703124,0.09840601369440555,0.013935330643691122,0.005296371108759195
1772644004483353300,9.334353271484375,0.09496960950493812,0.002375204698741436,-0.001699259932246059
1772644004493394400,9.34439453125,0.08868599919080734,0.003686835286580026,-0.00575773240965791
1772644004503435300,9.354435302734375,0.0969184054851532,0.002275616781786084,-0.0024953604796901343
1772644004513476400,9.364476318359374,0.09602116438448428,0.007794855127297342,0.001573450728645548
1772644004523516400,9.374516357421875,0.09841595056653023,-0.004523359175957739,0.002364856834663078
1772644004533557500,9.3845576171875,0.10215747518241405,0.007864303634315728,-0.000610962372040376
1772644004543598300,9.394598388671875,0.08704407720267772,0.009515358776971697,-0.004057449564104899
1772644004553639400,9.404639404296875,0.08345277471244335,0.0006971154186874627,0.002827094918396324
1772644004563680500,9.414680419921876,0.0985690953016281,-0.007452252234704792,0.0000821070591919124
1772644004573720300,9.42472021484375,0.09183598765432834,0.012005641222745179,-0.0029743396356701848
1772644004583761200,9.43476123046875,0.08943944790661335,0.019717969165742397,-0.005678237432660535
1772644004593802200,9.44480224609375,0.09198328717052937,0.001473104759864509,0.002058339035604149
1772644004603843300,9.45484326171875,0.092129417642951,0.007854768620990216,0.009128907609498128
1772644004613884200,9.46488427734375,0.09512509232759475,0.02292703087273985,0.005496889516385272
1772644004623925200,9.47492529296875,0.09198328717052937,0.006615436084382235,0.005543888729577884
1772644004633965300,9.48496533203125,0.10230886635184287,0.010222374535165727,0.0009312621012795716
1772644004644006100,9.495006103515625,0.09407762910127639,0.00025927199069410563,-0.011407647930132225
1772644004654047200,9.505047119140626,0.10320903006196021,0.004062171404995024,0.009382407446531578
1772644004664088300,9.51508837890625,0.09199030143320559,0.0005259966354817151,0.004141556784138083
1772644004674129200,9.525129150390624,0.08825228394865989,0.0031562720738351345,-0.0020043986249715087
1772644004684169200,9.535169189453125,0.09588438626229763,0.01803392506893724,0.00008322130404412746
1772644004694210300,9.545210205078124,0.09918050519824027,0.01582658775039017,-0.0014387549656908957
