time,seconds_elapsed,z,y,x
1772643995218225000,0.069224853515625,0.0005041412077844143,-0.0002702699857763946,-0.00019129342399537563
1772643995228266000,0.079265869140625,0.0018934851977974176,0.0016065153758972883,0.00006060325540602207
1772643995238307000,0.08930712890625,0.00036030326737090945,-0.0008116348762996495,-0.0005894743371754885
1772643995248347100,0.09934716796875,-0.0006299099186435342,-0.000346622196957469,0.001233171089552343
1772643995258388000,0.109387939453125,0.0009754436323419213,0.00007362465839833021,-0.00007071252912282944
1772643995268429000,0.119428955078125,0.00037791591603308916,-0.0013976518530398607,-0.000721591291949153
1772643995278470100,0.12947021484375,0.00024875259259715676,0.0009552508709020913,-0.0002094656229019165
1772643995288510200,0.13951025390625,-0.0000892939860932529,0.0006661476218141615,-0.0005036871880292892
1772643995298551000,0.149551025390625,0.0011554674711078405,0.0015561759937554598,-0.0005665377248078585
1772643995308592000,0.159592041015625,0.0002820240333676338,-0.001008985098451376,-0.0007641133852303028
1772643995318633000,0.169633056640625,-0.0006210539140738547,0.000629657821264118,0.00006492878310382366
1772643995328674000,0.179674072265625,-0.00020260264864191413,-0.0005468211020343006,0.0005166586488485336
1772643995338714000,0.189714111328125,0.0002634504926390946,0.0010891588171944022,0.000026370631530880928
1772643995348755200,0.199755126953125,0.0007780952146276832,-0.00026753125712275505,0.0008378305938094854
1772643995358796000,0.209796142578125,0.0005203012260608375,-0.0007700696587562561,0.0003171826247125864
1772643995368837000,0.219837158203125,-0.00010579358786344528,0.0011464474955573678,-0.00029123411513864994
1772643995378877200,0.229877197265625,0.0005139240529388189,0.0006929112132638693,0.0013024015352129936
1772643995388918300,0.239918212890625,0.00014638318680226803,-0.0006612702272832394,0.000354066607542336
1772643995398959000,0.249958984375,0.00022574537433683872,0.0005861544050276279,-0.0013634059578180313
1772643995409000200,0.260000244140625,0.00006692536408081651,0.0010272235376760364,0.0004987899446859956
1772643995419040000,0.2700400390625,-0.000025219982489943504,0.0000024391338229179382,0.0007243596483021975
1772643995429081000,0.2800810546875,-0.00031809473875910044,0.000022835039999336004,-0.00099055259488523
1772643995439122000,0.290121826171875,0.0010180132230743766,-0.0005151234799996018,0.0011604826431721449
1772643995449163000,0.3001630859375,0.0005518124671652913,-0.00022683333372697234,-0.00017516175284981728
1772643995459203800,0.310203857421875,0.00028176791965961456,-0.00025000289315357804,-0.00026704091578722
1772643995469244000,0.320243896484375,0.000294931058306247,0.0006937010330148041,-0.0002536717802286148
1772643995479285000,0.330284912109375,0.0005673724226653576,-0.0009092555847018957,-0.00021239276975393295
1772643995489326000,0.340326171875,0.00028306659078225493,0.00017870479496195912,-0.0011013990733772516
1772643995499367000,0.350366943359375,0.001309715211391449,0.00010600051609799266,0.00004802108742296696
1772643995509407000,0.360406982421875,-0.000641672988422215,0.00017174641834571958,-0.0005738281179219484
1772643995519448000,0.370447998046875,0.0004885725793428719,-0.00003917596768587828,-0.001083557028323412
1772643995529489200,0.3804892578125,0.00044852803694084287,0.0005426219431683421,-0.00031617050990462303
1772643995539530000,0.390530029296875,-0.00007371784886345267,0.0005197187419980764,-0.0014562697615474463
1772643995549571000,0.400571044921875,0.00034274772042408586,0.00022846466163173318,0.0006334797944873571
1772643995559611100,0.410611083984375,-0.0007139946101233363,0.000528336560819298,-0.00011380319483578205
1772643995569652000,0.42065185546875,0.0016324593452736735,0.0010601258836686611,0.0009036601986736059
1772643995579693000,0.430693115234375,0.0010207312880083919,-0.0001827713567763567,0.0006200335919857025
1772643995589734100,0.440734130859375,-0.00009995198342949152,-0.0005492994096130133,0.00008653965778648853
1772643995599774200,0.450774169921875,-0.0016283401055261493,0.0003279459197074175,0.0007659121183678508
1772643995609815000,0.46081494140625,0.00040919907041825354,0.0006545017240568995,-0.0008935611695051193
1772643995619856100,0.470856201171875,-0.0011543428990989923,0.000053692550864070654,0.00035492877941578627
1772643995629897200,0.480897216796875,0.0014791312860324979,0.000050288334023207426,0.0009423848241567612
1772643995639937300,0.490937255859375,0.00030041614081710577,0.0005749310366809368,-0.0004778788425028324
1772643995649978000,0.50097802734375,-0.000634096737485379,-0.0006867924239486456,-0.00017401971854269505
1772643995660019200,0.511019287109375,0.0003435497055761516,0.0016242987476289272,0.0004962978418916464
1772643995670060000,0.52106005859375,-0.00019365217303857207,0.0006283866241574287,-0.00003329734317958355
1772643995680101000,0.53110107421875,0.00009290390880778432,0.001054492429830134,-0.0009132057894021273
1772643995690141000,0.541140869140625,0.00038517778739333153,-0.0006299923406913877,-0.0006829348858445883
1772643995700182000,0.55118212890625,-0.0003565125516615808,-0.0004568868316709995,-0.0006866634357720613
1772643995710222800,0.561222900390625,0.00003163929795846343,-0.0008675421122461557,0.00018024840392172337
1772643995720264000,0.571263916015625,0.0004255208477843553,-0.00001799373421818018,-0.0006615768652409315
1772643995730304000,0.581303955078125,0.0004109699511900544,0.0004230954800732434,-0.0010521011427044868
1772643995740345000,0.591344970703125,-0.0007903820369392633,0.00017302465857937932,0.0003287477884441614
1772643995750386000,0.601385986328125,-0.0011779251508414745,0.000063201820012182,-0.0006828403566032648
1772643995760427000,0.611427001953125,0.0008548658224754035,0.0003494916018098593,-0.0016058918554335833
1772643995770468000,0.621468017578125,-0.00029473990434780717,0.0000061354367062449455,0.00037368061020970345
1772643995780508200,0.631508056640625,0.0017220720183104277,-0.0012476807460188866,-0.0013405962381511927
1772643995790549000,0.641549072265625,-0.001248262939043343,0.00024246802786365151,-0.0011950402986258268
1772643995800590000,0.651590087890625,0.00028731580823659897,0.00014286581426858902,-0.0009681389201432467
1772643995810631000,0.661630859375,-0.000819769746158272,0.000047884241212159395,-0.0006834322120994329
1772643995820671000,0.6716708984375,0.0011160820722579956,-0.0009255011100322008,-0.00018195901066064835
1772643995830712000,0.681712158203125,0.0006277959328144789,-0.0004491368308663368,-0.00007287319749593735
1772643995840753200,0.691753173828125,-0.00041136948857456446,-0.0001154427882283926,-0.00013492489233613014
1772643995850794000,0.7017939453125,-0.0009446020121686161,-0.0005232989205978811,0.000044730259105563164
1772643995860834000,0.711833984375,-0.000026344030629843473,-0.0008186435443349183,-0.0007472939323633909
1772643995870875100,0.721875244140625,0.0005987326148897409,0.0012801475822925568,0.00023550167679786682
1772643995880916200,0.731916259765625,0.0004032565630041063,0.0004601603141054511,-0.0006920774467289448
1772643995890957000,0.74195703125,-0.00037708081072196364,-0.0008040535030886531,-0.00009576021693646908
1772643995900998100,0.751998046875,0.00012545764911919832,-0.0004586415598168969,-0.001600712537765503
1772643995911038200,0.7620380859375,0.0004779235168825835,-0.0011867389548569918,-0.00035500037483870983
1772643995921079000,0.7720791015625,-0.00010637403465807438,0.000026863475795835257,-0.0015267911367118359
1772643995931120000,0.7821201171875,-0.000728403334505856,-0.0014323226641863585,-0.00025244313292205334
1772643995941161200,0.7921611328125,-0.0005901852855458856,0.0013493490405380726,0.0010423858184367418
1772643995951201000,0.802200927734375,0.0006722982507199049,-0.0006963536143302917,-0.00011363322846591473
1772643995961241900,0.812241943359375,0.00024512724485248327,0.00008341995999217033,-0.00034239888191223145
1772643995971283000,0.822282958984375,0.00011506583541631699,-0.0012808430474251509,-0.0005220449529588223
1772643995981324000,0.832323974609375,0.00017791643040254712,-0.0007372919353656471,-0.0007052705623209476
1772643995991364900,0.84236474609375,0.0013837870210409164,0.000008276838343590498,0.0003840371500700712
1772643996001405700,0.85240576171875,-0.000055917887948453426,0.00008417695062234998,-0.001193353207781911
1772643996011446800,0.86244677734375,0.0006432429072447121,-0.00008112599607557058,-0.00017876969650387764
1772643996021487600,0.872487548828125,0.00011354015441611409,-0.0009165595984086394,0.000828704098239541
1772643996031528700,0.88252880859375,0.0007988593424670398,0.00044095137855038047,-0.00033108238130807877
1772643996041568800,0.89256884765625,-0.00042459683027118444,-0.0008831722661852837,-0.0021766528952866793
1772643996051609900,0.90260986328125,0.00017722934717312455,-0.0002859880914911628,-0.0006934639532119036
1772643996061650700,0.912650634765625,0.00005285971565172076,-0.0002316596219316125,-0.0008782872464507818
1772643996071691800,0.92269189453125,-0.0012555436696857214,-0.0005938507965765893,-0.00024158437736332417
1772643996081731600,0.932731689453125,-0.0015540840104222298,0.00030416715890169144,-0.0011723591014742851
1772643996091772700,0.942772705078125,-0.0008696765871718526,-0.0008652066462673247,0.00004851724952459335
1772643996101813500,0.9528134765625,-0.00015328614972531796,-0.0008905067224986851,-0.0011618896387517452
1772643996111854800,0.962854736328125,-0.000801011105068028,0.0002415832132101059,-0.0000695942435413599
1772643996121895700,0.972895751953125,0.0010658648097887635,0.0006506447680294514,0.0006752918707206845
1772643996131935500,0.982935546875,-0.0011961627751588821,-0.00021082250168547034,-0.0005355819594115019
1772643996141976600,0.9929765625,0.0009727156721055508,-0.0004201470292173326,-0.0004290554206818342
1772643996152017700,1.003017578125,-0.0021792403422296047,-0.0002859861124306917,-0.0011781009379774332
1772643996162058500,1.01305859375,-0.0005134332459419966,0.0008152309455908835,0.0001457564067095518
1772643996172098600,1.0230986328125,0.0008389413123950362,-0.0002177900169044733,0.0005154518876224756
1772643996182139600,1.0331396484375,0.000323619635310024,-0.0003219195641577244,0.00031891046091914177
1772643996192180700,1.0431806640625,-0.0006422078004106879,0.0006165416561998427,0.0007492175791412592
1772643996202221600,1.0532216796875,-0.0010275671957060695,-0.0005054481443949044,0.000516457250341773
1772643996212262700,1.0632626953125,0.00014575326349586248,0.00026114785578101873,0.00006791483610868454
1772643996222302700,1.073302734375,0.0009574847645126283,-0.0013844192726537585,0.0013523574452847242
1772643996232343600,1.083343505859375,-0.000852773548103869,-0.000020049046725034714,0.00037478795275092125
1772643996242384600,1.093384521484375,-0.0004245373420417309,-0.0007042151410132647,-0.0004220297560095787
1772643996252425700,1.10342578125,-0.00027296727057546377,0.0006816387176513672,0.001082427566871047
1772643996262465800,1.1134658203125,-0.00016510917339473963,-0.0002773655578494072,-0.0006795197259634733
1772643996272506600,1.123506591796875,-0.0006567228119820356,0.00003863562596961856,0.001001486903987825
1772643996282547700,1.133547607421875,-0.000025819987058639526,-0.00000610545976087451,-0.0006842941511422396
1772643996292588800,1.1435888671875,0.0008862320682965219,-0.0004479843773879111,-0.0003312013577669859
1772643996302628900,1.15362890625,-0.0006666571134701371,0.00009583315113559365,0.00023099198006093502
1772643996312669700,1.163669677734375,0.0011507520684972405,-0.001731546246446669,-0.0011057236697524786
1772643996322710800,1.173710693359375,-0.000549409887753427,0.00028153712628409266,-0.0004838756285607815
1772643996332752000,1.183751953125,-0.0006728963926434517,-0.0006643991218879819,0.0001662971917539835
1772643996342792700,1.193792724609375,-0.001131226308643818,-0.00035254296381026506,0.0009319559903815389
1772643996352832500,1.20383251953125,0.00026679690927267075,-0.00030478573171421885,-0.00003923545591533184
1772643996362873600,1.21387353515625,0.00047372450353577733,0.0005708616226911545,-0.0008885175921022892
1772643996372914700,1.223914794921875,0.00025308277690783143,0.0006670430884696543,0.0003084978088736534
1772643996382955800,1.233955810546875,0.0009295257041230798,-0.00022751267533749342,-0.0004971083253622055
1772643996392995600,1.24399560546875,0.00001962075475603342,0.00002259778557345271,0.0004932492738589644
1772643996403036700,1.25403662109375,-0.0006613496225327253,-0.000705510494299233,0.0012463912134990096
1772643996413077500,1.264077392578125,-0.0004079911159351468,0.0013944859383627772,-0.00017371750436723232
1772643996423118600,1.27411865234375,-0.00018428557086735964,0.00044027535477653146,0.0004382769111543894
1772643996433159700,1.28415966796875,0.0011069063330069184,0.0009062273893505335,0.00041702797170728445
1772643996443199700,1.29419970703125,0.00007786089554429054,0.0005570869543589652,-0.0010650211479514837
1772643996453240600,1.304240478515625,0.0009604799561202526,-0.00001636671368032694,-0.0016270105261355639
1772643996463281700,1.31428173828125,-0.0006435419199988246,0.0006811151979491115,0.000535476254299283
1772643996473322800,1.32432275390625,-0.0017074450151994824,0.0007308110361918807,-0.0007227561436593533
1772643996483362600,1.334362548828125,0.0008033833000808954,-0.00037546607200056314,-0.0000969134271144867
1772643996493403600,1.344403564453125,-0.0008473412599414587,0.0006336296210065484,0.0011724535143002868
1772643996503444700,1.35444482421875,-0.0005682420451194048,-0.0005232476396486163,0.001265131519176066
1772643996513485600,1.364485595703125,0.0014426489360630512,0.0006558031891472638,0.00023779505863785744
1772643996523525600,1.374525634765625,-0.0006956030847504735,0.00028216169448569417,-0.0009784707799553871
1772643996533566700,1.384566650390625,0.0009466232731938362,0.0004066767869517207,-0.0003260949160903692
1772643996543607800,1.39460791015625,-0.0009764453861862421,-0.0006463370518758893,-0.0005567246116697788
1772643996553648600,1.404648681640625,-0.0006197795737534761,0.0008599751745350659,-0.0003723776899278164
1772643996563689700,1.414689697265625,0.0008329747943207622,-0.0005184769397601485,0.0005410865414887667
1772643996573729800,1.424729736328125,-0.00008040678221732378,0.0002742744400165975,-0.0017497269436717033
1772643996583770600,1.4347705078125,-0.0006324800197035074,0.0014346137177199125,-0.0004884540103375912
1772643996593811700,1.444811767578125,-0.0003890731604769826,0.0004646041779778898,0.0010916133178398013
1772643996603852800,1.454852783203125,-0.0010956097394227982,0.0004568810109049082,0.0005336811300367117
1772643996613892600,1.464892578125,-0.00020855513866990805,-0.0014821977820247412,0.0006941752508282661
1772643996623933400,1.474933349609375,-0.00033638684544712305,0.0003689653822220862,0.0005535603268072009
1772643996633974800,1.484974853515625,0.0004636063822545111,0.0011441591195762157,0.00011898297816514969
1772643996644015900,1.495015869140625,0.00013097759801894426,-0.0008438905933871865,0.0007525489199906588
1772643996654056700,1.505056640625,-0.0005003324477002025,0.000158804003149271,0.0005905526923015714
1772643996664096500,1.515096435546875,0.0011811874574050307,-0.00003826990723609924,0.00010106363333761692
1772643996674137600,1.5251376953125,-0.0003623595694079995,-0.00026703067123889923,-0.0008482479024678469
1772643996684178700,1.5351787109375,-0.0007727526826784015,0.00042192917317152023,0.00012167543172836304
1772643996694219500,1.545219482421875,-0.00043950614053756,-0.0008327618706971407,-0.0005121610593050718
1772643996704259600,1.555259521484375,-0.0001737226266413927,-0.000149394734762609,-0.0003819325938820839
1772643996714300700,1.56530078125,0.00046700669918209314,-0.0008324558148160577,0.0002748642582446337
1772643996724341500,1.575341552734375,0.00041108031291514635,0.0004160341341048479,-0.000048443442210555077
1772643996734382600,1.585382568359375,0.0002758260816335678,0.0013903242070227861,-0.0007523640524595976
1772643996744422700,1.595422607421875,0.001594357192516327,0.0005194706027396023,-0.0005819217767566442
1772643996754463700,1.605463623046875,-0.0008884581038728356,0.0010717391269281507,0.0006015045801177621
1772643996764504600,1.615504638671875,0.0003672222374007106,-0.000885151675902307,-0.000024870969355106354
1772643996774545700,1.625545654296875,0.00011026702122762799,0.0008570511126890779,0.0005401805974543095
1772643996784586800,1.635586669921875,0.00021998927695676684,0.0006064476328901947,-0.0008712948765605688
1772643996794626800,1.645626708984375,-0.00024349382147192955,0.0003414293169043958,-0.0003918774891644716
1772643996804667600,1.655667724609375,0.0010302960872650146,0.001365681062452495,-0.0013287775218486786
1772643996814708700,1.665708740234375,0.0005905256839469075,0.0007227591122500598,0.001053806277923286
1772643996824749800,1.675749755859375,0.00031062745256349444,0.00027934281388297677,0.0010583336697891355
1772643996834789600,1.68578955078125,0.00025186140555888414,0.0010841911425814033,0.0005830406444147229
1772643996844830700,1.695830810546875,-0.00011565478052943945,0.00022984913084656,-0.0003626476973295212
1772643996854871800,1.705871826171875,0.0014351173304021358,-0.0003947952063754201,-0.0009711070451885462
1772643996864912600,1.71591259765625,0.0003133939462713897,0.0008169431239366531,-0.00033833994530141354
1772643996874953700,1.72595361328125,-0.0007723963353782892,0.0012114144628867507,-0.0008362012449651957
1772643996884993800,1.735993896484375,-0.00010367657523602247,-0.001131368218921125,-0.0015376780647784472
1772643996895035000,1.746034912109375,0.00010106922127306461,0.0008635572157800198,-0.00015008007176220417
1772643996905075700,1.75607568359375,-0.0010398289887234569,0.00016447744565084577,0.00105153804179281
1772643996915116800,1.76611669921875,0.00047267123591154814,0.0008603458991274238,0.0004370511742308736
1772643996925156600,1.776156494140625,0.00023032358149066567,0.0003551442641764879,-0.00048360368236899376
1772643996935197700,1.78619775390625,-0.0014311008853837848,-0.00009264296386390924,-0.0011232648976147175
1772643996945238500,1.796238525390625,0.0008688050438649952,-0.0002412473550066352,-0.0004486863035708666
1772643996955279600,1.806279541015625,-0.00021285552065819502,0.0007768559735268354,0.00021143746562302113
1772643996965319700,1.816319580078125,0.000510192709043622,0.0002732521970756352,0.0011826923582702875
1772643996975360500,1.826360595703125,-0.000011679599992930889,0.00029322528280317783,-0.0009943516924977303
1772643996985401600,1.836401611328125,-0.000380793702788651,0.0008418364450335503,-0.0004561268724501133
1772643996995442700,1.846442626953125,0.0006790455663576722,-0.0012292535975575447,-0.0005286987870931625
1772643997005483500,1.8564833984375,-0.000850674114190042,0.0009377606329508126,-0.00021098367869853973
1772643997015523600,1.866523681640625,-0.000538571854121983,0.000015241210348904133,-0.0011297115124762058
1772643997025564700,1.876564697265625,-0.001249369466677308,0.0014469566522166133,-0.0012269169092178345
1772643997035605800,1.886605712890625,0.00013398716691881418,0.00017548591131344438,-0.00010990421287715435
1772643997045646600,1.896646484375,-0.0012615092564374208,0.0014809675049036741,-0.0000015133991837501526
1772643997055686700,1.906686767578125,-0.00022224790882319212,-0.0003686982672661543,0.0002331114374101162
1772643997065727700,1.916727783203125,-0.0007231885101646185,0.0005253249546512961,-0.00005877111107110977
1772643997075768800,1.926768798828125,-0.001269678701646626,0.0006987688248045743,0.0014616092666983604
1772643997085809700,1.9368095703125,0.00029466208070516586,-0.0001648942707106471,0.0003854258684441447
1772643997095850800,1.946850830078125,0.0015305452980101109,0.0004006483359262347,-0.00024079671129584312
1772643997105890800,1.956890869140625,-0.001044997712597251,0.001320770476013422,-0.0009047226049005985
1772643997115931600,1.966931640625,-0.0011093957582488656,0.0002977357362397015,0.00010134279727935791
1772643997125972700,1.97697265625,-0.00004040298517793417,-0.00046525988727808,-0.0009636553004384041
1772643997136013800,1.987013916015625,-0.00033293396700173616,0.000545637565664947,0.00007385388016700745
1772643997146054000,1.997053955078125,-0.001626697601750493,-0.000572890043258667,0.0000509507954120636
1772643997156094700,2.0070947265625,0.00034017639700323343,0.0004886782844550908,0.0008825783152133226
1772643997166135800,2.0171357421875,-0.0006811459315940738,-0.0009227970149368048,0.0008231898536905646
1772643997176177000,2.027177001953125,0.000606197863817215,-0.0007316862465813756,-0.00024096481502056122
1772643997186217700,2.0372177734375,0.0004538650391623378,-0.0016217147931456566,0.00046370760537683964
1772643997196257800,2.0472578125,0.0001390989637002349,0.0002524814335629344,-0.0013307046610862017
1772643997206299000,2.057298828125,-0.000037202262319624424,0.00008097384124994278,0.0012909109937027097
1772643997216339700,2.067339599609375,0.0003679621731862426,-0.00009653449524194002,-0.0005577690899372101
1772643997226380800,2.077380859375,0.00022628199076279998,-0.0004637844394892454,0.0006278702057898045
1772643997236420600,2.087420654296875,-0.00013254827354103327,0.0008656115969642997,0.0005929606268182397
1772643997246461700,2.097461669921875,0.00020567321917042136,-0.0013751720543950796,-0.00010372232645750046
1772643997256502500,2.10750244140625,0.00039428146556019783,0.0011290073161944747,0.0002637093421071768
1772643997266543600,2.117543701171875,-0.000381497316993773,0.000001957640051841736,0.00027942191809415817
1772643997276583700,2.127583740234375,0.000780263333581388,0.0000066284555941820145,0.0005557734984904528
1772643997286624800,2.137624755859375,-0.0006200268398970366,0.0005336680333130062,0.0005318049807101488
1772643997296665600,2.14766552734375,-0.0011720010079443455,-0.0001904024975374341,-0.0017123452853411436
1772643997306706700,2.157706787109375,0.0015374990180134773,0.00011612731032073498,-0.00019221310503780842
1772643997316747800,2.167747802734375,-0.0016673776553943753,-0.0005446609575301409,-0.0003664621617645025
1772643997326787600,2.17778759765625,-0.000020745093934237957,0.0008700102334842086,0.0014463515253737569
1772643997336828700,2.18782861328125,0.00001073919702321291,0.00031566194957122207,-0.0010389538947492838
1772643997346869800,2.197869873046875,-0.001349337282590568,-0.0001184332650154829,-0.00014892546460032463
1772643997356910600,2.20791064453125,0.0006339834071695805,0.001278099836781621,0.0012757390504702926
1772643997366950700,2.21795068359375,-0.0008768278639763594,-0.00020634615793824196,-0.0005727610550820827
1772643997376991700,2.22799169921875,0.00014264200581237674,-0.0004115209449082613,-0.0004988277796655893
1772643997387032800,2.23803271484375,-0.0010491226566955447,0.0001972776954062283,-0.0005438351072371006
1772643997397073700,2.24807373046875,-0.00045183999463915825,0.0007949554710648954,0.0001017844770103693
1772643997407114800,2.25811474609375,-0.00004570791497826576,-0.00008388771675527096,0.00014332984574139118
1772643997417154800,2.26815478515625,-0.00018893182277679443,0.0007486828253604472,0.001329620135948062
1772643997427196000,2.27819580078125,0.0012984436471015215,-0.000242545735090971,0.0006100339815020561
1772643997437236700,2.28823681640625,-0.0002041870029643178,-0.000656712451018393,-0.0013331461232155561
1772643997447277800,2.29827783203125,0.0009263248648494482,0.0011481117689982057,-0.0005120935384184122
1772643997457318000,2.30831787109375,-0.0009106531506404281,-0.0008912908378988504,0.0011956574162468314
1772643997467358700,2.318358642578125,-0.001567921251989901,-0.000615919940173626,0.0005154861137270927
1772643997477399800,2.32839990234375,0.00018544710474088788,-0.0012772047193720937,-0.00102873588912189
1772643997487441000,2.33844091796875,-0.00004385109059512615,0.0010227011516690254,0.0002663594204932451
1772643997497480700,2.348480712890625,-0.0005017374060116708,0.0009409462800249457,-0.00015211175195872784
1772643997507521500,2.358521484375,-0.0010434244759380817,-0.00008490332402288914,0.00011686747893691063
1772643997517562600,2.368562744140625,-0.0009277607314288616,-0.000049457710701972246,0.0008153708186000586
1772643997527603700,2.378603759765625,-0.001167178968898952,-0.0005163098103366792,-0.0005974362138658762
1772643997537644500,2.38864453125,-0.0013180355308577418,-0.0006250572623685002,0.00018396414816379547
1772643997547684600,2.3986845703125,-0.0003313344204798341,-0.0008548881160095334,0.0011799862841144204
1772643997557725700,2.4087255859375,0.0005458445521071553,-0.00004325463669374585,-0.000014807796105742455
1772643997567766800,2.418766845703125,-0.000303171225823462,-0.0009974651038646698,-0.0010803383775055408
1772643997577807600,2.4288076171875,0.0014585767639800906,0.0009250140865333378,0.0013011657865718007
1772643997587847700,2.43884765625,-0.000025070272386074066,0.00009570573456585407,0.001555231399834156
1772643997597888800,2.448888671875,0.0006499298033304513,-0.0010537905618548393,0.00030908454209566116
1772643997607929600,2.4589296875,0.0002866746508516371,-0.0013608529698103666,-0.0006440607830882072
1772643997617970700,2.468970703125,-0.000967455911450088,-0.0002875623758882284,0.00008159596472978592
1772643997628011800,2.47901171875,0.0010067453840747476,-0.0002249780809506774,-0.000848646042868495
1772643997638051800,2.4890517578125,0.0014992884825915098,0.0007736915140412748,0.0007962300442159176
1772643997648092700,2.4990927734375,-0.00021924939937889576,-0.000960026343818754,-0.00011696782894432545
1772643997658133800,2.5091337890625,-0.0002220503520220518,0.00036238011671230197,-0.0015003567095845938
1772643997668174800,2.5191748046875,0.0003073860425502062,-0.0006421642610803246,0.0001332261599600315
1772643997678215000,2.52921484375,-0.0006782696582376957,0.0011939125834032893,0.00008922955021262169
1772643997688255700,2.539255859375,-0.0011975860688835382,0.00017631874652579427,0.00021972437389194965
1772643997698296800,2.549296875,-0.00016244332073256373,-0.00018708908464759588,0.0007516432087868452
1772643997708337700,2.559337646484375,0.0006253196625038981,-0.00025819544680416584,-0.0007133616600185633
1772643997718378800,2.569378662109375,-0.0008981754654087126,0.00028521294007077813,-0.001315263332799077
1772643997728418800,2.579418701171875,-0.000580726598855108,0.0003765593282878399,-0.0000782250426709652
1772643997738460000,2.5894599609375,-0.0005177946295589209,-0.00037473090924322605,-0.0005676914006471634
1772643997748500700,2.599500732421875,-0.0011095489608123899,-0.00031054881401360035,-0.0013589165173470974
1772643997758541800,2.609541748046875,0.0007853880524635315,-0.00013832346303388476,-0.0006366767920553684
1772643997768581600,2.61958154296875,0.00032705802004784346,-0.0004829364479519427,0.000047489069402217865
1772643997778622700,2.629622802734375,-0.000618328049313277,-0.00020864646648988128,0.00036245095543563366
1772643997788663600,2.63966357421875,0.0006892840610817075,-0.0010246390011161566,0.0009291716851294041
1772643997798704600,2.64970458984375,0.0006409808993339539,-0.00008334225276485085,-0.0007933683227747679
1772643997808745700,2.659745849609375,-0.0007795492419973016,0.001662093447521329,-0.0006162682548165321
1772643997818785800,2.669785888671875,0.0010989687871187925,0.0005009382730349898,-0.0003052586689591408
1772643997828826600,2.67982666015625,-0.0005021236138418317,-0.0003587301471270621,0.0009560143807902932
1772643997838867700,2.68986767578125,-0.0009314990602433681,-0.00029526505386456847,-0.000035275937989354134
1772643997848908500,2.699908447265625,-0.0007650514598935843,0.0005612075328826904,-0.0002749604173004627
1772643997858948600,2.709948486328125,-0.001540904282592237,0.00022900727344676852,0.0005118207773193717
1772643997868989700,2.71998974609375,-0.0007134601473808289,0.0010529892751947045,-0.0005537099204957485
1772643997879030800,2.73003076171875,0.00041231937939301133,-0.001180482329800725,-0.00012165517546236515
1772643997889071600,2.740071533203125,-0.000007128517609089613,0.0001471035066060722,0.000025351298972964287
1772643997899112700,2.75011279296875,0.00020754861179739237,0.0000026110210455954075,0.000829635071568191
1772643997909152800,2.76015283203125,0.0017585735768079758,-0.0009457406704314053,0.000386485131457448
1772643997919193900,2.77019384765625,-0.00045892182970419526,0.00032891950104385614,0.0015270374715328217
1772643997929234700,2.780234619140625,-0.0009955486748367548,0.0009912475943565369,0.00105778849683702
1772643997939275800,2.79027587890625,-0.0004889554693363607,0.00008254579734057188,0.0005641205934807658
1772643997949315800,2.80031591796875,0.00009480939479544759,-0.00019468931714072824,0.00015532528050243855
1772643997959356700,2.810356689453125,-0.0012877164408564568,-0.0005024306010454893,-0.0005273607093840837
1772643997969397800,2.820397705078125,-0.0002831722376868129,-0.00000654999166727066,0.00009981379844248295
1772643997979438800,2.83043896484375,-0.0007029977277852595,-0.00004515610635280609,0.0004995546769350767
1772643997989479000,2.84047900390625,-0.0011280383914709091,0.0001042471849359572,0.00022764597088098526
1772643997999519200,2.850519287109375,-0.00003218773053959012,-0.0006597614847123623,-0.000641979044303298
1772643998009560000,2.86056005859375,-0.0010178236989304423,-0.0004938464844599366,-0.0002449017483741045
1772643998019601200,2.87060107421875,0.0002699973410926759,-0.000664412509649992,0.0006391543429344893
1772643998029642000,2.88064208984375,-0.0008527914178557694,0.0011598528362810612,0.00035765813663601875
1772643998039682000,2.89068212890625,-0.000124641926959157,-0.00031515059527009726,0.00004098820500075817
1772643998049723100,2.90072314453125,-0.00010759767610579729,-0.0007657575188204646,0.00004498288035392761
1772643998059764200,2.91076416015625,0.0014234629925340414,0.00011820445070043206,-0.0003712850157171488
1772643998069805000,2.92080517578125,0.0011717942543327808,0.001144320354796946,-0.0007891349960118532
1772643998079845000,2.93084521484375,-0.000057943398132920265,-0.00009727559518069029,-0.001091117039322853
1772643998089886200,2.94088623046875,0.0010896127205342054,0.00007636257214471698,0.0005224923370406032
1772643998099927300,2.95092724609375,0.00098570401314646,-0.0004997906507924199,0.000007371651008725166
1772643998109968100,2.960968017578125,-0.00022683327551931143,0.0005966327735222876,-0.0002019528765231371
1772643998120009200,2.97100927734375,-0.00022384413750842214,-0.00008719484321773052,-0.0009973663836717606
1772643998130049300,2.98104931640625,-0.0005876320064999163,0.0005897806258872151,-0.0007539533544331789
1772643998140090000,2.991090087890625,0.00004127109423279762,-0.0005468403687700629,-0.0009254124015569687
1772643998150131200,3.001131103515625,0.00023488292936235666,0.00016768567729741335,0.00019977311603724957
1772643998160172300,3.01117236328125,0.0004815802094526589,-0.00037150143180042505,0.00003609410487115383
1772643998170212400,3.02121240234375,0.00003576703602448106,0.0003893637331202626,-0.0007375541608780622
1772643998180253200,3.031253173828125,-0.0010632124030962586,0.0007287911721505225,0.0006228798301890492
1772643998190294300,3.041294189453125,-0.00029382517095655203,0.00022918212926015258,-0.0002703443169593811
1772643998200335400,3.05133544921875,0.0016948385164141655,0.0014253195840865374,-0.0010540243238210678
1772643998210376200,3.061376220703125,0.0003933516563847661,0.0007155871135182679,-0.000867603113874793
1772643998220416300,3.071416259765625,0.00005994789535179734,-0.0003790147602558136,0.0006017227424308658
1772643998230457300,3.081457275390625,-0.000562965520657599,-0.0004346749046817422,-0.00030348566360771656
1772643998240498400,3.09149853515625,-0.001291708555072546,0.00018090539379045367,0.0002507127355784178
1772643998250539300,3.101539306640625,0.0006068589864298701,0.0010632106568664312,-0.00015914789400994778
1772643998260579000,3.1115791015625,-0.00018392445053905249,-0.00011265464127063751,-0.0007709003984928131
1772643998270620200,3.1216201171875,-0.00030003825668245554,-0.0005315699381753802,0.00006772903725504875
1772643998280661000,3.131660888671875,0.00010892841964960098,0.0008043288253247738,0.000041581690311431885
1772643998290702000,3.1417021484375,-0.0004482048680074513,0.00006476906128227711,0.0013862117193639278
1772643998300743200,3.1517431640625,-0.0006200387142598629,0.0002906388253904879,-0.00018140231259167194
1772643998310783200,3.161783203125,0.0004079414648003876,0.000668807711917907,-0.0003731499891728163
1772643998320824000,3.171823974609375,0.0010943363886326551,0.0002759186318144202,-0.0007743788883090019
1772643998330865200,3.181865234375,-0.0007581585086882114,0.0005443652626127005,-0.00012137182056903839
1772643998340906200,3.19190625,0.0014191974187269807,-0.00009031256195157766,0.0008919915417209268
1772643998350946300,3.2019462890625,0.00010918849147856236,0.00036482163704931736,-0.0009149631951004267
1772643998360987100,3.211987060546875,0.00020846404368057847,-0.0014784003142267466,0.00048313988372683525
1772643998371028200,3.2220283203125,-0.00022429961245507002,0.0016766467597335577,0.0010679700644686818
1772643998381069000,3.232069091796875,-0.0017545782029628754,-0.000524733099155128,0.00024460977874696255
1772643998391109000,3.242109130859375,-0.0005268609966151416,-0.0005774636520072818,-0.0002262371126562357
1772643998401150200,3.252150146484375,0.0002400177763774991,0.0004827791708521545,-0.0001302387099713087
1772643998411191300,3.26219140625,0.0006637267069891095,0.0009317881194874644,0.0006761666154488921
1772643998421232000,3.272232177734375,-0.0007075669709593058,0.00034359435085207224,-0.001102482434362173
1772643998431273200,3.282273193359375,0.0023369586560875177,0.0006943326443433762,-0.0009070064406841993
1772643998441313300,3.292313232421875,-0.00047780637396499515,0.0005399803631007671,0.0005017766961827874
1772643998451354400,3.302354248046875,-0.0006535749998874962,0.00023664633044973016,0.0002799355424940586
1772643998461395200,3.312395263671875,0.0002001207321882248,-0.0003653098829090595,0.00012156739830970764
1772643998471436300,3.322436279296875,0.00008187635103240609,0.00035054777981713414,0.0010760443983599544
1772643998481476400,3.332476318359375,0.0007022192003205419,-0.0005865910788998008,0.0007548760622739792
1772643998491517200,3.34251708984375,-0.0006005991599522531,0.0008488527382723987,-0.00010186294093728065
1772643998501558300,3.352558349609375,0.0006026476621627808,-0.0013135422486811876,0.00031367293559014797
1772643998511599400,3.362599365234375,-0.001002972130663693,-0.0009153997525572777,0.0004811856197193265
1772643998521640200,3.37264013671875,0.0005048041930422187,-0.00011660216841846704,0.0014485057909041643
1772643998531680000,3.382679931640625,-0.0007151899044401944,0.00004664959851652384,0.000053541967645287514
1772643998541721000,3.39272119140625,0.00005553249502554536,0.0008559313137084246,-0.000011292519047856331
1772643998551762200,3.40276220703125,-0.0016004210337996483,0.0008791008149273694,0.0004097532946616411
1772643998561803000,3.412802978515625,0.0006210147403180599,-0.00017250666860491037,0.0006041600136086345
1772643998571843000,3.422843017578125,0.0012215576134622097,0.0006003427552059293,-0.0006443299353122711
1772643998581884200,3.43288427734375,-0.0008465897990390658,0.0002066480228677392,0.00009625381790101528
1772643998591925200,3.44292529296875,0.0012562422780320048,0.00009266473352909088,0.00025098351761698723
1772643998601966000,3.452966064453125,0.0007589743472635746,-0.001355414860881865,0.00015119928866624832
1772643998612007200,3.463007080078125,-0.0002626142813824117,0.0006512770196422935,-0.0007846355438232422
1772643998622047200,3.473047119140625,0.00036267086397856474,0.000552468525711447,-0.0013483602087944746
1772643998632088000,3.483088134765625,-0.0008474696078337729,-0.0010667333845049143,-0.0003928178921341896
1772643998642129200,3.493129150390625,-0.0009877611882984638,-0.0007442216156050563,0.00040661823004484177
1772643998652170200,3.503170166015625,-0.0005994723760522902,-0.0011431631864979863,0.0011805328540503979
1772643998662210300,3.513210205078125,0.0014615572290495038,-0.0009852375369518995,0.0017083522398024797
1772643998672251100,3.523251220703125,-0.0007083863602019846,-0.0011751209385693073,0.0004771728999912739
1772643998682292200,3.533292236328125,0.00037722598062828183,0.0007081766379997134,0.0006111875409260392
1772643998692333300,3.543333251953125,-0.0010893767466768622,0.00015716860070824623,-0.00019788090139627457
1772643998702374100,3.5533740234375,0.00004500756040215492,0.0008983766892924905,-0.0003127360250800848
1772643998712414200,3.563414306640625,0.000007190683390945196,-0.0008675653953105211,-0.0004171319305896759
1772643998722455300,3.573455322265625,0.0005816547200083733,0.0015389058971777558,0.0010178382508456707
1772643998732496400,3.583496337890625,-0.000847397546749562,-0.0012547500664368272,0.0010146425338461995
1772643998742537200,3.593537109375,-0.00020267075160518289,0.0015099430456757545,-0.0018371776677668095
1772643998752577300,3.603577392578125,-0.0002428845618851483,0.0010039423359557986,-0.0003474054392427206
1772643998762618400,3.613618408203125,-0.0012014092644676566,-0.0004370558890514076,-0.00035447394475340843
1772643998772659200,3.6236591796875,0.00031339668203145266,-0.00014144490705803037,0.0017638043500483036
1772643998782700300,3.6337001953125,-0.0008006120915524662,-0.000032526906579732895,0.001024361583404243
1772643998792740000,3.643739990234375,-0.0006541383336298168,-0.0014179033460095525,0.0011681723408401012
1772643998802781200,3.65378125,0.0006540162139572203,-0.0015860669082030654,0.0005883153062313795
1772643998812822000,3.663822021484375,0.0010931715369224548,-0.00006407033652067184,0.0004104161635041237
1772643998822863000,3.673863037109375,-0.0003989294054917991,0.0011764258379116654,0.0003845642786473036
1772643998832904200,3.683904296875,-0.0012324987910687923,0.0003473837859928608,0.0001073293387889862
1772643998842944300,3.6939443359375,-0.0009561105980537832,0.0008918114472180605,-0.0010846259538084269
1772643998852985000,3.703985107421875,0.0018612474668771029,-0.0002914310316555202,0.00096467649564147
1772643998863026200,3.714026123046875,-0.0003142404602840543,0.0011305164080113173,0.00023934105411171913
1772643998873067300,3.7240673828125,-0.0002396720228716731,-0.0006141203339211643,0.0005533276125788689
1772643998883107000,3.734107177734375,0.0011227985378354788,0.00002069392940029502,-0.0009150966070592403
1772643998893148200,3.744148193359375,-0.0009685818222351372,-0.0013905151281505823,0.00005376152694225311
1772643998903189200,3.754189208984375,-0.000262624176684767,-0.00016760843573138118,0.00013591046445071697
1772643998913230000,3.76422998046875,0.00030542805325239897,-0.0003236696938984096,-0.0007756897248327732
1772643998923271200,3.774271240234375,-0.0015393169596791267,0.0007461993955075741,0.0009858233388513327
1772643998933311200,3.784311279296875,-0.0003555418807081878,-0.0013790030498057604,0.0004880784545093775
1772643998943352300,3.794352294921875,-0.00017691636458039284,0.00029932346660643816,0.00016364012844860554
1772643998953393200,3.80439306640625,0.00044466546387411654,-0.0004500900977291167,0.0007956082699820399
1772643998963434200,3.814434326171875,-0.00037906935904175043,-0.00018299906514585018,0.0012561401817947626
1772643998973474300,3.824474365234375,0.0007599645759910345,-0.0007925966056063771,0.0002846189308911562
1772643998983515100,3.83451513671875,0.00018804240971803665,0.0007920691277831793,0.0020341738127171993
1772643998993556200,3.84455615234375,0.001233333139680326,0.0006029846845194697,0.00019579380750656128
1772643999003597300,3.854597412109375,-0.00021266884868964553,0.0005443932022899389,-0.00028384337201714516
1772643999013638100,3.86463818359375,0.0001194273354485631,-0.0006556271691806614,-0.00006040418520569801
1772643999023678200,3.87467822265625,-0.0013087030965834856,0.00002127140760421753,-0.0003780240658670664
1772643999033719300,3.88471923828125,-0.00030708819394931197,0.00020103476708754897,-0.0002866776194423437
1772643999043760400,3.894760498046875,-0.0001537928474135697,0.00020994542865082622,-0.0008559552952647209
1772643999053801200,3.90480126953125,0.0005588690983131528,-0.0013424111530184746,0.0006647097179666162
1772643999063841300,3.91484130859375,0.00006262154784053564,0.0007145416457206011,0.000808594049885869
1772643999073882400,3.92488232421875,-0.0021475357934832573,0.0018722177483141422,0.0016360380686819553
1772643999083923500,3.93492333984375,0.000674470909871161,-0.00020998669788241386,0.0006005400791764259
1772643999093964300,3.94496435546875,-0.0008890709141269326,0.0005910921609029174,0.0005502062849700451
1772643999104005400,3.95500537109375,-0.000769860518630594,-0.0001368808443658054,-0.001207726076245308
1772643999114045400,3.96504541015625,-0.00006785121513530612,0.0016173433978110552,0.001326271565631032
1772643999124086300,3.975086181640625,-0.0005262721097096801,0.0004173195338808,0.00003087637014687061
1772643999134127400,3.98512744140625,-0.00008338841143995523,0.0003022709861397743,-0.001006957609206438
1772643999144168400,3.99516845703125,0.0006652532611042261,-0.0009533417178317904,-0.0007640053518116474
1772643999154208300,4.005208251953125,-0.0007837726152502,0.0003990114782936871,0.0006203057710081339
1772643999164249000,4.0152490234375,0.0012869014171883464,0.000122438941616565,0.0008511326741427183
1772643999174290200,4.025290283203125,-0.0000718434457667172,-0.00015772564802318811,0.0010242381831631064
1772643999184331300,4.035331298828125,-0.0015538579318672419,0.0013197273947298527,0.001282727811485529
1772643999194372400,4.045372314453125,0.000492781400680542,0.00025685987202450633,-0.0007583186961710453
1772643999204412200,4.055412109375,0.0006095697171986103,0.00031379866413772106,-0.0007320968434214592
1772643999214453200,4.065453369140625,0.000260429282207042,0.00046479987213388085,-0.00016138143837451935
1772643999224494300,4.075494384765625,-0.00018269562860950828,-0.0015614794101566076,0.0005677712615579367
1772643999234535200,4.08553515625,0.0007994782063178718,0.000005258247256278992,0.001035688677802682
1772643999244575200,4.0955751953125,-0.0005534646334126592,0.0006613307632505894,0.0010380452731624246
1772643999254616300,4.1056162109375,-0.000996881048195064,-0.0004811653634533286,0.0008289871038869023
1772643999264657200,4.1156572265625,0.0008796587935648859,-0.0005014188354834914,0.0006020129658281803
1772643999274698200,4.1256982421875,-0.0000383328297175467,0.00008793873712420464,-0.0007378233131021261
1772643999284738300,4.13573828125,-0.0011697991285473108,0.0008215409470722079,0.001665506511926651
1772643999294779400,4.145779296875,0.00015299301594495773,0.0010399201419204473,-0.0003987096715718508
1772643999304820200,4.1558203125,-0.0006011018413119018,-0.0008484155405312777,0.0005018934607505798
1772643999314861300,4.165861328125,0.0010066484101116657,0.0005436187493614852,0.00031067850068211555
1772643999324902400,4.17590234375,0.0008893123012967408,0.0015607738168910146,0.00044044083915650845
1772643999334942500,4.1859423828125,0.0012935801642015576,0.001032935339026153,0.00042978813871741295
1772643999344983300,4.1959833984375,0.00055693369358778,0.0008303745999000967,-0.001559251919388771
1772643999355024400,4.2060244140625,-0.00003828282933682203,-0.0001560603268444538,0.0008754100417718291
1772643999365065200,4.216065185546875,0.0006957135628908873,-0.0007393017876893282,0.00012100744061172009
1772643999375105300,4.226105224609375,-0.0008454577764496207,0.00004792865365743637,-0.0003005710896104574
1772643999385146400,4.236146484375,0.00007312407251447439,-0.00008691544644534588,0.0008972041541710496
1772643999395187500,4.2461875,0.00035888125421479344,-0.0007987783756107092,-0.00004315795376896858
1772643999405228300,4.256228271484375,-0.0009407248580828309,0.0003264427650719881,0.0003100363537669182
1772643999415269400,4.266269287109375,-0.0012930610682815313,0.00002870138268917799,0.0004442597273737192
1772643999425309200,4.27630908203125,-0.0008023099508136511,0.0005061648553237319,0.0002538277767598629
1772643999435350300,4.286350341796875,0.00041555362986400723,-0.0013101110234856606,-0.00046362774446606636
1772643999445391400,4.296391357421875,-0.0008502118289470673,-0.001008646097034216,-0.0005106395110487938
1772643999455432400,4.306432373046875,-0.00015059940051287413,0.0011194859398528934,-0.00030797277577221394
1772643999465472300,4.31647216796875,-0.0003672612365335226,0.0007267997716553509,-0.0004502981901168823
1772643999475513300,4.326513427734375,0.00005831196904182434,0.0006847218610346317,-0.0011104957666248083
1772643999485554200,4.33655419921875,0.0003506020875647664,-0.00003231561277061701,-0.0005478840321302414
1772643999495595300,4.34659521484375,0.0004997390788048506,-0.00017905584536492825,0.0016356416745111346
1772643999505636000,4.356635986328125,0.00048004445852711797,0.0010654603829607368,0.00007525668479502201
1772643999515676200,4.36667626953125,0.000040622835513204336,0.0006060650339350104,-0.000024878187105059624
1772643999525717200,4.37671728515625,0.00021228310652077198,0.0010720532154664397,0.000495685962960124
1772643999535758300,4.38675830078125,-0.00027347751893103123,-0.0010020165937021375,0.00010579917579889297
1772643999545799200,4.396799072265625,-0.0004900371422991157,-0.00040323042776435614,0.0002317370381206274
1772643999555839200,4.406839111328125,0.0004812176921404898,0.0006101023172959685,0.0005672953557223082
1772643999565880300,4.41688037109375,0.0013717192923650146,-0.00019731768406927586,0.0013532864395529032
1772643999575921400,4.42692138671875,-0.0006456251721829176,0.0002237281296402216,-0.00015139952301979065
1772643999585962200,4.436962158203125,0.00018564285710453987,0.0002580059226602316,0.0014183387393131852
1772643999596003300,4.44700341796875,-0.00023007660638540983,0.0005184630863368511,-0.0012594698928296566
1772643999606043400,4.45704345703125,0.0007259603589773178,0.0007460202905349433,0.0008702297927811742
1772643999616084200,4.467084228515625,-0.000015463680028915405,-0.0005682497285306454,-0.0012885285541415215
1772643999626125300,4.477125244140625,-0.0001875520683825016,0.000565570720937103,0.00033813435584306717
1772643999636166400,4.48716650390625,0.001218330697156489,-0.0010581586975604296,-0.0009151492267847061
1772643999646206500,4.49720654296875,-0.0012172914575785398,-0.0005245020147413015,0.0013749557547271252
1772643999656247300,4.507247314453125,-0.0011334018781781197,0.0012259937357157469,0.0005741431377828121
1772643999666288400,4.517288330078125,-0.0013670462649315596,0.00021051819203421474,0.0005519064143300056
1772643999676329500,4.52732958984375,-0.0009617130272090435,-0.0007610028842464089,-0.0002670157700777054
1772643999686370300,4.537370361328125,0.00004345434717833996,-0.00023708096705377102,0.001047738129273057
1772643999696410000,4.54741015625,0.0007641057018190622,0.00009554781718179584,0.0012072614626958966
1772643999706451500,4.557451416015625,0.0008508244645781815,0.0004666666791308671,-0.00012710830196738243
1772643999716492300,4.5674921875,0.0007224600994959474,0.00046799826668575406,-0.00012657581828534603
1772643999726533400,4.577533447265625,0.0006319176754914224,-0.0004644417786039412,-0.001344097312539816
1772643999736573200,4.5875732421875,0.0006409724010154605,-0.0011685816571116447,0.0006000101566314697
1772643999746614300,4.5976142578125,0.0000071820104494690895,0.0003493607509881258,-0.0001491245348006487
1772643999756655000,4.607655029296875,0.002541446126997471,-0.0003265495179221034,0.0006210615392774343
1772643999766696200,4.6176962890625,0.0004205922014079988,-0.0012857153778895736,0.0008000618545338511
1772643999776736300,4.627736328125,-0.00046916992869228125,0.0011089990148320794,0.0005241583567112684
1772643999786777300,4.63777734375,0.00077267229789868,0.00026342005003243685,0.001409019809216261
1772643999796818200,4.647818115234375,-0.00031123426742851734,0.000012550328392535448,0.0008486907463520765
1772643999806859300,4.657859375,-0.0005330924177542329,-0.000068235385697335,0.00018090358935296535
1772643999816900400,4.667900390625,0.0006919616716913879,-0.00104428397025913,-0.00016770418733358383
1772643999826940400,4.6779404296875,-0.00028026464860886335,-0.00044690637150779366,-0.00044141849502921104
1772643999836981200,4.687981201171875,0.0010188253363594413,0.0006220865179784596,0.00042597297579050064
1772643999847022300,4.698022216796875,0.0007030460983514786,0.0003585568629205227,0.00026430096477270126
1772643999857063200,4.708063232421875,-0.00025675713550299406,-0.0002419860102236271,0.0010680429404601455
1772643999867103200,4.718103271484375,0.0014150092611089349,-0.000542671768926084,-0.0002290888223797083
1772643999877144300,4.728144287109375,-0.0004068592097610235,-0.0004545211559161544,0.0005259173922240734
1772643999887185400,4.738185302734375,0.00202103890478611,-0.0018778678495436907,-0.0002875956706702709
1772643999897226200,4.748226318359375,0.0016785564366728067,-0.0004533429746516049,0.000651701120659709
1772643999907267300,4.758267333984375,-0.0005093157524242997,-0.00006036617560312152,-0.0009039093274623156
1772643999917307400,4.768307373046875,0.0001482187071815133,0.0003257921780459583,0.00019757426343858242
1772643999927348500,4.778348388671875,-0.0009627779945731163,-0.0004794123815372586,0.0005734805017709732
1772643999937389300,4.788389404296875,0.0006724029080942273,-0.0019223130075260997,0.000051234615966677666
1772643999947430400,4.798430419921875,0.0016826334176585078,-0.0001647381577640772,-0.0010758608113974333
1772643999957470200,4.80847021484375,-0.00017625303007662296,-0.0003375773085281253,-0.00022711139172315598
1772643999967511300,4.81851123046875,-0.0017478778026998043,-0.0013068566331639886,-0.00022972887381911278
1772643999977552400,4.828552490234375,0.00012006331235170364,-0.000846928684040904,-0.0001479696948081255
1772643999987593500,4.838593505859375,0.0015849515330046415,-0.0007663480937480927,0.0002645214553922415
1772643999997634300,4.84863427734375,-0.00002865772694349289,0.00043926486978307366,0.0011215267004445195
1772644000007674600,4.858674560546875,0.0008191366796381772,0.00045600419980473816,0.0015087625943124294
1772644000017715700,4.8687158203125,0.0007248607580550015,-0.0003927452489733696,0.00002165348269045353
1772644000027756800,4.8787568359375,-0.00007488008122891188,0.0002814526669681072,0.0004973141476511955
1772644000037797600,4.888797607421875,0.0007554935291409492,0.0006281962851062417,0.0012033182429149747
1772644000047837400,4.89883740234375,0.0004926395486108959,-0.0006921989843249321,0.0002823970280587673
1772644000057878500,4.90887841796875,-0.0000860653817653656,-0.0002048405585810542,0.0006845344323664904
1772644000067919600,4.918919677734375,0.0004040934727527201,-0.0016724324086681008,0.0003017173148691654
1772644000077960400,4.92896044921875,-0.00035836955066770315,0.0001643496798351407,-0.00015022116713225842
1772644000088001500,4.93900146484375,-0.00005964445881545544,-0.0012824474833905697,-0.00018326588906347752
1772644000098041600,4.94904150390625,-0.0007909485138952732,-0.0015607476234436035,0.00013285130262374878
1772644000108082400,4.95908251953125,-0.0002893331693485379,-0.0006188780535012484,0.0000739959068596363
1772644000118123500,4.96912353515625,0.0009402483119629323,-0.0006313949124887586,-0.0005856691859662533
1772644000128164600,4.97916455078125,-0.0002740474883466959,0.00042041559936478734,0.0007000772748142481
1772644000138204700,4.98920458984375,-0.00143412034958601,0.0005224146880209446,0.00006198394112288952
1772644000148245500,4.99924560546875,-0.0009339842945337296,0.00011852884199470282,-0.00045343046076595783
1772644000158286600,5.00928662109375,0.00006150524131953716,0.0006990979891270399,0.0005231508985161781
1772644000168327700,5.01932763671875,0.0004872401477769017,-0.0009493232937529683,0.00022849789820611477
1772644000178368500,5.029368408203125,0.0005466286092996597,-0.0007740873843431473,-0.0009089382365345955
1772644000188408600,5.03940869140625,-0.000248091877438128,0.0008790589636191726,0.0005896883085370064
1772644000198449700,5.04944970703125,-0.00039350055158138275,0.0009408443002030253,-0.0003269717562943697
1772644000208490500,5.059490478515625,-0.0006323291454464197,0.0008064468274824321,-0.0004088287241756916
1772644000218531600,5.069531494140625,-0.00016547704581171274,0.000449050625320524,0.0011922636767849326
1772644000228571600,5.079571533203125,-0.00011420506052672863,-0.000792457431089133,0.00032553193159401417
1772644000238612700,5.08961279296875,0.0001118973596021533,0.0005100946873426437,-0.0016209722962230444
1772644000248653600,5.099653564453125,-0.000504703726619482,-0.0014127723407000303,0.0008537301328033209
1772644000258694700,5.109694580078125,-0.0012495899572968483,0.00019817380234599113,-0.000003807712346315384
1772644000268734700,5.119734619140625,-0.0009438702836632729,-0.0008239009184762836,0.00015291618183255196
1772644000278775800,5.12977587890625,0.0008415128104388714,-0.00009872217196971178,-0.0009376483503729105
1772644000288816600,5.139816650390625,-0.00022586854174733162,-6.424961611628532e-7,0.0005701943300664425
1772644000298857700,5.149857666015625,0.0005821344675496221,-0.0008906709845177829,0.0007765892660245299
1772644000308898600,5.159898681640625,0.0006933327531442046,0.0006909205112606287,-0.00012161349877715111
1772644000318938400,5.1699384765625,0.00004858151078224182,-0.0014039218658581376,0.0014472545590251684
1772644000328979500,5.1799794921875,0.0010264304000884295,0.00017100083641707897,0.00023671495728194714
1772644000339020500,5.1900205078125,0.00004798499867320061,-0.0004452546127140522,0.0010697516845539212
1772644000349061400,5.200061279296875,-0.00034273252822458744,0.00010461092460900545,0.0002254890277981758
1772644000359101400,5.210101318359375,0.0011382512748241425,-0.0009390819468535483,-0.0012746695429086685
1772644000369142500,5.220142578125,-0.00037718284875154495,-0.00000689126318320632,-0.0004742196761071682
1772644000379183600,5.23018359375,-0.0006235252367332578,0.0006000431603752077,0.0001846463419497013
1772644000389224400,5.240224365234375,0.00004942703526467085,-0.000901106686796993,0.0003888003993779421
1772644000399265500,5.250265625,0.0002808557474054396,-0.00018365116557106376,0.000635675503872335
1772644000409305600,5.2603056640625,-0.00033678498584777117,0.0006355063524097204,0.0007217226084321737
1772644000419346700,5.2703466796875,-0.0009684868855401874,0.0007380380411632359,0.00021518929861485958
1772644000429387500,5.280387451171875,-0.0010326666524633765,-0.001455322140827775,-0.0004797750152647495
1772644000439428600,5.2904287109375,0.00027920654974877834,-0.0008630352094769478,0.00006244448013603687
1772644000449468700,5.30046875,0.0007415218278765678,-0.0005018464289605618,-0.0004385553766041994
1772644000459509500,5.310509521484375,0.0007324670441448689,-0.00026988505851477385,-0.0012500204611569643
1772644000469550600,5.320550537109375,0.00007849070243537426,0.00003863143501803279,-0.0016376827843487263
1772644000479591700,5.330591796875,0.0012885704636573792,0.000585902133025229,-0.0005184924229979515
1772644000489632500,5.340632568359375,0.0010163953993469477,0.0005789778660982847,-0.00012461072765290737
1772644000499672600,5.350672607421875,0.00009055249392986298,0.0003489264636300504,0.00010940432548522949
1772644000509713700,5.360713623046875,-0.0002921437844634056,0.00024825899163261056,0.0005669353995472193
1772644000519754800,5.370754638671875,0.00023892096942290664,-0.0005828699795529246,-0.0003906900528818369
1772644000529795600,5.380795654296875,-0.00012673099990934134,-0.00004650931805372238,0.00047803320921957493
1772644000539835600,5.390835693359375,0.001142101944424212,0.0005794327007606626,-0.0012574701104313135
1772644000549876700,5.400876708984375,-0.0009905574843287468,-0.0004799728048965335,0.000055734533816576004
1772644000559917600,5.41091748046875,0.0006679757498204708,-0.0002023323904722929,0.0006735745118930936
1772644000569958700,5.420958740234375,-0.0015999722527340055,-0.001011933432891965,0.0002852855250239372
1772644000579999700,5.430999755859375,0.00091636209981516,0.0008132477523759007,-0.000026363180950284004
1772644000590039600,5.44103955078125,-0.00008978019468486309,-0.00009489012882113457,-0.0003938793670386076
1772644000600080400,5.451080322265625,-0.0012504218611866236,0.0007801065221428871,0.00036367960274219513
1772644000610121500,5.46112158203125,0.0006185845122672617,-0.0008303069043904543,-0.00006588827818632126
1772644000620162600,5.47116259765625,0.00042920123087242246,0.0015300639206543565,0.0006488532526418567
1772644000630202600,5.48120263671875,0.0001855219597928226,0.00044429313857108355,0.0006978553719818592
1772644000640243500,5.491243408203125,0.0000021099112927913666,0.000016639824025332928,-0.0007749216165393591
1772644000650284500,5.501284423828125,0.00022315233945846558,0.0005101236165501177,0.001352944178506732
1772644000660325600,5.51132568359375,0.000621145823970437,0.0006972423871047795,-0.00045472197234630585
1772644000670365700,5.52136572265625,0.00130850775167346,0.000588585389778018,0.0001287765335291624
1772644000680406500,5.531406494140625,-0.0001372150145471096,0.0000894539407454431,0.0008894830243662
1772644000690447600,5.541447509765625,0.0001693148515187204,0.0010718940757215023,0.000547799514606595
1772644000700488400,5.551488525390625,-0.00026326451916247606,0.00011515524238348007,-0.00029831775464117527
1772644000710529500,5.561529541015625,0.0007980051450431347,-0.0003160105552524328,0.0009922501631081104
1772644000720569600,5.571569580078125,0.000453040876891464,0.0003397678374312818,-0.0009589830879122019
1772644000730610700,5.581610595703125,0.0010402678744867444,-0.0002429317682981491,-0.00004578498192131519
1772644000740651500,5.591651611328125,-0.0010304962052032351,0.000015232479199767113,0.0002961119171231985
1772644000750692600,5.601692626953125,0.000739973271265626,-0.00045614701230078936,0.00193715188652277
1772644000760732700,5.611732666015625,0.0007382507901638746,0.000014882301911711693,0.0003215859178453684
1772644000770773800,5.621773681640625,0.0001819164608605206,0.00025376782286912203,0.000035029835999011993
1772644000780814600,5.631814697265625,-0.00020599603885784745,-0.0009404720040038228,0.0000808213371783495
1772644000790855700,5.641855712890625,0.0004033352015540004,-0.0010067844996228814,0.0003772310446947813
1772644000800896800,5.651896728515625,-0.00029234663816168904,0.0015289729926735163,0.001520542660728097
1772644000810937600,5.6619375,-0.00010006636148318648,-0.0005352431908249855,0.0008065490983426571
1772644000820977700,5.671977783203125,0.001266598585061729,0.00014287763042375445,0.00009313784539699554
1772644000831018800,5.682018798828125,0.0004543344839476049,-0.00007070787250995636,0.000014042016118764877
1772644000841059600,5.6920595703125,-0.0012031802907586098,-0.0005116143729537725,0.00028403359465301037
1772644000851100700,5.7021005859375,0.0002687489031814039,-0.0012724795378744602,-0.000021164771169424057
1772644000861140500,5.712140380859375,-0.00008598389104008675,0.0013237092643976212,0.0011138946283608675
1772644000871181600,5.722181640625,0.00033133343094959855,-0.00023796840105205774,0.0011258788872510195
1772644000881222400,5.732222412109375,0.0007028836407698691,-0.00080918800085783,0.0006682609673589468
1772644000891263500,5.742263427734375,-0.0007599907694384456,0.00006352993659675121,0.0009968950180336833
1772644000901304600,5.7523046875,0.00044450757559388876,0.0007158310618251562,-0.0005639099981635809
1772644000911344600,5.7623447265625,0.000016803911421447992,-0.0012679575011134148,-0.00008560647256672382
1772644000921385500,5.772385498046875,0.0004957247874699533,-0.0002684815553948283,0.00021000555716454983
1772644000931426600,5.782426513671875,-0.0006723375990986824,-0.000615225057117641,-0.00007628439925611019
1772644000941467600,5.792467529296875,0.0014953529462218285,-0.00041140022221952677,-0.0004688422195613384
1772644000951507500,5.802507568359375,0.0004420726909302175,-0.0013981014490127563,0.00014048907905817032
1772644000961548500,5.812548583984375,-0.0015140310861170292,-0.001190405455417931,-0.000745466910302639
1772644000971589600,5.822589599609375,-0.0005052256747148931,0.0006514366250485182,0.00032299337908625603
1772644000981630500,5.83263037109375,0.00042127142660319805,-0.00129396328702569,0.0009563359199091792
1772644000991671600,5.842671630859375,-0.0002551715006120503,-0.0002715756418183446,0.0005976080428808928
1772644001001711000,5.852711181640625,-0.0011386441765353084,0.00036595232086256146,0.0007876391755416989
1772644001011752200,5.862752197265625,0.00029094069031998515,-0.00035869376733899117,0.0005423619877547026
1772644001021793000,5.87279296875,0.0013662801356986165,-0.00013862119521945715,-0.00017486675642430782
1772644001031834000,5.882834228515625,0.00020833773305639625,0.00030372984474524856,0.0007854691939428449
1772644001041874200,5.892874267578125,-0.0006070141680538654,0.0004138709045946598,-0.0008869569282978773
1772644001051915300,5.902915283203125,0.0007077885093167424,0.0006721975514665246,0.0010451663983985782
1772644001061956000,5.9129560546875,0.0005664276541210711,0.00030986027559265494,0.001253994065336883
1772644001071997200,5.9229970703125,0.00020583561854436994,-0.0011396983172744513,0.0003123003989458084
1772644001082037200,5.933037353515625,0.0006994501454755664,-0.0002211789833381772,0.0002052753698080778
1772644001092078300,5.943078369140625,0.0011785528622567654,-0.0010022842325270176,0.0011544261360540986
1772644001102119200,5.953119140625,-0.0019208693411201239,-0.0008459626697003841,0.0005792898591607809
1772644001112160300,5.96316015625,0.000053331837989389896,-0.000005469075404107571,0.0005814202595502138
1772644001122201000,5.973201171875,-0.001215816242620349,-0.00004176120273768902,0.001303639728575945
1772644001132241200,5.9832412109375,-0.0006962335319258273,-0.0004540185909718275,0.0006988358218222857
1772644001142282200,5.9932822265625,0.00005915784277021885,-0.0012419881531968713,0.00009280839003622532
1772644001152323300,6.0033232421875,0.0006719512166455388,0.0006017182022333145,-0.00018096459098160267
1772644001162364200,6.0133642578125,-0.0007895103190094233,-0.0010516918264329433,-0.0008129705674946308
1772644001172404200,6.023404296875,-0.00008084322325885296,-0.00017790880519896746,-0.0006909978110343218
1772644001182445300,6.0334453125,-0.0008695819415152073,-0.00032702437601983547,0.00045706285163760185
1772644001192486400,6.043486328125,0.0019128888379782438,-0.0015198542969301343,-0.00006518303416669369
1772644001202527200,6.05352734375,0.00035003048833459616,-0.0005233099218457937,0.001112067373469472
1772644001212568300,6.063568359375,-0.0003935240674763918,0.000502007023897022,0.0011679937597364187
1772644001222608100,6.073608154296875,-0.0016733217053115368,-0.000304751330986619,-0.0010686817113310099
1772644001232649000,6.08364892578125,0.0016947780968621373,0.0005554497474804521,0.0011803577654063702
1772644001242690000,6.09368994140625,-0.000859591644257307,-0.00031652592588216066,0.0005421661771833897
1772644001252731100,6.103731201171875,-0.00001563597470521927,0.0005268972017802298,0.0009469665819779038
1772644001262771200,6.113771240234375,-0.0002494750078767538,0.0003532972768880427,-0.000451711006462574
1772644001272812000,6.12381201171875,0.0003670467995107174,0.0006718113436363637,-0.0005457205697894096
1772644001282853000,6.13385302734375,-0.00039312709122896194,0.0005060888361185789,-0.0009645351674407721
1772644001292894200,6.143894287109375,0.00036933599039912224,0.00014416524209082127,0.0011920926626771688
1772644001302935000,6.15393505859375,-0.0017658178694546223,0.0001511084265075624,-0.0015137051232159138
1772644001312975000,6.16397509765625,0.0004219688707962632,0.000007297727279365063,0.000382998026907444
1772644001323016200,6.17401611328125,-0.0019193263724446297,-0.0003799720434471965,0.0010248153703287244
1772644001333057300,6.184057373046875,0.0015374566428363323,0.00012469699140638113,0.00011055218055844307
1772644001343098000,6.19409814453125,-0.0007285557221621275,-0.0008379393257200718,0.00015680165961384773
1772644001353138200,6.20413818359375,0.00005521252751350403,0.000720276206266135,-0.0002762284129858017
1772644001363179300,6.21417919921875,-0.00031981547363102436,-0.0009228974813595414,0.0013764480827376246
1772644001373220000,6.22422021484375,-0.001217833487316966,0.000916814140509814,0.0015908326022326946
1772644001383261200,6.23426123046875,0.00009304849663749337,0.0007108744466677308,0.0005144348833709955
1772644001393302300,6.24430224609375,-0.00030749093275517225,-0.00041271315421909094,-0.0004791906103491783
1772644001403342300,6.25434228515625,-0.001478821155615151,-0.000710201682522893,0.0015978602459654212
1772644001413383200,6.264383056640625,-0.0006111633265390992,0.0010853015119209886,0.0013967915438115597
1772644001423424300,6.27442431640625,0.0008104744483716786,0.00022496550809592009,0.0003520706668496132
1772644001433465300,6.28446533203125,0.000231503217946738,0.00024440657580271363,-0.0005768400151282549
1772644001443505400,6.29450537109375,-0.00042736902832984924,-0.0008549317717552185,0.00014653336256742477
1772644001453546200,6.304546142578125,0.0007982177194207907,-0.00017369515262544155,0.0012514789123088121
1772644001463587300,6.31458740234375,0.00026594987139105797,-0.0018308849539607763,-0.0006504345219582319
1772644001473628200,6.324628173828125,-0.0004648215835914016,0.0006559749017469585,0.00042814575135707855
1772644001483668000,6.33466796875,-0.0016554855974391103,-0.00006291142199188471,0.0010762957390397787
1772644001493709000,6.344708984375,0.0007741162553429604,0.00023935741046443582,0.0006134381983429193
1772644001503750100,6.354750244140625,0.0020184312015771866,0.00024062790907919407,0.0005357989575713873
1772644001513791000,6.364791015625,-0.00018586718942970037,0.0008092127973213792,0.0011632397072389722
1772644001523832000,6.37483203125,0.00039135204860940576,0.00023803458316251636,-0.0003608579281717539
1772644001533872000,6.3848720703125,-0.0006193176377564669,-0.00043175043538212776,0.00042131240479648113
1772644001543913200,6.394913330078125,0.0005052415654063225,0.0021624865476042032,-0.0007973250467330217
1772644001553954000,6.4049541015625,-0.0003933089319616556,0.000043409294448792934,-0.00023113703355193138
1772644001563995100,6.4149951171875,-0.000016445526853203773,0.0012256850022822618,0.000703827477991581
1772644001574035200,6.42503515625,-0.000030294060707092285,0.0012682955712080002,0.0009427129989489913
1772644001584076300,6.435076171875,-0.0007841014303267002,0.0016771728405728936,0.001353121129795909
1772644001594117000,6.4451171875,0.00007396901492029428,0.0011333553120493889,0.00000502890907227993
1772644001604158200,6.455158203125,0.0007806296343915164,0.0013111461885273457,0.0007509344723075628
1772644001614199000,6.465198974609375,0.0009470771765336394,0.000788900360930711,0.0005589206703007221
1772644001624239000,6.475239013671875,0.0007611867622472346,0.00028817448765039444,0.0017655887641012669
1772644001634280200,6.4852802734375,-0.0005032820627093315,-0.0011821568477898836,0.000528284115716815
1772644001644321300,6.4953212890625,0.0004689107299782336,-0.0011085668811574578,0.0002981510479003191
1772644001654362000,6.505362060546875,-0.0003774418728426099,0.000649119378067553,0.0005085407756268978
1772644001664402200,6.515402099609375,-0.0003380001289770007,0.0004824161878786981,0.00015681330114603043
1772644001674443300,6.525443359375,0.00018158263992518187,-0.0011628846405074,-0.000052244868129491806
1772644001684484400,6.535484375,0.00002264662180095911,0.00023266958305612206,-0.0020661295857280493
1772644001694525200,6.545525146484375,-0.0007605890277773142,0.000887008267454803,-0.0004804837517440319
1772644001704566300,6.555566162109375,-0.00054410460870713,0.0002173677203245461,0.0013593934709206223
1772644001714606300,6.5656064453125,0.00046656501945108175,0.0003494605189189315,0.0005109102930873632
1772644001724647200,6.575647216796875,0.0017721658805385232,-0.0009870817884802818,0.00029556453227996826
1772644001734688300,6.585688232421875,-0.0011237554717808962,-0.000002511078491806984,0.0007648133905604482
1772644001744729300,6.595729248046875,0.00028668169397860765,0.0004798655863851309,-0.000708283856511116
1772644001754769200,6.60576904296875,0.0013157271314412355,-0.0001832614652812481,0.0013668511528521776
1772644001764810000,6.61581005859375,0.0003532035043463111,0.0008843587711453438,0.0006803987780585885
1772644001774851000,6.62585107421875,0.0006493469700217247,0.000221497961319983,0.00007639382965862751
1772644001784892200,6.63589208984375,0.00006829958874732256,0.0015549198724329472,0.00007375096902251244
1772644001794933000,6.64593310546875,-0.0006174644222483039,-0.0005215468117967248,-0.0001776514109224081
1772644001804973000,6.65597314453125,0.0007946852128952742,0.0008907201699912548,-0.00028458540327847004
1772644001815014100,6.66601416015625,0.0011784466914832592,-0.0007399333408102393,0.0009452624944970012
1772644001825055200,6.67605517578125,0.001521719736047089,-0.0008178901625797153,0.000778820482082665
1772644001835096000,6.686095947265625,-0.0002476844238117337,-0.00039577914867550135,0.0007868099492043257
1772644001845136100,6.69613623046875,0.0005038962117396295,0.00030561635503545403,0.001628390746191144
1772644001855177200,6.70617724609375,0.0002564885653555393,0.0006310546305030584,-0.0000699071679264307
1772644001865218000,6.716218017578125,0.0000915860291570425,0.0005722573259845376,-0.000052644405514001846
1772644001875259100,6.726259033203125,-0.001248782966285944,0.000668663764372468,0.0006959701422601938
1772644001885300200,6.73630029296875,0.0013532639713957906,0.000348227156791836,-0.001200257334858179
1772644001895340300,6.74634033203125,-0.0008406480774283409,0.0017543762223795056,0.00077234604395926
1772644001905381000,6.756381103515625,0.00009585812222212553,0.00013179687084630132,0.0014729235554113984
1772644001915422200,6.766422119140625,-0.00010574318002909422,-0.0009824697626754642,-0.0007737190462648869
1772644001925463300,6.77646337890625,0.00006080663297325373,0.0003012751112692058,-0.000031215138733386993
1772644001935503400,6.78650341796875,-0.0007301522418856621,-0.00026970665203407407,-0.0005177748389542103
1772644001945544200,6.796544189453125,0.0009376442758366466,-0.00019277213141322136,0.00022611604072153568
1772644001955585300,6.806585205078125,0.0010055548045784235,0.0009124396601691842,0.00001359567977488041
1772644001965626000,6.816626220703125,0.0005771211581304669,0.0004576132050715387,0.0013748379424214363
1772644001975667200,6.826667236328125,-0.000107044936157763,-0.00013946747640147805,-0.0004933695308864117
1772644001985707300,6.836707275390625,0.00003185984678566456,0.0005112867802381516,-0.00016917800530791283
1772644001995748400,6.846748291015625,0.0005727478419430554,-0.0004562396206893027,-0.0005880931857973337
1772644002005789200,6.8567890625,0.0006044802721589804,-0.000478937232401222,-0.00002925819717347622
1772644002015830300,6.866830322265625,0.0006265845149755478,-0.00002327043330296874,-0.00043805339373648167
1772644002025870300,6.876870361328125,-0.00039211823605000973,-0.0006540799513459206,-0.000612000934779644
1772644002035911400,6.886911376953125,0.0003011025837622583,0.00011717149754986167,0.0004362191539257765
1772644002045952300,6.8969521484375,0.00030161242466419935,-0.00036388199077919126,0.0004777392605319619
1772644002055993300,6.906993408203125,0.0012401103740558028,-0.000157753296662122,-0.0012993880081921816
1772644002066033200,6.917033203125,-0.0001910084392875433,-0.000564809306524694,-0.001073954626917839
1772644002076074200,6.92707421875,-0.001380642526783049,-0.00027798686642199755,0.0011409964645281434
1772644002086115000,6.937114990234375,-0.00021912017837166786,-0.0010652014752849936,-0.0008633346296846867
1772644002096156200,6.94715625,0.0016911652637645602,0.000691685825586319,0.0014901008689776063
1772644002106197000,6.957197021484375,-0.000050670700147747993,-0.00014171371003612876,-0.0004918563645333052
1772644002116237000,6.967237060546875,-0.000005397014319896698,0.0005858618533238769,-0.0005182216409593821
1772644002126278100,6.977278076171875,0.002102731494233012,-0.00028564129024744034,0.0010132609168067575
1772644002136319200,6.9873193359375,-0.00001501420047134161,0.00034472887637093663,0.0002915442455559969
1772644002146360000,6.997360107421875,-0.0005577233387157321,-0.0006302045076154172,0.00009035179391503334
1772644002156400000,7.007400146484375,0.0004558757646009326,-0.0007476498722098768,0.0005180553998798132
1772644002166441200,7.017441162109375,-0.0006246541161090136,0.0005465381545946002,0.0007245084270834923
1772644002176482300,7.027482421875,-0.0007207941962406039,-0.000811141449958086,-0.0014856487978249788
1772644002186523100,7.037523193359375,-0.0002921598497778177,0.00012459122808650136,0.00007678382098674774
1772644002196564200,7.047564208984375,-0.0013358526630327106,-0.0004937947960570455,0.0019148977007716894
1772644002206604300,7.057604248046875,-0.0004337097052484751,-0.0005501777050085366,-0.00024192314594984055
1772644002216645000,7.06764501953125,0.0009284971747547388,-0.0011680310126394033,0.001535736839286983
1772644002226686200,7.077686279296875,0.00014309497782960534,0.0007042400538921356,0.0007848874665796757
1772644002236727300,7.087727294921875,-0.001190882408991456,-0.0015666373074054718,-0.00009448826313018799
1772644002246767400,7.097767333984375,0.0014720531180500984,-0.00011761928908526897,0.00040805363096296787
1772644002256808200,7.10780810546875,-0.0003639301285147667,0.000340178026817739,0.00036757346242666245
1772644002266849300,7.117849365234375,-0.0005037194350734353,0.0002372663584537804,0.002033105120062828
1772644002276890400,7.127890380859375,0.000702426303178072,-0.0000338434474542737,-0.001781340455636382
1772644002286931200,7.13793115234375,-0.0004541429807431996,0.0004197851521894336,-0.0011790851131081581
1772644002296971300,7.14797119140625,0.0005144487367942929,-0.0010651935590431094,0.0011394629254937172
1772644002307012400,7.158012451171875,-0.0005203587934374809,-0.00038947362918406725,-0.0006446477491408587
1772644002317053400,7.168053466796875,0.0007797963917255402,0.00011732586426660419,-0.0004054959863424301
1772644002327094300,7.17809423828125,-0.000006701040547341108,0.000230480101890862,-0.00027901027351617813
1772644002337134000,7.188134033203125,-0.00032654666574671865,-0.0006188019178807735,-0.00016875541768968105
1772644002347175200,7.198175048828125,0.00013182155089452863,-0.00037310225889086723,-0.0002295586746186018
1772644002357216000,7.208216064453125,-0.0008889681193977594,0.0006948253139853477,0.0002332986332476139
1772644002367257000,7.218257080078125,-0.0004348145448602736,-0.0009561092592775822,-0.0004963469691574574
1772644002377298200,7.228298095703125,-0.0002803512034006417,0.0004215440130792558,0.0008597346022725105
1772644002387338200,7.238338134765625,0.0008476699003949761,0.00010482146171852946,-0.0006018525455147028
1772644002397379000,7.248379150390625,-0.00013743335148319602,-0.0007210248149931431,0.0004860488697886467
1772644002407420200,7.258420166015625,-0.000051842303946614265,-0.00037194055039435625,0.0011004343396052718
1772644002417461200,7.268461181640625,0.000436847738455981,0.0005282078636810184,0.0001861711498349905
1772644002427501300,7.278501220703125,0.0002228434314019978,0.000516470056027174,0.0005078969988971949
1772644002437542100,7.288542236328125,-0.0006077965372242033,-0.0009219032945111394,-0.0002638869918882847
1772644002447583200,7.298583251953125,0.0006732050678692758,-0.00025449367240071297,0.0007039036136120558
1772644002457624300,7.308624267578125,-0.00008739373879507184,0.00015110574895516038,-0.00023406161926686764
1772644002467665200,7.3186650390625,0.0006756315706297755,0.0005012439796701074,0.0000016991980373859406
1772644002477705200,7.328705322265625,-0.00009322306141257286,0.0014559872215613723,-0.0005618256982415915
1772644002487746300,7.338746337890625,0.0004054178425576538,-0.000726850819773972,0.0001316408161073923
1772644002497787100,7.348787109375,-0.0008752963040024042,0.0013328379718586802,0.0008863805560395122
1772644002507828200,7.358828125,0.00003640697104856372,0.00046580599155277014,0.0003850336652249098
1772644002517868300,7.368868408203125,0.0007120509399101138,0.0006415746174752712,-0.0007944803219288588
1772644002527909400,7.378909423828125,-0.0010567037388682365,-0.0011379464995115995,0.00021115969866514206
1772644002537950200,7.3889501953125,-0.00039996823761612177,0.00064557243604213,-0.0004365209024399519
1772644002547991300,7.3989912109375,-0.0007320287986658514,0.0017568626208230853,-0.00035211723297834396
1772644002558031400,7.40903125,0.0002187197096645832,-0.0000029542716220021248,-0.0006770228501409292
1772644002568072200,7.419072265625,0.0011832821182906628,0.0006568303797394037,0.0009439450222998857
1772644002578113300,7.42911328125,0.0006123004131950438,-0.0006792775820940733,0.00041291071102023125
1772644002588154400,7.439154296875,-0.0010367492213845253,0.0015408582985401154,-0.0014958067331463099
1772644002598195200,7.4491953125,0.0016008454840630293,0.0009893175447359681,0.0000565496739000082
1772644002608235000,7.459235107421875,-0.00047761877067387104,-0.000713767483830452,0.0006879019783809781
1772644002618276000,7.469276123046875,-0.0001047762343659997,-0.001305255456827581,-0.00007243058644235134
1772644002628317200,7.479317138671875,-0.00008014944614842534,0.0001317967544309795,-0.000852569006383419
1772644002638358000,7.48935791015625,-0.0012119929306209087,0.0001722768065519631,-0.0015700245276093483
1772644002648399000,7.499399169921875,0.0009733244078233838,0.0005740185151807964,0.0004745650803670287
1772644002658439200,7.509439208984375,0.0014367144322022796,-0.001354642678052187,0.00047376612201333046
1772644002668480300,7.519480224609375,0.00037099377368576825,-0.0011311025591567159,-0.0009569234680384398
1772644002678521000,7.52952099609375,-0.0010745699983090162,0.0007831777329556644,-0.0003060468006879091
1772644002688562200,7.539562255859375,-0.0008146328618749976,-0.0005855542840436101,0.000010838732123374939
1772644002698602200,7.549602294921875,-0.0016764318570494652,0.000768396770581603,0.0012404201552271843
1772644002708643000,7.55964306640625,0.0002882016124203801,-0.0005410157609730959,0.0005102093564346433
1772644002718684200,7.56968408203125,-0.00034163601230829954,0.00035460531944409013,-0.00038061803206801414
1772644002728725200,7.579725341796875,0.00006213440792635083,-0.0009723193943500519,-0.0016190509777516127
1772644002738766000,7.58976611328125,0.0001689271884970367,-0.000270576449111104,0.0003500902093946934
1772644002748806100,7.59980615234375,0.0001508015557192266,-0.0006984596839174628,-0.0004149717278778553
1772644002758847200,7.60984716796875,0.0016059527406468987,-0.001031621010042727,0.001501172548159957
1772644002768888300,7.619888427734375,-0.00023472693283110857,-0.0004789908998645842,0.00022346829064190388
1772644002778929200,7.62992919921875,0.0005743414512835443,0.000012362317647784948,-0.0006822727154940367
1772644002788969200,7.63996923828125,-0.0003334219800308347,-0.000010132323950529099,0.00036772177554666996
1772644002799010300,7.65001025390625,0.00020560185657814145,-0.000006403948646038771,-0.00005119340494275093
1772644002809051400,7.660051513671875,-0.00041605113074183464,0.0004600625252351165,-0.0011422764509916306
1772644002819092200,7.67009228515625,-0.0011470888275653124,-0.00043103116331622005,0.0005086170276626945
1772644002829133300,7.68013330078125,-0.000814853934571147,0.0014780507190153003,-0.00008697435259819031
1772644002839173400,7.69017333984375,-0.0002952711656689644,-0.0020919167436659336,-0.0010097597260028124
1772644002849214200,7.700214111328125,-0.0015387299936264753,-0.0002234337734989822,-0.0003409322816878557
1772644002859255300,7.71025537109375,-0.0011139558628201485,0.0006618010229431093,0.0008958396501839161
1772644002869296400,7.72029638671875,-0.00032886292319744825,0.0003022904274985194,-0.0010076691396534443
1772644002879336200,7.730336181640625,0.0005505128065124154,-0.0006425991305150092,0.0006842369912192225
1772644002889377000,7.740376953125,-0.00005370471626520157,0.00030992290703579783,0.00023154029622673988
1772644002899418000,7.750418212890625,0.0006395161035470665,0.00032403762452304363,0.00002887379378080368
1772644002909459200,7.760459228515625,-0.0007235531229525805,-0.0006324151763692498,-0.00034550996497273445
1772644002919500000,7.7705,-0.0003869294887408614,0.0010706762550398707,0.00010030320845544338
1772644002929540000,7.7805400390625,-0.0014986598398536444,0.00042795739136636257,0.0005648905644193292
1772644002939581200,7.790581298828125,-0.0006624272791668773,0.0002822824753820896,0.0005728801479563117
1772644002949622300,7.800622314453125,-0.0003513239207677543,-0.0008175973198376596,-0.0018754876218736172
1772644002959663000,7.8106630859375,-0.0009790309704840183,0.00007349636871367693,0.0004387994995340705
1772644002969703200,7.820703125,0.0007081934018060565,-0.0007136081694625318,0.00007231486961245537
1772644002979744300,7.830744140625,-0.00016266020247712731,-0.0005277195596136153,-0.0006051931995898485
1772644002989785000,7.84078515625,-0.0005637368885800242,0.0007791403331793845,0.00046024913899600506
1772644002999826200,7.850826171875,0.00033587892539799213,-0.000048570160288363695,-0.00044948654249310493
1772644003009866800,7.86086669921875,0.001755058066919446,-0.0007273528608493507,0.0006309663876891136
1772644003019906800,7.87090673828125,-0.00023698637960478663,-0.0006951286341063678,-0.00009900610893964767
1772644003029947600,7.88094775390625,0.00004017521860077977,0.0004949216381646693,-0.00029747490771114826
1772644003039988700,7.89098876953125,-0.0011164357420057058,0.000024607405066490173,-0.0009379652328789234
1772644003050029800,7.90102978515625,0.00018709333380684257,-0.00012952880933880806,0.0007945658871904016
1772644003060070000,7.91106982421875,-0.0003695073537528515,0.0001282651792280376,-0.0008984056767076254
1772644003070110700,7.92111083984375,-0.0011887174332514405,0.0010314667597413063,0.00033974205143749714
1772644003080151800,7.93115185546875,-0.0003522186307236552,-0.0002359315985813737,-0.00003416580148041248
1772644003090193000,7.94119287109375,-0.0018717192579060793,-0.0006711563328281045,0.0005147566553205252
1772644003100233700,7.951233642578125,-0.00031030800892040133,0.0004670787020586431,0.0015232956502586603
1772644003110273800,7.961273681640625,-0.0010079932399094105,0.0013860897161066532,0.000013657379895448685
1772644003120315000,7.97131494140625,0.0008687363588251173,0.0003613053122535348,0.0007433634018525481
1772644003130355700,7.981355712890625,0.00008293957216665149,0.00008240708848461509,-0.0007862045895308256
1772644003140396800,7.991396728515625,0.00009359221439808607,0.0011239693267270923,0.0008034363854676485
1772644003150438000,8.00143798828125,-0.0002516507520340383,-0.0004410414258018136,-0.0005514051299542189
1772644003160478000,8.01147802734375,0.00016220449469983578,0.0005832102615386248,0.0003356938250362873
1772644003170518800,8.021518798828126,-0.0015677567571401596,0.0012742627877742052,0.0008406394626945257
1772644003180560000,8.031559814453125,-0.00041167851304635406,-0.00107411271892488,0.0008017573272809386
1772644003190601000,8.04160107421875,-0.001523948973044753,0.0012754041235893965,0.0010737162083387375
1772644003200640800,8.051640869140625,-0.00044323818292468786,-0.000540605396963656,0.0007884916849434376
1772644003210681900,8.061681884765624,0.001389994053170085,0.0007817389559932053,0.0009408027399331331
1772644003220723000,8.071722900390625,0.0006642825901508331,-0.0008960524573922157,0.0002718167379498482
1772644003230764000,8.081763916015625,-0.0015644007362425327,-0.0013380951713770628,-0.0001588272862136364
1772644003240804900,8.091804931640626,-0.00019020953914150596,-0.0002312853466719389,-0.0022046675439924
1772644003250844700,8.1018447265625,-0.0013462281785905361,-0.000649808207526803,-0.00006813299842178822
1772644003260885800,8.1118857421875,0.00011025468120351434,0.00015633058501407504,-0.000799170695245266
1772644003270926600,8.121926513671875,0.000616677338257432,0.0009324981365352869,-0.0006014194805175066
1772644003280967700,8.1319677734375,-0.0010688372422009706,-0.0005311751738190651,0.00015305401757359505
1772644003291008800,8.1420087890625,0.0011680868919938803,-0.00035583332646638155,0.0010024099610745907
1772644003301048800,8.152048828125,0.0001345140626654029,-0.000503372517414391,-0.0013158717192709446
1772644003311089700,8.162089599609375,-0.00080423045437783,-0.00048276898451149464,-0.0001612282358109951
1772644003321130800,8.172130859375,0.00003759481478482485,0.00021258241031318903,-0.00036842236295342445
1772644003331171800,8.182171875,0.000692201079800725,0.00047540589002892375,-0.00009190710261464119
1772644003341212000,8.1922119140625,0.00038647017208859324,0.0006495765992440283,-0.0005446446593850851
1772644003351252700,8.202252685546876,-0.0005010288441553712,0.000010578078217804432,-0.0005997263360768557
1772644003361293800,8.2122939453125,0.0017360264901071787,-0.00003096717409789562,-0.0006998612079769373
1772644003371335000,8.2223349609375,0.0002945981686934829,-0.00023440259974449873,-0.0005208025686442852
1772644003381375700,8.232375732421875,-0.0002034129574894905,-0.0010677058016881347,-0.0000028177164494991302
1772644003391415800,8.242415771484374,0.000005639856681227684,-0.00017654767725616693,0.0004152588080614805
1772644003401457000,8.252456787109375,-0.0005424387054517865,0.00015980959869921207,-0.00010139448568224907
1772644003411497700,8.262497802734375,0.0009646599646657705,0.000013219309039413929,0.0008040725952014327
1772644003421538800,8.272538818359376,0.0005390868172980845,-0.000021401792764663696,0.00023921625688672066
1772644003431580000,8.282579833984375,0.0013300547143444419,-0.00008526386227458715,-0.000029070070013403893
1772644003441620000,8.292619873046876,0.000690896064043045,-0.000043185893446207047,-0.00024798186495900154
1772644003451660800,8.302660888671875,-0.0008227615617215633,-0.00048136315308511257,0.0013898871839046478
1772644003461702000,8.312701904296874,0.0015274781035259366,0.0012054831022396684,0.0008412759052589536
1772644003471743000,8.322742919921875,-0.00010970723815262318,0.0006969086825847626,-0.0004202441778033972
1772644003481783000,8.332782958984374,-0.00015631259884685278,0.0008561656577512622,0.0003510070964694023
1772644003491823900,8.342823974609376,-0.0006981571204960346,-0.0004828571109101176,-0.0008006119169294834
1772644003501865000,8.352864990234375,-0.00007817323785275221,-0.00014410307630896568,-0.0006075329147279263
1772644003511905800,8.36290576171875,0.0005263765924610198,0.0011059165699407458,-0.000043197302147746086
1772644003521947000,8.37294677734375,0.0012195974122732878,-0.0008352615404874086,-0.0007667781319469213
1772644003531986700,8.382986572265626,-0.000020526000298559666,0.0006447121850214899,0.001036795903928578
1772644003542027800,8.39302783203125,0.0007850801921449602,-0.0019595930352807045,-0.00004711071960628033
1772644003552068600,8.403068603515624,0.0010841856710612774,-0.00004555867053568363,-0.0004735104739665985
1772644003562109700,8.413109619140625,0.0006439650896936655,0.00035311648389324546,0.0011510177282616496
1772644003572150800,8.42315087890625,0.0003282721736468375,-0.0004562592366710305,-0.00036288867704570293
1772644003582190800,8.43319091796875,-0.0004182119155302644,-0.0014267151709645987,-0.0009189567063003778
1772644003592231700,8.443231689453125,0.000853494624607265,-0.00023403041996061802,-0.00013229413889348507
1772644003602272800,8.453272705078126,-0.00002055475488305092,-0.0006489509250968695,0.0006173857254907489
1772644003612313900,8.46331396484375,0.000855964666698128,0.0007279393612407148,0.00045429402962327003
1772644003622354700,8.473354736328124,-0.00006522273179143667,0.00024777138605713844,-0.00005223928019404411
1772644003632394800,8.483394775390625,0.0007054302841424942,-0.00012062687892466784,0.00004991423338651657
1772644003642435800,8.493435791015624,-0.0011776909232139587,0.00033051264472305775,-0.0006845856551080942
1772644003652476700,8.5034765625,-0.0005622151074931026,-0.0006027669878676534,-0.0012780539691448212
1772644003662517800,8.513517822265625,0.00015683838864788413,-0.00016441068146377802,0.0002759003546088934
1772644003672558800,8.523558837890626,-0.0003776372177526355,0.00014540227130055428,-0.0004605220165103674
1772644003682599000,8.533598876953125,-0.0010668633040040731,0.0007989420555531979,-0.0012253818567842245
1772644003692639700,8.5436396484375,-0.0010195989161729813,0.0005993187078274786,0.0001514421310275793
1772644003702680800,8.553680908203125,-0.00033410137984901667,0.000636070326436311,0.0006310775643214583
1772644003712722000,8.563721923828124,-0.0012641643406823277,0.0004641894483938813,0.0004756114212796092
1772644003722762800,8.5737626953125,0.0005640957970172167,-0.0007094657048583031,-0.0000021597370505332947
1772644003732802800,8.583802734375,-0.0000576971797272563,-0.000549816177226603,0.0002641917672008276
1772644003742844000,8.593843994140625,0.00027280114591121674,-0.00017910415772348642,0.0005036098882555962
1772644003752885000,8.603885009765625,-0.0006593401776626706,-0.00021363224368542433,-0.00017493264749646187
1772644003762925800,8.61392578125,-0.0007304465398192406,0.00011899648234248161,-0.00041834544390439987
1772644003772967000,8.623966796875,0.00022874533897265792,0.0006436167168430984,-0.0017822077497839928
1772644003783007000,8.634007080078124,-0.001065284595824778,-0.0007308407220989466,-0.0012168188113719225
1772644003793047800,8.6440478515625,-0.0003084177151322365,-0.0002005534479394555,-0.0010510825086385012
1772644003803089000,8.6540888671875,0.000621558167040348,0.00035924301482737064,0.0008181901648640633
1772644003813130000,8.6641298828125,-0.00031824037432670593,0.0012663977686315775,0.0006203724769875407
1772644003823170800,8.6741708984375,-0.0011909583117812872,0.0012943609617650509,0.0017977559473365545
1772644003833210600,8.684210693359375,-0.00042211986146867275,0.0005839376826770604,-0.000522363930940628
1772644003843251700,8.694251708984375,-0.0002170564839616418,0.0008174969116225839,0.0011682107578963041
1772644003853292800,8.704292724609376,0.0007808434311300516,0.0003824668237939477,0.00012829620391130447
1772644003863333600,8.714333740234375,0.00013209739699959755,-0.00022899499163031578,0.00033495761454105377
1772644003873373700,8.724373779296876,0.0005996555555611849,-0.0005192240932956338,0.0015476146945729852
1772644003883414800,8.734414794921875,-0.0011819991050288081,-0.00137676193844527,0.00022615422494709492
1772644003893455600,8.74445556640625,0.0004839936154894531,0.0005559689598158002,0.0002877165097743273
1772644003903496700,8.75449658203125,0.00012233632151037455,0.0012587771052494645,0.0010624299757182598
1772644003913537800,8.764537841796875,-0.00035631266655400395,-0.0012708682334050536,-0.0005327733233571053
1772644003923578600,8.77457861328125,-0.0008250290411524475,-0.0003608661936596036,-0.002228141762316227
1772644003933618700,8.78461865234375,-0.000581685162615031,0.000060301274061203,0.0006480542942881584
1772644003943659800,8.79465966796875,0.00015920621808618307,-0.00009203155059367418,0.00009118742309510708
1772644003953700900,8.804700927734375,-0.0005765330861322582,0.0008131167851388454,-0.000990280183032155
1772644003963741700,8.81474169921875,-0.0001783904735930264,-0.00017571495845913887,0.00066087965387851
1772644003973782800,8.82478271484375,0.0015998819144442677,0.00023619347484782338,0.0010364169720560312
1772644003983822800,8.83482275390625,-0.0011567561887204647,0.000025537447072565556,-0.00030847941525280476
1772644003993864000,8.844864013671875,0.0012734085321426392,0.0003166958340443671,-0.00011840020306408405
1772644004003905300,8.8549052734375,0.0009567587403580546,0.0007811511168256402,0.0002850685268640518
1772644004013946400,8.8649462890625,-0.0003139227628707886,0.0006601435597985983,-0.0006207472179085016
1772644004023986400,8.874986328125,-0.0004276398103684187,0.00013230496551841497,-0.0011903971899300814
1772644004034027300,8.88502734375,-0.0002246387884952128,0.000005049281753599644,0.001014287699945271
1772644004044068400,8.895068359375,-0.00017563666915521026,-0.000276446808129549,-0.0009987957309931517
1772644004054109400,8.905109375,0.000029514834750443697,0.00002587109338492155,0.001253563561476767
1772644004064150300,8.915150390625,-0.00014811806613579392,-0.0006705455016344786,0.00042691826820373535
1772644004074191400,8.92519140625,0.0007627565646544099,-0.0003659273497760296,-0.0007513049058616161
1772644004084231400,8.9352314453125,0.0005797974299639463,0.0008545993478037417,-0.001039725262671709
1772644004094272300,8.945272216796875,-0.0008926038281060755,-0.000049791415221989155,-0.00025781174190342426
1772644004104313300,8.955313232421876,0.001480006380006671,-0.0006063920445740223,0.0003603077493607998
1772644004114354400,8.9653544921875,0.0018133542034775019,0.0007614747155457735,-0.00010206014849245548
1772644004124395300,8.975395263671874,0.0005504832370206714,-0.0004918088670819998,-0.0014315100852400064
1772644004134435300,8.985435302734375,0.00004031212301924825,0.0007270476780831814,-0.000547975767403841
1772644004144476400,8.995476318359374,-0.0015224306844174862,-0.0010229155886918306,-0.0000065551139414310455
1772644004154517500,9.005517578125,0.000050115922931581736,0.00008175702532753348,0.0006704638944938779
1772644004164558300,9.015558349609375,-0.0007528270944021642,0.00020905613200739026,-0.0005436711944639683
1772644004174599400,9.025599365234376,0.0008586012991145253,0.00019651709590107203,0.0004566460847854614
1772644004184639200,9.03563916015625,-0.00047351187095046043,-0.00020002759993076324,-0.00005201762542128563
1772644004194680300,9.045680419921876,0.0014249020023271441,-0.00011658750008791685,-0.0023048617877066135
1772644004204721200,9.05572119140625,0.00002194877015426755,-0.0009150031255558133,-0.0007266728207468987
1772644004214762200,9.06576220703125,-0.000145908968988806,0.00010744243627414107,0.0006074728444218636
1772644004224803300,9.07580322265625,-0.0006764106801711023,-0.0002933633513748646,-0.00013475026935338974
1772644004234843100,9.085843017578124,-0.00009686709381639957,-0.0002007011789828539,0.0006115242140367627
1772644004244884200,9.09588427734375,-0.001091024954803288,-0.00032134237699210644,0.00021844170987606049
1772644004254925300,9.10592529296875,-0.0005569843342527747,0.0007090509752742946,-0.0008733328431844711
1772644004264966100,9.115966064453126,0.0002922976855188608,0.0007617815863341093,0.0001269504427909851
1772644004275007200,9.12600732421875,-0.0017189501086249948,0.0006876059342175722,0.0002599535509943962
1772644004285047300,9.13604736328125,-0.0008459658129140735,0.00007427996024489403,-0.0010529847349971533
1772644004295088400,9.14608837890625,0.00015311915194615722,-0.00027476914692670107,0.0006349135655909777
1772644004305129200,9.156129150390624,0.0007560588419437408,0.0008378996280953288,0.0017419896321371198
1772644004315170300,9.16617041015625,0.0003513658884912729,-0.0006520444294437766,0.0016134468605741858
1772644004325211400,9.17621142578125,0.0009308697772212327,0.0010087027912959456,0.000011289259418845177
1772644004335251500,9.18625146484375,0.0019356949487701058,0.0006109026726335287,-0.0008560288697481155
1772644004345292300,9.196292236328125,0.0006674976320937276,0.00023619591956958175,0.0011794250458478928
1772644004355333400,9.20633349609375,-0.0006197051261551678,-0.00035241153091192245,0.001116572879254818
1772644004365374200,9.216374267578125,-0.0008596558473072946,0.00043109041871502995,-0.0004853184800595045
1772644004375415300,9.226415283203124,-0.0009943924378603697,0.0005195357371121645,-0.0013890110421925783
1772644004385456400,9.236456298828125,-0.00047081487718969584,-0.0009278922807425261,0.0004717395640909672
1772644004395496400,9.246496337890624,-0.0008147137123160064,0.00036286580143496394,-0.000020675361156463623
1772644004405537300,9.256537353515625,-0.0006061881431378424,0.0008859106455929577,-0.0008204227779060602
1772644004415578400,9.266578369140625,0.000013638869859278202,-0.001388056087307632,0.0004731158260256052
1772644004425619500,9.276619384765626,0.0016682608984410763,-0.0005480950931087136,-0.000046733301132917404
1772644004435660300,9.286660400390625,-0.0019366927444934845,-0.000301679247058928,-0.001018081558868289
1772644004445700400,9.296700439453126,-0.001307654194533825,0.0019100760109722614,-0.0005821220111101866
1772644004455741400,9.306741455078125,0.0003111317637376487,0.0015488455537706614,0.00007178913801908493
1772644004465782500,9.316782470703124,0.0003156590973958373,0.00018743769032880664,-0.0010185088030993938
1772644004483353300,9.334353271484375,-0.00011325412197038531,-0.000032372307032346725,-0.00013567600399255753
1772644004493394400,9.34439453125,0.00017276935977861285,0.0004288871423341334,-0.0012803026475012302
1772644004503435300,9.354435302734375,-0.0010983168613165617,0.0003396394895389676,0.0004632747732102871
1772644004513476400,9.364476318359374,0.0001270035863853991,-0.0008329503471031785,-0.0006952004041522741
1772644004523516400,9.374516357421875,-0.00016860681353136897,0.0004655239754356444,-0.0013177120126783848
1772644004533557500,9.3845576171875,0.0009773513302206993,-0.00016271579079329967,0.0009113538544625044
1772644004543598300,9.394598388671875,0.0027120779268443584,0.0005855014896951616,0.0010619563981890678
1772644004553639400,9.404639404296875,0.0007748944917693734,0.00032664218451827765,-0.0007087793201208115
1772644004563680500,9.414680419921876,0.0000733198830857873,0.0013338152784854174,0.00007180753163993359
1772644004573720300,9.42472021484375,0.00019715685630217195,-0.00010216108057647943,0.00011521694250404835
1772644004583761200,9.43476123046875,-0.00019507005345076323,0.00029854715103283525,-0.00025596609339118004
1772644004593802200,9.44480224609375,-0.0010882943170145154,2.731103450059891e-7,0.00013498589396476746
1772644004603843300,9.45484326171875,-0.0006303571281023324,0.00035743077751249075,0.0007091069128364325
1772644004613884200,9.46488427734375,-0.00025991146685555577,0.002613128162920475,0.0007652996573597193
1772644004623925200,9.47492529296875,-0.0009518569568172097,0.005001894664019346,0.002386874984949827
1772644004633965300,9.48496533203125,0.0011571003124117851,0.007490884978324175,0.0021501199807971716
1772644004644006100,9.495006103515625,0.0002717584138736129,-0.0031453075353056192,-0.0017588869668543339
1772644004654047200,9.505047119140626,-0.0004992266767658293,-0.005232959985733032,-0.0017921766266226768
1772644004664088300,9.51508837890625,-0.0006495647830888629,-0.003831647802144289,-0.002727423794567585
1772644004674129200,9.525129150390624,-0.00007618626113981009,-0.0034172600135207176,-0.0014557645190507174
1772644004684169200,9.535169189453125,-0.00019293895456939936,0.0010282305302098393,-0.0010101220104843378
1772644004694210300,9.545210205078124,0.00008695927681401372,0.0009235682664439082,-0.0002953296061605215
