time,seconds_elapsed,z,y,x
1772648349926042400,0.18904248046875,0.06697844713926315,0.13249215483665466,-0.035153694450855255
1772648349936047000,0.199047119140625,0.07177212834358215,0.12929636240005493,-0.03675159066915512
1772648349946051800,0.2090517578125,0.07177212834358215,0.12716583907604218,-0.03142527490854263
1772648349956056300,0.219056396484375,0.06910897046327591,0.12716583907604218,-0.029294747859239578
1772648349966061000,0.22906103515625,0.06697844713926315,0.12183951586484909,-0.0330231711268425
1772648349976065800,0.239065673828125,0.0648479163646698,0.11331740766763687,-0.03675159066915512
1772648349986070500,0.249070556640625,0.06378265470266342,0.10213214159011841,-0.04101264476776123
1772648349996075300,0.2590751953125,0.062184758484363556,0.09361003339290619,-0.04633896425366402
1772648350006080000,0.269080078125,0.06111949309706688,0.08029423654079437,-0.055926334112882614
1772648350016084700,0.279084716796875,0.058988966047763824,0.0744352862238884,-0.06657896935939789
1772648350026089200,0.289089111328125,0.05632580816745758,0.0739026591181755,-0.07403581589460373
1772648350036094000,0.299093994140625,0.0552605465054512,0.08135949820280075,-0.06924212723970413
1772648350046098700,0.3090986328125,0.04727106913924217,0.08775108307600021,-0.0564589649438858
1772648350056103400,0.319103515625,0.0414121188223362,0.08668582141399384,-0.04048001393675804
1772648350066106600,0.329106689453125,0.0318247489631176,0.09041424095630646,-0.022370534017682076
1772648350076109600,0.339109619140625,0.02383527159690857,0.10958898812532425,-0.01012000348418951
1772648350086112500,0.349112548828125,0.01904158480465412,0.12450267374515533,-0.0005326317623257637
1772648350096115500,0.359115478515625,0.02809632569551468,0.1314268857240677,0.01438105758279562
1772648350106118400,0.369118408203125,0.01105210930109024,0.14634057879447937,0.02077263966202736
1772648350116121300,0.379121337890625,0.004127896390855312,0.17723321914672852,0.023435797542333603
1772648350126124300,0.389124267578125,0.014247899875044823,0.2017342746257782,0.014913689345121384
1772648350136127200,0.399127197265625,0.014780531637370586,0.1916142702102661,0.014913689345121384
1772648350156132900,0.4191328125,-0.01344895176589489,0.182559534907341,0.06551370769739151
1772648350166135800,0.4291357421875,-0.02143842913210392,0.1830921620130539,0.0798947662115097
1772648350176138800,0.439138671875,-0.019307902082800865,0.23156166076660156,0.09267792850732803
1772648350186141700,0.4491416015625,-0.02996053732931614,0.22144165635108948,0.07403581589460373
1772648350196144600,0.45914453125,-0.02996053732931614,0.2017342746257782,0.06711160391569138
1772648350206147600,0.469147705078125,-0.03368895873427391,0.16231952607631683,0.08575371652841568
1772648350216150500,0.479150634765625,-0.043808963149785995,0.150068998336792,0.09587371349334717
1772648350226153500,0.489153564453125,-0.05392896756529808,0.1687111109495163,0.10492845624685287
1772648350236156400,0.499156494140625,-0.07257107645273209,0.19481006264686584,0.10439582169055939
1772648350246159400,0.509159423828125,-0.08162581920623779,0.21238692104816437,0.09480845183134079
1772648350256162300,0.519162353515625,-0.0906805545091629,0.23209428787231445,0.07137265801429749
1772648350266165200,0.529165283203125,-0.09707213938236237,0.24754060804843903,0.05326317623257637
1772648350276168200,0.539168212890625,-0.10399635136127472,0.2640521824359894,0.04048001393675804
1772648350286171100,0.549171142578125,-0.10932266712188721,0.26085641980171204,0.03142527490854263
1772648350296174000,0.559174072265625,-0.11677951365709305,0.2523342967033386,0.01012000348418951
1772648350306176800,0.5691767578125,-0.12317109853029251,0.2438121885061264,-0.021305270493030548
1772648350316179700,0.5791796875,-0.1290300488471985,0.24274691939353943,-0.060187388211488724
1772648350326182700,0.5891826171875,-0.12476898729801178,0.2672479748725891,-0.09693898260593414
1772648350336185600,0.599185546875,-0.11464899033308029,0.3002711534500122,-0.11877688020467758
1772648350346188500,0.6091884765625,-0.10612688213586807,0.33222904801368713,-0.13741900026798248
1772648350356191500,0.61919140625,-0.09174582362174988,0.36471959948539734,-0.1555284708738327
1772648350366194400,0.6291943359375,-0.07310371100902557,0.3993406593799591,-0.17576847970485687
1772648350376197400,0.639197265625,-0.04966791346669197,0.4339617192745209,-0.1880190074443817
1772648350386200300,0.649200439453125,-0.03049316816031933,0.46272385120391846,-0.19228006899356842
1772648350396203300,0.659203369140625,-0.017710005864501,0.4797680675983429,-0.19494321942329407
1772648350406206200,0.669206298828125,-0.007057370617985725,0.48775753378868103,-0.20026955008506775
1772648350416209200,0.679209228515625,0.0030626326333731413,0.49627965688705444,-0.1976063847541809
1772648350426212000,0.689212158203125,0.006791055202484131,0.5090628266334534,-0.18695375323295593
1772648350436215000,0.699215087890625,0.013715268112719059,0.5261070132255554,-0.174170583486557
1772648350446218000,0.709218017578125,0.01531316339969635,0.5090628266334534,-0.16405057907104492
1772648350456220700,0.719220703125,0.014247899875044823,0.47817015647888184,-0.17044216394424438
1772648350466223600,0.7292236328125,0.011584741063416004,0.4328964650630951,-0.18695375323295593
1772648350476226600,0.7392265625,0.014247899875044823,0.3838943541049957,-0.1976063847541809
1772648350486229500,0.7492294921875,0.02756369300186634,0.3380880057811737,-0.20453059673309326
1772648350496232400,0.759232421875,0.03555316850543022,0.29867327213287354,-0.2125200778245926
1772648350506235400,0.7692353515625,0.04727106913924217,0.23529008030891418,-0.22423797845840454
1772648350516238300,0.77923828125,0.06378265470266342,0.17457005381584167,-0.23276008665561676
1772648350526241300,0.7892412109375,0.08135949820280075,0.14154689013957977,-0.22956429421901703
1772648350536244200,0.799244140625,0.09680582582950592,0.14740583300590515,-0.2173137664794922
1772648350546247200,0.8092470703125,0.10213214159011841,0.17723321914672852,-0.20186743140220642
1772648350556250000,0.81925,0.1213068813085556,0.18096163868904114,-0.19654111564159393
1772648350566254600,0.829254638671875,0.13355740904808044,0.1868205964565277,-0.20186743140220642
1772648350576259600,0.839259521484375,0.15166689455509186,0.19321216642856598,-0.22264008224010468
1772648350586264300,0.849264404296875,0.1729721575975418,0.20865848660469055,-0.25246745347976685
1772648350596269300,0.859269287109375,0.18895111978054047,0.2395511418581009,-0.28549063205718994
1772648350606274000,0.869274169921875,0.20439743995666504,0.21505007147789001,-0.3121222257614136
1772648350616279000,0.879279052734375,0.21824586391448975,0.19374480843544006,-0.32863378524780273
1772648350626284000,0.889283935546875,0.24274691939353943,0.1777658462524414,-0.3339601159095764
1772648350636289000,0.8992890625,0.27523747086524963,0.17084163427352905,-0.32277485728263855
1772648350646293800,0.909293701171875,0.3109237849712372,0.1681784838438034,-0.30360010266304016
1772648350656298800,0.919298828125,0.34607750177383423,0.1687111109495163,-0.2838927209377289
1772648350666303500,0.929303466796875,0.3748396039009094,0.17510269582271576,-0.2636527121067047
1772648350676308500,0.93930859375,0.399873286485672,0.19427743554115295,-0.2354232370853424
1772648350686313500,0.9493134765625,0.4217112064361572,0.2107890248298645,-0.20559586584568024
1772648350696318200,0.959318115234375,0.4371575117111206,0.21505007147789001,-0.18216006457805634
1772648350706323200,0.9693232421875,0.44035330414772034,0.19427743554115295,-0.1699095368385315
1772648350716328200,0.979328125,0.4424838423728943,0.17510269582271576,-0.164583221077919
1772648350736338000,0.999337890625,0.4099932909011841,0.17084163427352905,-0.1555284708738327
1772648350746343000,1.009343017578125,0.38229644298553467,0.19587533175945282,-0.13848425447940826
1772648350756347600,1.01934765625,0.3668501377105713,0.18362480401992798,-0.11132004112005234
1772648350766352600,1.0293525390625,0.3375553786754608,0.1442100554704666,-0.09693898260593414
1772648350776357400,1.039357421875,0.301336407661438,0.10905635356903076,-0.09108003228902817
1772648350786362400,1.0493623046875,0.2523342967033386,0.07070686668157578,-0.08362318575382233
1772648350796367400,1.059367431640625,0.20439743995666504,0.054195281118154526,-0.07882949709892273
1772648350806372400,1.069372314453125,0.16018900275230408,0.05153212323784828,-0.07297055423259735
1772648350816377000,1.079377197265625,0.11970898509025574,0.06431528180837631,-0.07297055423259735
1772648350826382000,1.089382080078125,0.07656581699848175,0.0978710874915123,-0.05805686116218567
1772648350836386800,1.09938671875,0.03874896094202995,0.13409005105495453,-0.030360009521245956
1772648350846391800,1.109391845703125,-0.001731053227558732,0.182559534907341,0.006924212910234928
1772648350856396800,1.119396728515625,-0.056592125445604324,0.27523747086524963,0.051132649183273315
1772648350866401800,1.12940185546875,-0.10665950924158096,0.3817638158798218,0.10546109080314636
1772648350876406500,1.139406494140625,-0.16471637785434723,0.5378249287605286,0.13315793871879578
1772648350886411500,1.14941162109375,-0.28136274218559265,0.6315681338310242,0.12942951917648315
1772648350896416300,1.159416259765625,-0.36125749349594116,0.6896249651908875,0.13954952359199524
1772648350906421200,1.169421142578125,-0.42836910486221313,0.6390249729156494,0.1837579607963562
1772648350916426200,1.17942626953125,-0.500806987285614,0.5143890976905823,0.27164220809936523
1772648350926431000,1.189430908203125,-0.5519396662712097,0.3327617049217224,0.3717769682407379
1772648350936436000,1.19943603515625,-0.6179860234260559,0.0696416050195694,0.45486751198768616
1772648350946441000,1.20944091796875,-0.6973481178283691,-0.2035984843969345,0.5070654153823853
1772648350956445700,1.21944580078125,-0.7628618478775024,-0.39001959562301636,0.5225117802619934
1772648350966450700,1.22945068359375,-0.8081355690956116,-0.4917522668838501,0.5097286105155945
1772648350976455700,1.23945556640625,-0.8342344760894775,-0.5269059538841248,0.48309701681137085
1772648350986460400,1.24946044921875,-0.8464850187301636,-0.5322322845458984,0.45540016889572144
1772648350996465400,1.25946533203125,-0.8400934338569641,-0.5194491147994995,0.45912858843803406
1772648351006470100,1.26947021484375,-0.8305060863494873,-0.5290365219116211,0.5145222544670105
1772648351016475100,1.27947509765625,-0.8044071197509766,-0.5482112169265747,0.591221272945404
1772648351026480000,1.289480224609375,-0.7388933897018433,-0.5940175652503967,0.6727139353752136
1772648351036485000,1.299485107421875,-0.6403565406799316,-0.6510091423988342,0.7323686480522156
1772648351046489900,1.30948974609375,-0.5306344032287598,-0.5982786417007446,0.7275750041007996
1772648351056494800,1.319494873046875,-0.4107922613620758,-0.4635227918624878,0.6673876047134399
1772648351066500000,1.3295,-0.30586379766464233,-0.2786995768547058,0.575242280960083
1772648351076505600,1.339505615234375,-0.2174469232559204,-0.06511422991752625,0.5017391443252563
1772648351086511000,1.349510986328125,-0.15033531188964844,0.1026647686958313,0.47404226660728455
1772648351096516600,1.3595166015625,-0.12583425641059875,0.20333217084407806,0.4846948981285095
1772648351106522000,1.369522216796875,-0.12210582941770554,0.21451744437217712,0.5230444073677063
1772648351116527600,1.379527587890625,-0.11198582500219345,0.25659534335136414,0.5629917979240417
1772648351126533000,1.389533203125,-0.11358372122049332,0.3061301112174988,0.587492823600769
1772648351136538600,1.39953857421875,-0.13382373750209808,0.30666273832321167,0.566720187664032
1772648351146544000,1.409544189453125,-0.1711079478263855,0.2624543011188507,0.5150549411773682
1772648351156549600,1.419549560546875,-0.21584902703762054,0.2251700758934021,0.4612590968608856
1772648351166555100,1.42955517578125,-0.2462090253829956,0.2198437601327896,0.42184436321258545
1772648351176560600,1.439560546875,-0.27177536487579346,0.26511746644973755,0.4000064432621002
1772648351186566100,1.449566162109375,-0.2701774537563324,0.29387956857681274,0.3952127695083618
1772648351196571600,1.459571533203125,-0.24940481781959534,0.31305432319641113,0.4042675197124481
1772648351206577200,1.4695771484375,-0.21425113081932068,0.33169642090797424,0.4191811978816986
1772648351216582700,1.479582763671875,-0.1753690093755722,0.3434143364429474,0.42184436321258545
1772648351226588200,1.489588134765625,-0.1471395194530487,0.3386206328868866,0.4042675197124481
1772648351236593700,1.49959375,-0.13915005326271057,0.3375553786754608,0.37444013357162476
1772648351246599200,1.50959912109375,-0.13968268036842346,0.3194459080696106,0.3430148661136627
1772648351256604700,1.519604736328125,-0.17483638226985931,0.290683776140213,0.31425273418426514
1772648351266610200,1.529610107421875,-0.2131858617067337,0.24967113137245178,0.2775011360645294
1772648351276615700,1.53961572265625,-0.2414153516292572,0.20865848660469055,0.24660851061344147
1772648351286621200,1.54962109375,-0.2371542900800705,0.17723321914672852,0.21305270493030548
1772648351296626700,1.559626708984375,-0.19614164531230927,0.17403742671012878,0.16884426772594452
1772648351306632200,1.569632080078125,-0.1237037256360054,0.17883111536502838,0.11185266822576523
1772648351316637700,1.5796376953125,-0.08056055754423141,0.19321216642856598,0.042610540986061096
1772648351336648700,1.599648681640625,-0.024634219706058502,0.28375956416130066,-0.09853687882423401
1772648351346654000,1.609654052734375,0.008921582251787186,0.32637012004852295,-0.16405057907104492
1772648351356659500,1.619659423828125,0.04354264587163925,0.3716438114643097,-0.21784639358520508
1772648351366665000,1.6296650390625,0.07496792078018188,0.4238417148590088,-0.2583264112472534
1772648351376670500,1.63967041015625,0.10319740325212479,0.4888227880001068,-0.2743053436279297
1772648351386676000,1.649676025390625,0.13462267816066742,0.5261070132255554,-0.2556632459163666
1772648351396681500,1.659681396484375,0.16178689897060394,0.48615965247154236,-0.21411797404289246
1772648351406687000,1.66968701171875,0.19800585508346558,0.4323638379573822,-0.19121479988098145
1772648351416692500,1.6796923828125,0.2246374487876892,0.3620564341545105,-0.17736637592315674
1772648351426698000,1.689697998046875,0.22144165635108948,0.290683776140213,-0.14966952800750732
1772648351436703500,1.699703369140625,0.19054901599884033,0.24594271183013916,-0.10918951034545898
1772648351446709000,1.709708984375,0.14261215925216675,0.24487745761871338,-0.06391581147909164
1772648351456714500,1.719714599609375,0.0834900289773941,0.2949448525905609,-0.01012000348418951
1772648351466720000,1.729719970703125,0.0003994738217443228,0.3721764385700226,0.04633896425366402
1772648351476725500,1.7397255859375,-0.04913527891039848,0.41585224866867065,0.09480845183134079
1772648351486731000,1.74973095703125,-0.06671212613582611,0.3673827648162842,0.1368863582611084
1772648351496736500,1.759736572265625,-0.09813740104436874,0.290683776140213,0.174170583486557
1772648351506742000,1.769741943359375,-0.13382373750209808,0.2347574532032013,0.21571587026119232
1772648351516747500,1.77974755859375,-0.15885742008686066,0.17616795003414154,0.2721748352050781
1772648351526753000,1.7897529296875,-0.19188059866428375,0.13622057437896729,0.3392864465713501
1772648351536758500,1.799758544921875,-0.2323606014251709,0.08988160640001297,0.40213698148727417
1772648351546764000,1.809763916015625,-0.2611227333545685,0.06697844713926315,0.4522043764591217
1772648351556769500,1.81976953125,-0.27710166573524475,0.0834900289773941,0.4820317327976227
1772648351566774500,1.8297744140625,-0.26272061467170715,0.13195951282978058,0.5336970090866089
1772648351576779800,1.83977978515625,-0.2366216629743576,0.17457005381584167,0.6008086204528809
1772648351586784800,1.84978466796875,-0.22596903145313263,0.14207951724529266,0.5715138912200928
1772648351596790000,1.8597900390625,-0.1753690093755722,0.054727911949157715,0.4207790791988373
1772648351606795000,1.869794921875,-0.13595426082611084,-0.003861580276861787,0.2886864244937897
1772648351616800300,1.87980029296875,-0.12956267595291138,-0.05020054429769516,0.2961432635784149
1772648351626805200,1.88980517578125,-0.1002679318189621,-0.10665950924158096,0.3296990692615509
1772648351636810500,1.899810546875,-0.007057370617985725,-0.14820478856563568,0.26738113164901733
1772648351646815500,1.9098154296875,0.08615318685770035,-0.16897742450237274,0.13795162737369537
1772648351656820700,1.91982080078125,0.09467529505491257,-0.07363633811473846,0
1772648351666825700,1.92982568359375,0.11438266932964325,0.0552605465054512,-0.09587371349334717
1772648351676830700,1.939830810546875,0.14580795168876648,0.12929636240005493,-0.11504846066236496
1772648351686836000,1.9498359375,0.19001637399196625,0.11065424978733063,-0.09001477062702179
1772648351696841200,1.95984130859375,0.24008376896381378,0.08082687109708786,-0.043143171817064285
1772648351706846200,1.96984619140625,0.3205111622810364,0.09840371459722519,0.012783162295818329
1772648351716851200,1.979851318359375,0.41105857491493225,0.1873532235622406,0.06231791526079178
1772648351726856400,1.9898564453125,0.4568648934364319,0.3476753830909729,0.08522108197212219
1772648351736861400,1.999861328125,0.47284385561943054,0.5095954537391663,0.09001477062702179
1772648351746866700,2.00986669921875,0.4712459444999695,0.6054691672325134,0.08255792409181595
1772648351756871700,2.01987158203125,0.4760396480560303,0.6235786080360413,0.035153694450855255
1772648351766877000,2.029876953125,0.47284385561943054,0.5926859974861145,-0.05805686116218567
1772648351776882000,2.0398818359375,0.46805015206336975,0.5079975724220276,-0.17204006016254425
1772648351786887200,2.04988720703125,0.46219122409820557,0.37750276923179626,-0.28975167870521545
1772648351796892200,2.05989208984375,0.4382227957248688,0.19374480843544006,-0.40373486280441284
1772648351806897400,2.0698974609375,0.39294907450675964,0.02436790242791176,-0.4937496483325958
1772648351816902400,2.07990234375,0.31252169609069824,-0.09867003560066223,-0.5507412552833557
1772648351826907600,2.08990771484375,0.19321216642856598,-0.2366216629743576,-0.5715138912200928
1772648351836912600,2.09991259765625,0.05099949240684509,-0.3916175067424774,-0.5720465183258057
1772648351856923000,2.1199228515625,-0.2233058661222458,-0.5641902089118958,-0.5347622632980347
1772648351866928000,2.12992822265625,-0.3069290518760681,-0.5556681156158447,-0.4772380590438843
1772648351876933000,2.13993310546875,-0.33302801847457886,-0.49867647886276245,-0.39894118905067444
1772648351886938000,2.149938232421875,-0.31491851806640625,-0.42251014709472656,-0.31798115372657776
1772648351896943400,2.159943359375,-0.2701774537563324,-0.3117227256298065,-0.2503369152545929
1772648351906948400,2.1699482421875,-0.17856480181217194,-0.17696690559387207,-0.2167811244726181
1772648351916953600,2.17995361328125,-0.05446159839630127,-0.039547909051179886,-0.23489060997962952
1772648351926958600,2.18995849609375,0.08189213275909424,0.12716583907604218,-0.283360093832016
1772648351936963800,2.1999638671875,0.216115340590477,0.22197428345680237,-0.34674328565597534
1772648351946968800,2.20996875,0.32690274715423584,0.19374480843544006,-0.41758328676223755
1772648351956974000,2.21997412109375,0.4185154139995575,0.13462267816066742,-0.47297701239585876
1772648351966979000,2.22997900390625,0.4930838644504547,0.09840371459722519,-0.49801069498062134
1772648351976984300,2.239984375,0.5154544115066528,-0.012383688241243362,-0.49268439412117004
1772648351986989300,2.2499892578125,0.5287702083587646,-0.07949528843164444,-0.4708464741706848
1772648351996994600,2.25999462890625,0.5298354625701904,-0.1098553016781807,-0.45007383823394775
1772648352006999600,2.26999951171875,0.5186501741409302,-0.12263846397399902,-0.43622541427612305
1772648352017004800,2.2800048828125,0.5149217844009399,-0.10133319348096848,-0.4293012022972107
1772648352027009800,2.290009765625,0.5048017501831055,-0.07789739221334457,-0.42557278275489807
1772648352037015000,2.30001513671875,0.49255120754241943,-0.05499422922730446,-0.41225698590278625
1772648352047020000,2.31002001953125,0.4739091098308563,-0.048602648079395294,-0.3872233033180237
1772648352057025000,2.32002490234375,0.4472775161266327,-0.05819002166390419,-0.35633066296577454
1772648352067030000,2.330030029296875,0.4131890833377838,-0.07044055312871933,-0.314785361289978
1772648352077035000,2.340034912109375,0.370045930147171,-0.08748476952314377,-0.26205483078956604
1772648352087040000,2.3500400390625,0.324239581823349,-0.1050616130232811,-0.2029327005147934
1772648352097045000,2.360044921875,0.27523747086524963,-0.13009530305862427,-0.14966952800750732
1772648352107050000,2.370050048828125,0.2294311374425888,-0.16258583962917328,-0.10279793292284012
1772648352117055000,2.380054931640625,0.1964079588651657,-0.19614164531230927,-0.06338317692279816
1772648352127060000,2.39006005859375,0.16231952607631683,-0.21158796548843384,-0.034621063619852066
1772648352137065000,2.40006494140625,0.13941636681556702,-0.23395849764347076,-0.021837901324033737
1772648352147070000,2.410070068359375,0.13195951282978058,-0.23023007810115814,-0.02503369376063347
1772648352157075000,2.420074951171875,0.1356879472732544,-0.18868480622768402,-0.03994738310575485
1772648352167080000,2.430079833984375,0.1548626869916916,-0.1284974068403244,-0.05379580706357956
1772648352187090200,2.450090087890625,0.1820269078016281,-0.0027963167522102594,-0.10173266381025314
1772648352197095000,2.460094970703125,0.19001637399196625,0.03502053767442703,-0.13901689648628235
1772648352207100000,2.470099853515625,0.18042901158332825,0.03448790684342384,-0.16405057907104492
1772648352217105000,2.48010498046875,0.16498269140720367,0.01957421749830246,-0.1560611128807068
1772648352227110000,2.49010986328125,0.11598056554794312,-0.007057370617985725,-0.15925689041614532
1772648352237115000,2.500114990234375,0.04514054208993912,0.03928159177303314,-0.1699095368385315
1772648352247120000,2.510119873046875,-0.051798440515995026,0.1548626869916916,-0.1837579607963562
1772648352257125000,2.520125,-0.1806953251361847,0.3098585307598114,-0.20026955008506775
1772648352267130000,2.530130126953125,-0.3362238109111786,0.4834964871406555,-0.20506322383880615
1772648352277134800,2.540134765625,-0.4997417628765106,0.6571344137191772,-0.20080217719078064
1772648352287139800,2.550139892578125,-0.6467481255531311,0.7524755001068115,-0.174170583486557
1772648352297144800,2.560144775390625,-0.7777755260467529,0.7434207797050476,-0.10013477504253387
1772648352307149800,2.57014990234375,-0.8821713328361511,0.6001428365707397,0.018642112612724304
1772648352317155000,2.580155029296875,-0.9753819108009338,0.3434143364429474,0.1411474198102951
1772648352327160000,2.59016015625,-1.0403629541397095,0.1026647686958313,0.24341271817684174
1772648352337165000,2.6001650390625,-1.0771145820617676,-0.06191844120621681,0.3302316963672638
1772648352347169800,2.610169677734375,-1.0904303789138794,-0.15779216587543488,0.38509276509284973
1772648352357174800,2.6201748046875,-1.0904303789138794,-0.18761953711509705,0.4202464520931244
1772648352367179800,2.6301796875,-1.0723209381103516,-0.19294585287570953,0.47830331325531006
1772648352377184800,2.640184814453125,-1.045156717300415,-0.22596903145313263,0.5512738823890686
1772648352387190000,2.65018994140625,-0.9775124192237854,-0.3271690607070923,0.6034718155860901
1772648352397195000,2.660195068359375,-0.8661924004554749,-0.4826975464820862,0.621048629283905
1772648352407200000,2.670199951171875,-0.6803039312362671,-0.6297038793563843,0.6029391288757324
1772648352417205000,2.680205078125,-0.4917522668838501,-0.6712491512298584,0.5081307291984558
1772648352427209700,2.690209716796875,-0.29893958568573,-0.5982786417007446,0.3536674976348877
1772648352437214700,2.700214599609375,-0.14181320369243622,-0.47896912693977356,0.21038953959941864
1772648352447220000,2.710219970703125,-0.035819485783576965,-0.3415501117706299,0.11824425309896469
1772648352457225000,2.720224853515625,0.017976321280002594,-0.17643427848815918,0.12463583052158356
1772648352467230000,2.73022998046875,0.022770008072257042,-0.018242638558149338,0.20612849295139313
1772648352477235000,2.74023486328125,-0.008122634142637253,0.13941636681556702,0.3121222257614136
1772648352487240000,2.750239990234375,-0.043808963149785995,0.28961852192878723,0.3877559304237366
1772648352497244700,2.76024462890625,-0.09281108528375626,0.3860248625278473,0.42131173610687256
1772648352507249700,2.770249755859375,-0.15832479298114777,0.39188382029533386,0.4069306552410126
1772648352517255000,2.7802548828125,-0.23928481340408325,0.36418697237968445,0.3691138029098511
1772648352527260000,2.790260009765625,-0.31385326385498047,0.31252169609069824,0.34674328565597534
1772648352537265000,2.800264892578125,-0.3553985357284546,0.34714275598526,0.35633066296577454
1772648352557274600,2.820274658203125,-0.36179012060165405,0.5277048945426941,0.42131173610687256
1772648352567279400,2.830279296875,-0.3452785313129425,0.5932186245918274,0.45859596133232117
1772648352577284000,2.8402841796875,-0.3255711793899536,0.6400902271270752,0.4799012243747711
1772648352587288800,2.850288818359375,-0.3069290518760681,0.6683197021484375,0.4809664785861969
1772648352597293600,2.86029345703125,-0.2930806279182434,0.6587323546409607,0.46392226219177246
1772648352607298300,2.87029833984375,-0.2802974581718445,0.6044039130210876,0.42557278275489807
1772648352617303000,2.880302978515625,-0.2515353560447693,0.4936164915561676,0.37550538778305054
1772648352627307800,2.890307861328125,-0.21212059259414673,0.37856802344322205,0.30306747555732727
1772648352637312500,2.9003125,-0.156194269657135,0.2768353521823883,0.21784639358520508
1772648352647317200,2.910317138671875,-0.1002679318189621,0.19853848218917847,0.12090741097927094
1772648352657322000,2.920322021484375,-0.04540685936808586,0.15060162544250488,0.021837901324033737
1772648352667326700,2.93032666015625,0.0003994738217443228,0.1261005699634552,-0.08575371652841568
1772648352677331500,2.94033154296875,0.03502053767442703,0.10319740325212479,-0.18535585701465607
1772648352687336000,2.9503359375,0.06857633590698242,0.08988160640001297,-0.272707462310791
1772648352697340700,2.960340576171875,0.10106687992811203,0.07763107866048813,-0.3403517007827759
1772648352707345400,2.970345458984375,0.12982898950576782,0.09041424095630646,-0.3808317184448242
1772648352717350100,2.98035009765625,0.15326479077339172,0.10586056113243103,-0.3760380148887634
1772648352727355000,2.99035498046875,0.1692437380552292,0.12450267374515533,-0.33822116255760193
1772648352737359600,3.000359619140625,0.17936374247074127,0.13675320148468018,-0.2828274667263031
1772648352757369000,3.020369140625,0.12343741208314896,0.06910897046327591,-0.21038953959941864
1772648352767373800,3.030373779296875,0.054727911949157715,0.04034685716032982,-0.17576847970485687
1772648352777378600,3.040378662109375,-0.007590002380311489,0.025433165952563286,-0.13209268450737
1772648352787383300,3.05038330078125,-0.04114580526947975,-0.0022636849898844957,-0.06711160391569138
1772648352797388000,3.060387939453125,-0.06831002235412598,0.012650004588067532,0.025566324591636658
1772648352807392500,3.070392578125,-0.06671212613582611,0.06431528180837631,0.12144003808498383
1772648352817397200,3.080397216796875,-0.04540685936808586,0.12716583907604218,0.1885516494512558
1772648352827402000,3.090402099609375,-0.007590002380311489,0.1921469122171402,0.21784639358520508
1772648352837406700,3.10040673828125,0.016911057755351067,0.19960375130176544,0.2263685017824173
1772648352847411500,3.110411376953125,0.020639481022953987,0.16178689897060394,0.2700442969799042
1772648352857416200,3.120416259765625,0.018508953973650932,0.045673172920942307,0.3808317184448242
1772648352867421000,3.1304208984375,0.014247899875044823,-0.13701951503753662,0.5320991277694702
1772648352877425700,3.14042578125,0.0014647373463958502,-0.3085269629955292,0.6689854860305786
1772648352887430400,3.150430419921875,-0.012916320003569126,-0.43263015151023865,0.733966588973999
1772648352897435100,3.16043505859375,-0.05339633300900459,-0.4720448851585388,0.6993455290794373
1772648352907439900,3.17043994140625,-0.1428784728050232,-0.3884217143058777,0.5534043908119202
1772648352917444400,3.1804443359375,-0.2755037844181061,-0.231827974319458,0.4042675197124481
1772648352927449300,3.190449462890625,-0.3117227256298065,-0.12157320231199265,0.33289486169815063
1772648352937453800,3.200453857421875,-0.22543638944625854,-0.06191844120621681,0.2647179961204529
1772648352947458600,3.21045849609375,-0.07470160722732544,-0.015046847052872181,0.1597895324230194
1772648352957463300,3.22046337890625,0.01105210930109024,0.06644581258296967,0.029827378690242767
1772648352967468000,3.230468017578125,0.07976160943508148,0.16125427186489105,-0.070840023458004
1772648352977472800,3.24047265625,0.16285216808319092,0.15646058320999146,-0.13102741539478302
1772648352987477500,3.2504775390625,0.24647535383701324,0.07070686668157578,-0.15233267843723297
1772648352997482200,3.260482177734375,0.33968591690063477,0.01105210930109024,-0.15872426331043243
1772648353007487000,3.270487060546875,0.38815540075302124,0.04034685716032982,-0.1699095368385315
1772648353017491700,3.28049169921875,0.39774277806282043,0.11331740766763687,-0.1794968992471695
1772648353027496400,3.290496337890625,0.3769701421260834,0.1255679428577423,-0.1699095368385315
1772648353037501000,3.3005009765625,0.34714275598526,0.08775108307600021,-0.14807163178920746
1772648353047505700,3.310505615234375,0.33063116669654846,0.07017423212528229,-0.1363537311553955
1772648353057510400,3.320510498046875,0.3327617049217224,0.07603318244218826,-0.1315600425004959
1772648353067515100,3.33051513671875,0.3530017137527466,0.12450267374515533,-0.12996214628219604
1772648353077519600,3.34051953125,0.37803539633750916,0.18628795444965363,-0.15446321666240692
1772648353087524000,3.350524169921875,0.39241644740104675,0.2203763872385025,-0.20612849295139313
1772648353097528800,3.36052880859375,0.389220654964447,0.20493006706237793,-0.2545979917049408
1772648353107533300,3.370533203125,0.3727090656757355,0.12876373529434204,-0.28069692850112915
1772648353117537800,3.380537841796875,0.3535343408584595,0.02809632569551468,-0.2870885133743286
1772648353127542500,3.39054248046875,0.33222904801368713,-0.06884265691041946,-0.2924148440361023
1772648353137547000,3.400547119140625,0.2922816872596741,-0.14128057658672333,-0.325437992811203
1772648353147551500,3.410551513671875,0.2155826985836029,-0.18229322135448456,-0.3877559304237366
1772648353157556200,3.42055615234375,0.11491530388593674,-0.24940481781959534,-0.4426169991493225
1772648353167560700,3.430560791015625,0.03555316850543022,-0.30905959010124207,-0.4751075208187103
1772648353177565200,3.440565185546875,-0.012383688241243362,-0.3585943281650543,-0.48682543635368347
1772648353187569700,3.450569580078125,-0.0294279046356678,-0.3980090916156769,-0.4900212287902832
1772648353197574400,3.460574462890625,-0.031025800853967667,-0.42730382084846497,-0.4793685972690582
1772648353207579000,3.470578857421875,-0.011851056478917599,-0.42304277420043945,-0.4703138470649719
1772648353217583600,3.48058349609375,0.016911057755351067,-0.3969438076019287,-0.45486751198768616
1772648353227588000,3.490588134765625,0.07337002456188202,-0.36605116724967957,-0.42770329117774963
1772648353237592600,3.500592529296875,0.12450267374515533,-0.31971222162246704,-0.38456013798713684
1772648353257601800,3.520601806640625,0.23529008030891418,-0.23555639386177063,-0.33609065413475037
1772648353267606300,3.530606201171875,0.27949851751327515,-0.20945744216442108,-0.3456780016422272
1772648353277611000,3.540611083984375,0.31252169609069824,-0.1950763761997223,-0.3685811758041382
1772648353287615500,3.550615478515625,0.33063116669654846,-0.18282584846019745,-0.38828855752944946
1772648353297620000,3.560619873046875,0.3380880057811737,-0.16791217029094696,-0.3968106508255005
1772648353307624700,3.570624755859375,0.33222904801368713,-0.14980268478393555,-0.3957453966140747
1772648353317629200,3.580629150390625,0.33169642090797424,-0.12689951062202454,-0.3866906464099884
1772648353327633700,3.590633544921875,0.34021854400634766,-0.06777739524841309,-0.37497276067733765
1772648353337638400,3.600638427734375,0.34554484486579895,-0.05020054429769516,-0.3542001247406006
1772648353347643000,3.610642822265625,0.3625890612602234,0.00519315991550684,-0.34141695499420166
1772648353357647400,3.6206474609375,0.3759048581123352,0.021704744547605515,-0.3243727385997772
1772648353367652000,3.630652099609375,0.3940143585205078,0.013182636350393295,-0.295610636472702
1772648353377656600,3.640656494140625,0.41585224866867065,0.00945421401411295,-0.2732400894165039
1772648353387661000,3.6506611328125,0.43982067704200745,0.007856318727135658,-0.24660851061344147
1772648353397665500,3.66066552734375,0.45846277475357056,0.012650004588067532,-0.21891164779663086
1772648353407670300,3.670670166015625,0.4739091098308563,0.013182636350393295,-0.18162743747234344
1772648353427679200,3.69067919921875,0.4850943684577942,-0.02516685053706169,-0.1129179298877716
1772648353437684000,3.70068408203125,0.4787027835845947,-0.06404896825551987,-0.08415582031011581
1772648353447688400,3.7106884765625,0.4568648934364319,-0.12317109853029251,-0.06338317692279816
1772648353457693000,3.72069287109375,0.4174501299858093,-0.20306585729122162,-0.0612526535987854
1772648353467697700,3.73069775390625,0.3721764385700226,-0.25313323736190796,-0.07936213165521622
1772648353477702100,3.7407021484375,0.3380880057811737,-0.265383780002594,-0.10173266381025314
1772648353487706600,3.75070654296875,0.3103911578655243,-0.2366216629743576,-0.1225053071975708
1772648353497711400,3.76071142578125,0.29281431436538696,-0.1897500604391098,-0.14966952800750732
1772648353507715800,3.7707158203125,0.2763027250766754,-0.12423636019229889,-0.18109479546546936
1772648353517720300,3.78072021484375,0.2629869282245636,-0.0762995034456253,-0.1880190074443817
1772648353527725000,3.79072509765625,0.2432795614004135,-0.05392896756529808,-0.20666112005710602
1772648353537729500,3.8007294921875,0.20439743995666504,-0.08162581920623779,-0.20026955008506775
1772648353547734000,3.810734130859375,0.16231952607631683,-0.11305109411478043,-0.20026955008506775
1772648353557738800,3.82073876953125,0.10799109190702438,-0.13701951503753662,-0.1938779652118683
1772648353567743000,3.830742919921875,0.04087948799133301,-0.10665950924158096,-0.19121479988098145
1772648353577747500,3.84074755859375,-0.04540685936808586,-0.0006657897029072046,-0.20186743140220642
1772648353587752000,3.850751953125,-0.13169319927692413,0.13622057437896729,-0.22530323266983032
1772648353597756400,3.86075634765625,-0.22543638944625854,0.30293431878089905,-0.27696850895881653
1772648353607760600,3.8707607421875,-0.341017484664917,0.4850943684577942,-0.32277485728263855
1772648353617765000,3.88076513671875,-0.45606595277786255,0.6613954901695251,-0.3163832724094391
1772648353627769600,3.89076953125,-0.5146554112434387,0.6938860416412354,-0.24873903393745422
1772648353637774000,3.900774169921875,-0.5663207173347473,0.6155891418457031,-0.11504846066236496
1772648353647778300,3.9107783203125,-0.583897590637207,0.5032038688659668,0.059654757380485535
1772648353657782800,3.92078271484375,-0.5961480736732483,0.3295659124851227,0.21997691690921783
1772648353677791700,3.940791748046875,-0.6526070833206177,0.010519477538764477,0.42184436321258545
1772648353697800400,3.960800537109375,-0.7207839488983154,-0.09281108528375626,0.4101264476776123
1772648353707805000,3.970804931640625,-0.7484807968139648,-0.20999006927013397,0.4324969947338104
1772648353717809400,3.980809326171875,-0.7511439323425293,-0.3037332594394684,0.4713791012763977
1772648353727813600,3.990813720703125,-0.7394260168075562,-0.4491417407989502,0.5352949500083923
1772648353737818000,4.000818115234375,-0.6829670667648315,-0.5972133874893188,0.5986781120300293
1772648353747822600,4.010822509765625,-0.5791038870811462,-0.6456828713417053,0.5970802307128906
1772648353757827000,4.0208271484375,-0.45659857988357544,-0.5892238616943359,0.4719117283821106
1772648353767831300,4.030831298828125,-0.33782169222831726,-0.48376280069351196,0.306263267993927
1772648353777835800,4.040835693359375,-0.2366216629743576,-0.341017484664917,0.17310532927513123
1772648353787840300,4.05084033203125,-0.15992268919944763,-0.1854890137910843,0.11717899143695831
1772648353797844700,4.0608447265625,-0.11251845955848694,-0.04913527891039848,0.15712636709213257
1772648353807849200,4.07084912109375,-0.09121318906545639,0.08508792519569397,0.2593916654586792
1772648353817853400,4.080853515625,-0.08748476952314377,0.14900372922420502,0.37923380732536316
1772648353827858000,4.09085791015625,-0.08961529284715652,0.16498269140720367,0.47350963950157166
1772648353837862400,4.1008623046875,-0.11518161743879318,0.18895111978054047,0.5251749157905579
1772648353847867000,4.110866943359375,-0.15033531188964844,0.17883111536502838,0.52837073802948
1772648353857871000,4.12087109375,-0.19188059866428375,0.18628795444965363,0.5097286105155945
1772648353867875600,4.13087548828125,-0.22863218188285828,0.19960375130176544,0.4900212287902832
1772648353877880000,4.140880126953125,-0.2605900764465332,0.24487745761871338,0.4756401777267456
1772648353887884500,4.150884521484375,-0.27284061908721924,0.3183806240558624,0.4767054319381714
1772648353897888800,4.160888671875,-0.26698166131973267,0.4078627824783325,0.48416227102279663
1772648353907893200,4.170893310546875,-0.2504700720310211,0.46805015206336975,0.4953475296497345
1772648353917897700,4.180897705078125,-0.21691428124904633,0.5063996315002441,0.4948149025440216
1772648353927902200,4.190902099609375,-0.18868480622768402,0.5293028354644775,0.4751075208187103
1772648353937906400,4.200906494140625,-0.16471637785434723,0.5127912163734436,0.44101908802986145
1772648353947911000,4.210910888671875,-0.15459637343883514,0.44940805435180664,0.4111917316913605
1772648353957915400,4.220915283203125,-0.15299847722053528,0.3434143364429474,0.3877559304237366
1772648353967919900,4.230919921875,-0.15353110432624817,0.22250692546367645,0.3664506673812866
1772648353977924000,4.240924072265625,-0.14607426524162292,0.12290477752685547,0.32756853103637695
1772648353987928600,4.250928466796875,-0.1279647797346115,0.05632580816745758,0.2498043030500412
1772648353997933000,4.26093310546875,-0.09174582362174988,0.04034685716032982,0.1507347822189331
1772648354007942100,4.270942138671875,-0.0390152782201767,0.07550055533647537,0.04207791015505791
1772648354017946600,4.280946533203125,-0.018775269389152527,0.1074584573507309,-0.06764423102140427
1772648354027951000,4.290951171875,0.003595264395698905,0.1122521460056305,-0.16618111729621887
1772648354037955300,4.300955322265625,0.02383527159690857,0.09893634915351868,-0.2396842986345291
1772648354047959800,4.310959716796875,0.04940159618854523,0.0834900289773941,-0.2828274667263031
1772648354057964300,4.32096435546875,0.07496792078018188,0.0744352862238884,-0.2929474711418152
1772648354067968800,4.33096875,0.09574055671691895,0.05685843899846077,-0.28069692850112915
1772648354077973500,4.340973388671875,0.10532793402671814,0.05259738489985466,-0.2636527121067047
1772648354087978000,4.35097802734375,0.11598056554794312,0.03235737979412079,-0.24660851061344147
1772648354097982500,4.360982421875,0.12716583907604218,0.025433165952563286,-0.2396842986345291
1772648354107987000,4.370987060546875,0.11012161523103714,0.03981422260403633,-0.2258358597755432
1772648354117991700,4.38099169921875,0.06697844713926315,0.079228974878788,-0.1832253336906433
1772648354127996200,4.39099609375,0.003595264395698905,0.1452753096818924,-0.13102741539478302
1772648354138000600,4.401000732421875,-0.04913527891039848,0.24967113137245178,-0.0798947662115097
1772648354148005000,4.411005126953125,-0.04274369776248932,0.2864227294921875,-0.043675802648067474
1772648354158009900,4.421009765625,-0.04167843610048294,0.2725743055343628,-0.02503369376063347
1772648354168014300,4.431014404296875,-0.036352116614580154,0.2155826985836029,-0.004793685860931873
1772648354178018800,4.441018798828125,-0.03741738200187683,0.1213068813085556,0.04474106803536415
1772648354188023300,4.451023193359375,-0.043808963149785995,0.025433165952563286,0.11930951476097107
1772648354198028000,4.461028076171875,-0.043276332318782806,-0.048602648079395294,0.23169481754302979
1772648354208032500,4.471032470703125,-0.035819485783576965,-0.09760477393865585,0.3723095953464508
1772648354218037000,4.481037109375,-0.044874224811792374,-0.13169319927692413,0.4862928092479706
1772648354228041700,4.491041748046875,-0.09813740104436874,-0.1380847841501236,0.5438170433044434
1772648354238046200,4.501046142578125,-0.1567268967628479,-0.11677951365709305,0.5986781120300293
1772648354248050700,4.51105078125,-0.1902827024459839,-0.07896266132593155,0.6572675704956055
1772648354258055200,4.52105517578125,-0.2557964026927948,-0.05712475627660751,0.608798086643219
1772648354278064400,4.541064453125,-0.27230799198150635,-0.020373165607452393,0.30945906043052673
1772648354288068900,4.55106884765625,-0.28136274218559265,-0.02569948323071003,0.2258358597755432
1772648354308078000,4.571078125,-0.12050793319940567,-0.14394372701644897,0.08894950151443481
1772648354318082600,4.58108251953125,-0.0954742431640625,-0.1050616130232811,-0.03355580195784569
1772648354328087000,4.591087158203125,-0.10080055892467499,0.020639481022953987,-0.12303793430328369
1772648354338091500,4.601091552734375,-0.08375634253025055,0.1314268857240677,-0.17044216394424438
1772648354348096300,4.61109619140625,-0.02569948323071003,0.14154689013957977,-0.1789642721414566
1772648354358100700,4.621100830078125,0.06111949309706688,0.05579317733645439,-0.14807163178920746
1772648354368105200,4.631105224609375,0.13888372480869293,-0.010785792954266071,-0.08894950151443481
1772648354378109700,4.641109619140625,0.19374480843544006,0.06910897046327591,-0.012783162295818329
1772648354388114400,4.651114501953125,0.22303955256938934,0.2917490601539612,0.07829686999320984
1772648354398119000,4.661118896484375,0.2502037584781647,0.5633912682533264,0.15020215511322021
1772648354408123400,4.671123291015625,0.28855326771736145,0.7524755001068115,0.18002954125404358
1772648354418128000,4.6811279296875,0.3237069547176361,0.7849660515785217,0.15925689041614532
1772648354428132600,4.691132568359375,0.32210904359817505,0.7428881525993347,0.10492845624685287
1772648354438137000,4.70113720703125,0.315717488527298,0.6486123204231262,0.012783162295818329
1772648354448141600,4.7111416015625,0.2997385263442993,0.5229112505912781,-0.13848425447940826
1772648354458146000,4.72114599609375,0.2869553565979004,0.3524690568447113,-0.3307643234729767
1772648354468150800,4.73115087890625,0.2731069326400757,0.14687320590019226,-0.48256438970565796
1772648354478155300,4.7411552734375,0.26085641980171204,-0.03049316816031933,-0.5677854418754578
1772648354488159700,4.75115966796875,0.21505007147789001,-0.1423458456993103,-0.6045370697975159
1772648354498164500,4.76116455078125,0.13355740904808044,-0.2707100808620453,-0.6050696969032288
1772648354508169000,4.7711689453125,0.02010684832930565,-0.40866172313690186,-0.5768402218818665
1772648354528178200,4.79117822265625,-0.20626164972782135,-0.504535436630249,-0.45113909244537354
1772648354538182700,4.8011826171875,-0.2648511528968811,-0.4858933389186859,-0.3526022136211395
1772648354548187100,4.811187255859375,-0.2802974581718445,-0.4358259439468384,-0.24927166104316711
1772648354558191600,4.821191650390625,-0.273905873298645,-0.3687143325805664,-0.15872426331043243
1772648354568196400,4.8311962890625,-0.22490376234054565,-0.30905959010124207,-0.10173266381025314
1772648354578200800,4.841200927734375,-0.14554162323474884,-0.22490376234054565,-0.08575371652841568
1772648354588205300,4.851205322265625,-0.06404896825551987,-0.15939006209373474,-0.10918951034545898
1772648354598210000,4.8612099609375,0.030759483575820923,-0.11198582500219345,-0.1603221595287323
1772648354608214500,4.871214599609375,0.11864372342824936,-0.08801739662885666,-0.23329271376132965
1772648354618219000,4.881218994140625,0.20759323239326477,-0.06884265691041946,-0.314785361289978
1772648354628223700,4.8912236328125,0.27843326330184937,-0.0858868733048439,-0.3866906464099884
1772648354638228200,4.901228271484375,0.33009853959083557,-0.06671212613582611,-0.4388885796070099
1772648354648233700,4.911233642578125,0.3476753830909729,-0.06458160281181335,-0.4431496262550354
1772648354658238200,4.92123828125,0.34714275598526,-0.07523423433303833,-0.4106590747833252
1772648354668242700,4.93124267578125,0.34021854400634766,-0.10080055892467499,-0.3632548749446869
1772648354678247400,4.941247314453125,0.3327617049217224,-0.1189100444316864,-0.3206443190574646
1772648354688252000,4.951251953125,0.3237069547176361,-0.13116057217121124,-0.2870885133743286
1772648354698256400,4.96125634765625,0.3285006284713745,-0.11571425199508667,-0.2684464156627655
1772648354708261000,4.97126123046875,0.33968591690063477,-0.09014792740345001,-0.26098957657814026
1772648354718265600,4.981265625,0.36471959948539734,-0.06671212613582611,-0.26418536901474
1772648354728270000,4.99127001953125,0.4046669900417328,-0.031025800853967667,-0.27963167428970337
1772648354738274800,5.00127490234375,0.43928804993629456,-0.003861580276861787,-0.29454535245895386
1772648354748279300,5.011279296875,0.4659196436405182,0.0030626326333731413,-0.3020022213459015
1772648354758283800,5.02128369140625,0.4840291142463684,-0.026764746755361557,-0.28921905159950256
1772648354768288500,5.03128857421875,0.4893554449081421,-0.06298370659351349,-0.25672850012779236
1772648354778293000,5.04129296875,0.4936164915561676,-0.13062794506549835,-0.2162484973669052
1772648354788297700,5.051297607421875,0.49627965688705444,-0.1950763761997223,-0.16884426772594452
1772648354798302200,5.06130224609375,0.49627965688705444,-0.26378586888313293,-0.12889689207077026
1772648354808306700,5.071306640625,0.4936164915561676,-0.31545117497444153,-0.10546109080314636
1772648354818311400,5.0813115234375,0.4797680675983429,-0.35752907395362854,-0.09800424426794052
1772648354828316000,5.09131591796875,0.46378910541534424,-0.35752907395362854,-0.10759161412715912
1772648354838320400,5.1013203125,0.4318312108516693,-0.3399522304534912,-0.12516845762729645
1772648354848325000,5.1113251953125,0.3940143585205078,-0.30160272121429443,-0.14540846645832062
1772648354858329600,5.12132958984375,0.34554484486579895,-0.2792322039604187,-0.16138742864131927
1772648354868334000,5.131333984375,0.290683776140213,-0.31065747141838074,-0.1693768948316574
1772648354878338800,5.1413388671875,0.21398481726646423,-0.34847432374954224,-0.17257268726825714
1772648354888343300,5.15134326171875,0.12876373529434204,-0.3825627565383911,-0.1422126740217209
1772648354898347800,5.16134765625,0.04727106913924217,-0.3793669641017914,-0.11984214931726456
1772648354908352500,5.1713525390625,-0.035819485783576965,-0.32450589537620544,-0.11504846066236496
1772648354918357000,5.18135693359375,-0.12583425641059875,-0.24727429449558258,-0.12410320341587067
1772648354928361700,5.19136181640625,-0.21158796548843384,-0.1284974068403244,-0.14700636267662048
1772648354938366200,5.2013662109375,-0.29095008969306946,0.022237375378608704,-0.14540846645832062
1772648354948370700,5.21137060546875,-0.37510591745376587,0.18841849267482758,-0.12836425006389618
1772648354958375400,5.22137548828125,-0.4390217363834381,0.29387956857681274,-0.11504846066236496
1772648354968380000,5.2313798828125,-0.5540701746940613,0.3237069547176361,-0.08788423985242844
1772648354978384400,5.24138427734375,-0.6265081167221069,0.26884588599205017,-0.011717898771166801
1772648354988389000,5.25138916015625,-0.6733797192573547,0.10426266491413116,0.0756337121129036
1772648354998393600,5.2613935546875,-0.7127944827079773,-0.06138581037521362,0.1693768948316574
1772648355008398000,5.271398193359375,-0.7516765594482422,-0.20253323018550873,0.24341271817684174
1772648355018402800,5.28140283203125,-0.7740471363067627,-0.27603641152381897,0.2870885133743286
1772648355028407300,5.2914072265625,-0.7740471363067627,-0.31545117497444153,0.28921905159950256
1772648355038411800,5.301411865234375,-0.7815039753913879,-0.3463438153266907,0.2838927209377289
1772648355048416500,5.31141650390625,-0.8086681962013245,-0.40493330359458923,0.28602325916290283
1772648355058421000,5.3214208984375,-0.8278428912162781,-0.5263733267784119,0.3025348484516144
1772648355068425700,5.33142578125,-0.8012113571166992,-0.672314465045929,0.32384011149406433
1772648355078430700,5.3414306640625,-0.714392364025116,-0.7878955602645874,0.34141695499420166
1772648355088435500,5.351435546875,-0.6009417772293091,-0.8161250352859497,0.3195790648460388
1772648355098440200,5.361440185546875,-0.4720448851585388,-0.7474155426025391,0.2311621904373169
1772648355108445000,5.37144482421875,-0.363920658826828,-0.6371607184410095,0.13528846204280853
1772648355118450000,5.381449951171875,-0.2802974581718445,-0.4683164656162262,0.07350318133831024
1772648355128454700,5.39145458984375,-0.2323606014251709,-0.29521116614341736,0.08202528953552246
1772648355138459400,5.40145947265625,-0.19720691442489624,-0.10772477090358734,0.1693768948316574
1772648355148464400,5.41146435546875,-0.17909742891788483,0.03502053767442703,0.29507800936698914
1772648355158469000,5.42146923828125,-0.19827216863632202,0.10692582279443741,0.3968106508255005
1772648355168473900,5.431473876953125,-0.2222405970096588,0.1687111109495163,0.45966121554374695
1772648355178478800,5.441478759765625,-0.26165536046028137,0.19321216642856598,0.48735806345939636
1772648355188483600,5.451483642578125,-0.27177536487579346,0.1969406008720398,0.49215173721313477
1772648355198488300,5.46148828125,-0.27603641152381897,0.2432795614004135,0.49641281366348267
1772648355208493000,5.4714931640625,-0.27177536487579346,0.301336407661438,0.49801069498062134
1772648355218498000,5.481498046875,-0.24461114406585693,0.40306907892227173,0.49747806787490845
1772648355228502800,5.491502685546875,-0.20626164972782135,0.5175849199295044,0.49641281366348267
1772648355238507500,5.501507568359375,-0.15885742008686066,0.6091975569725037,0.49321702122688293
1772648355248512500,5.511512451171875,-0.1290300488471985,0.6821681261062622,0.4793685972690582
1772648355258517200,5.521517333984375,-0.09334371984004974,0.7103976011276245,0.45060646533966064
1772648355268522000,5.53152197265625,-0.0576573871076107,0.708267092704773,0.4042675197124481
1772648355278527000,5.54152685546875,-0.02516685053706169,0.6880270838737488,0.3334274888038635
1772648355288531700,5.55153173828125,-0.0027963167522102594,0.6395576000213623,0.26205483078956604
1772648355298536400,5.561536376953125,0.01957421749830246,0.5543364882469177,0.20399796962738037
1772648355308541200,5.571541259765625,0.030759483575820923,0.44994068145751953,0.15233267843723297
1772648355318546200,5.581546142578125,0.04301001504063606,0.35886064171791077,0.10972214490175247
1772648355328551000,5.591551025390625,0.06378265470266342,0.301336407661438,0.060187388211488724
1772648355338555600,5.6015556640625,0.10905635356903076,0.2810963988304138,-0.011185267008841038
1772648355348560600,5.611560546875,0.13195951282978058,0.2922816872596741,-0.1081242486834526
1772648355358565400,5.6215654296875,0.1447426825761795,0.29867327213287354,-0.20559586584568024
1772648355368570000,5.631570068359375,0.1591237336397171,0.2965427339076996,-0.2929474711418152
1772648355378575000,5.6415751953125,0.1729721575975418,0.2965427339076996,-0.35633066296577454
1772648355388579800,5.651579833984375,0.19054901599884033,0.31198906898498535,-0.40213698148727417
1772648355398584600,5.66158447265625,0.20333217084407806,0.31784799695014954,-0.4298338294029236
1772648355408589300,5.67158935546875,0.20493006706237793,0.34714275598526,-0.4447475075721741
1772648355418594300,5.68159423828125,0.20333217084407806,0.34075117111206055,-0.4479433000087738
1772648355428599000,5.69159912109375,0.22144165635108948,0.33649012446403503,-0.44155174493789673
1772648355438603800,5.701603759765625,0.23635534942150116,0.33222904801368713,-0.4303664565086365
1772648355448608800,5.71160888671875,0.2198437601327896,0.31625011563301086,-0.4016043543815613
1772648355458613500,5.721613525390625,0.15646058320999146,0.33595749735832214,-0.36432012915611267
1772648355468618200,5.7316181640625,0.06111949309706688,0.3657848536968231,-0.3259706497192383
1772648355478623200,5.741623291015625,-0.04114580526947975,0.3716438114643097,-0.2695116698741913
1772648355488628000,5.7516279296875,-0.1045289859175682,0.38336169719696045,-0.19228006899356842
1772648355498632700,5.7616328125,-0.1567268967628479,0.4328964650630951,-0.09214529395103455
1772648355508637400,5.771637451171875,-0.18868480622768402,0.4573975205421448,0.007989476434886456
1772648355518642400,5.781642333984375,-0.19720691442489624,0.41159120202064514,0.09534108638763428
1772648355528647200,5.791647216796875,-0.18868480622768402,0.2720416784286499,0.164583221077919
1772648355538652000,5.80165185546875,-0.17643427848815918,0.13675320148468018,0.21944428980350494
1772648355548656600,5.81165673828125,-0.15832479298114777,0.058988966047763824,0.26684850454330444
1772648355558661600,5.82166162109375,-0.1476721614599228,0.03874896094202995,0.3105243146419525
1772648355568666000,5.831666015625,-0.16258583962917328,0.04354264587163925,0.37071171402931213
1772648355578670800,5.8416708984375,-0.2137184888124466,0.0552605465054512,0.44048646092414856
1772648355588675600,5.851675537109375,-0.23395849764347076,0.05366265028715134,0.4772380590438843
1772648355598680300,5.861680419921875,-0.25260061025619507,0.06431528180837631,0.47777068614959717
1772648355608685000,5.87168505859375,-0.254731148481369,0.06591317802667618,0.5225117802619934
1772648355618689500,5.881689453125,-0.2222405970096588,0.01531316339969635,0.6242444515228271
1772648355628694300,5.8916943359375,-0.1663142740726471,-0.044341593980789185,0.6391581296920776
1772648355638699000,5.901698974609375,-0.1609879434108734,-0.051798440515995026,0.5241096615791321
1772648355648703700,5.911703857421875,-0.11092056334018707,-0.018775269389152527,0.3435474932193756
1772648355658708500,5.92170849609375,-0.05446159839630127,0.06165212765336037,0.207726389169693
1772648355668713000,5.931712890625,-0.013981583528220654,0.05366265028715134,0.1938779652118683
1772648355678717700,5.9417177734375,0.08295739442110062,-0.00013315794058144093,0.19920428097248077
1772648355688722400,5.951722412109375,0.18841849267482758,-0.043808963149785995,0.13369056582450867
1772648355698727200,5.96172705078125,0.1969406008720398,-0.004394211806356907,0.039414748549461365
1772648355708732000,5.97173193359375,0.21025638282299042,0.03608580306172371,-0.05006738752126694
1772648355718736400,5.981736328125,0.2203763872385025,0.033955276012420654,-0.11877688020467758
1772648355728741000,5.9917412109375,0.248605877161026,0.0003994738217443228,-0.14860425889492035
1772648355738745900,6.001745849609375,0.2970753610134125,-0.016112111508846283,-0.15765899419784546
1772648355748750600,6.01175048828125,0.3476753830909729,0.025433165952563286,-0.14807163178920746
1772648355758755000,6.021755126953125,0.38868802785873413,0.14207951724529266,-0.0894821360707283
1772648355768759800,6.031759765625,0.42916804552078247,0.29760798811912537,0.005326317623257637
1772648355778764500,6.0417646484375,0.4467448890209198,0.42064592242240906,0.0894821360707283
1772648355798774000,6.06177392578125,0.3940143585205078,0.3908185660839081,0.04953475296497345
1772648355808778800,6.07177880859375,0.3519364297389984,0.2491385042667389,-0.05752423033118248
1772648355818783200,6.081783203125,0.2816290557384491,0.030226852744817734,-0.1885516494512558
1772648355828788000,6.0917880859375,0.2065279632806778,-0.21478375792503357,-0.3115895688533783
1772648355838792700,6.101792724609375,0.14367741346359253,-0.42357540130615234,-0.41758328676223755
1772648355848797400,6.11179736328125,0.08029423654079437,-0.588691234588623,-0.4996086061000824
1772648355858802000,6.121802001953125,-0.0027963167522102594,-0.7127944827079773,-0.549143373966217
1772648355868806700,6.131806640625,-0.10772477090358734,-0.786297619342804,-0.5688506960868835
1772648355878811400,6.141811279296875,-0.199337437748909,-0.8033418655395508,-0.554469645023346
1772648355888816000,6.151816162109375,-0.2595248222351074,-0.7671229243278503,-0.5107938647270203
1772648355898820900,6.16182080078125,-0.30053746700286865,-0.7095986604690552,-0.43196436762809753
1772648355908825300,6.171825439453125,-0.30586379766464233,-0.6456828713417053,-0.32810115814208984
1772648355918830000,6.181830078125,-0.28136274218559265,-0.5833649635314941,-0.23222744464874268
1772648355928834800,6.191834716796875,-0.23129534721374512,-0.508263885974884,-0.1608547866344452
1772648355938839600,6.201839599609375,-0.1572595238685608,-0.4065311849117279,-0.11504846066236496
1772648355948844000,6.211843994140625,-0.047537386417388916,-0.2749711573123932,-0.1086568832397461
1772648355958848800,6.221848876953125,0.07177212834358215,-0.15885742008686066,-0.14061477780342102
1772648355968853500,6.231853515625,0.20439743995666504,-0.11784477531909943,-0.19654111564159393
1772648355978858200,6.241858154296875,0.3343595862388611,-0.08855003118515015,-0.283360093832016
1772648355988863000,6.251863037109375,0.4515385627746582,-0.052863702178001404,-0.3909517228603363
1772648355998867700,6.26186767578125,0.5245091319084167,-0.09867003560066223,-0.468183308839798
1772648356008872200,6.2718720703125,0.5596628189086914,-0.14554162323474884,-0.5044022798538208
1772648356018877000,6.281876953125,0.5554017424583435,-0.21584902703762054,-0.49641281366348267
1772648356028881700,6.291881591796875,0.5351617336273193,-0.2696448266506195,-0.4676506817340851
1772648356038886400,6.301886474609375,0.4978775382041931,-0.2925480008125305,-0.4388885796070099
1772648356048891000,6.311890869140625,0.4664522707462311,-0.3085269629955292,-0.4095938205718994
1772648356058895600,6.3218955078125,0.43502700328826904,-0.29041746258735657,-0.3829622268676758
1772648356068900400,6.331900390625,0.4131890833377838,-0.24940481781959534,-0.3573959171772003
1772648356078905000,6.341905029296875,0.41105857491493225,-0.20572902262210846,-0.3355579972267151
1772648356088909800,6.351909912109375,0.4099932909011841,-0.14341109991073608,-0.31318747997283936
1772648356098914600,6.36191455078125,0.4185154139995575,-0.10719214379787445,-0.283360093832016
1772648356108919300,6.371919189453125,0.4286354184150696,-0.07523423433303833,-0.24714113771915436
1772648356118923800,6.381923828125,0.41638487577438354,-0.043808963149785995,-0.2119874358177185
1772648356128928500,6.391928466796875,0.3897532820701599,-0.040613170713186264,-0.16138742864131927
1772648356138933200,6.401933349609375,0.3625890612602234,-0.03262369707226753,-0.12836425006389618
1772648356148938000,6.41193798828125,0.3087932765483856,-0.05499422922730446,-0.10439582169055939
1772648356158942700,6.421942626953125,0.26884588599205017,-0.12104056775569916,-0.08681897819042206
1772648356168947500,6.431947509765625,0.22836586833000183,-0.17963005602359772,-0.07243791967630386
1772648356178952200,6.4419521484375,0.21345217525959015,-0.23342587053775787,-0.06338317692279816
1772648356188957000,6.45195703125,0.20546270906925201,-0.24301324784755707,-0.06338317692279816
1772648356198961700,6.461961669921875,0.20546270906925201,-0.2174469232559204,-0.0756337121129036
1772648356208966100,6.471966064453125,0.2012016475200653,-0.16311848163604736,-0.10013477504253387
1772648356218971000,6.481970947265625,0.20439743995666504,-0.09494160860776901,-0.13528846204280853
1772648356228975600,6.4919755859375,0.19800585508346558,-0.03368895873427391,-0.16351795196533203
1772648356238980400,6.50198046875,0.18628795444965363,-0.019307902082800865,-0.19014954566955566
1772648356248985000,6.511985107421875,0.15273216366767883,-0.028895273804664612,-0.19121479988098145
1772648356258989800,6.52198974609375,0.11970898509025574,-0.05925528332591057,-0.19441059231758118
1772648356268994600,6.53199462890625,0.06378265470266342,-0.08375634253025055,-0.20026955008506775
1772648356278999300,6.541999267578125,-0.011851056478917599,-0.09334371984004974,-0.20399796962738037
1772648356289003800,6.552003662109375,-0.09867003560066223,-0.011318424716591835,-0.1880190074443817
1772648356299008500,6.562008544921875,-0.18655426800251007,0.13195951282978058,-0.19707375764846802
1772648356309013200,6.57201318359375,-0.2802974581718445,0.2954774796962738,-0.24288007616996765
1772648356319018000,6.58201806640625,-0.37031224370002747,0.4557996392250061,-0.27057692408561707
1772648356329022700,6.592022705078125,-0.49494805932044983,0.6070670485496521,-0.23702113330364227
1772648356339027500,6.60202734375,-0.5993438959121704,0.6347638964653015,-0.12889689207077026
1772648356349032200,6.6120322265625,-0.6179860234260559,0.5175849199295044,0.013848425820469856
1772648356359037000,6.622036865234375,-0.6270407438278198,0.30293431878089905,0.1651158481836319
1772648356369041700,6.632041748046875,-0.647280752658844,0.07763107866048813,0.31318747997283936
1772648356379046100,6.642046142578125,-0.693087100982666,-0.12636688351631165,0.4426169991493225
1772648356389051000,6.65205078125,-0.7309039235115051,-0.24248060584068298,0.5171854496002197
1772648356399055600,6.6620556640625,-0.7511439323425293,-0.288286954164505,0.5347622632980347
1772648356409060400,6.672060302734375,-0.7580681443214417,-0.36232274770736694,0.5640570521354675
1772648356419065000,6.682065185546875,-0.7692534327507019,-0.4209122359752655,0.6109286546707153
1772648356429069800,6.69206982421875,-0.7719165682792664,-0.5764407515525818,0.6833665370941162
1772648356439074600,6.702074462890625,-0.7287734150886536,-0.7367628812789917,0.7355644702911377
1772648356449079300,6.712079345703125,-0.6238449811935425,-0.8310387134552002,0.74248868227005
1772648356459083800,6.722083740234375,-0.4917522668838501,-0.8209186792373657,0.658332884311676
1772648356469088500,6.732088623046875,-0.3735080361366272,-0.7037397027015686,0.4953475296497345
1772648356479093200,6.74209326171875,-0.2701774537563324,-0.49814385175704956,0.3195790648460388
1772648356489098000,6.752097900390625,-0.19081532955169678,-0.2840258777141571,0.20985691249370575
1772648356499102700,6.762102783203125,-0.14447636902332306,-0.052863702178001404,0.2029327005147934
1772648356509107500,6.772107421875,-0.11677951365709305,0.18469005823135376,0.2881537973880768
1772648356519112200,6.7821123046875,-0.12476898729801178,0.3748396039009094,0.4202464520931244
1772648356529117000,6.792116943359375,-0.15779216587543488,0.47231122851371765,0.5363602042198181
1772648356539121700,6.80212158203125,-0.20146796107292175,0.4803006947040558,0.6061349511146545
1772648356549126100,6.812126220703125,-0.24088270962238312,0.4893554449081421,0.6253097057342529
1772648356559131100,6.822131103515625,-0.2802974581718445,0.49042069911956787,0.6103960275650024
1772648356569136400,6.832136474609375,-0.3127880096435547,0.4568648934364319,0.5757749080657959
1772648356579141600,6.8421416015625,-0.35167011618614197,0.4046669900417328,0.5566002130508423
1772648356589147100,6.852147216796875,-0.38043224811553955,0.4131890833377838,0.5656549334526062
1772648356599152400,6.86215234375,-0.39534592628479004,0.49201858043670654,0.5826991200447083
1772648356609157600,6.87215771484375,-0.3692469596862793,0.6022733449935913,0.5944170355796814
1772648356619163100,6.8821630859375,-0.32823431491851807,0.7013428807258606,0.5981454849243164
1772648356629168400,6.89216845703125,-0.2936132550239563,0.7514102458953857,0.5896233320236206
1772648356639173600,6.902173583984375,-0.2552637755870819,0.741290271282196,0.5576654672622681
1772648356649179100,6.91217919921875,-0.2275669276714325,0.6912228465080261,0.503337025642395
1772648356659184400,6.922184326171875,-0.1950763761997223,0.5713807344436646,0.4420843720436096
1772648356669189600,6.932189697265625,-0.16524900496006012,0.4195806682109833,0.37497276067733765
1772648356679195100,6.942195068359375,-0.13648688793182373,0.2826943099498749,0.30892643332481384
1772648356689200400,6.952200439453125,-0.11571425199508667,0.1591237336397171,0.2311621904373169
1772648356699205600,6.96220556640625,-0.09867003560066223,0.09893634915351868,0.12463583052158356
1772648356709211100,6.972211181640625,-0.08269108086824417,0.08029423654079437,0.006391581147909164
1772648356719216400,6.98221630859375,-0.07257107645273209,0.08242476731538773,-0.11824425309896469
1772648356729221600,6.9922216796875,-0.06511422991752625,0.09361003339290619,-0.22956429421901703
1772648356739227100,7.00222705078125,-0.05552686005830765,0.10479529947042465,-0.31744852662086487
1772648356749232400,7.012232421875,-0.036352116614580154,0.12503530085086823,-0.3723095953464508
1772648356759237600,7.022237548828125,-0.014514215290546417,0.15273216366767883,-0.3952127695083618
1772648356769243100,7.0322431640625,0.013182636350393295,0.182559534907341,-0.4005391001701355
1772648356779248400,7.042248291015625,0.04087948799133301,0.22889849543571472,-0.3952127695083618
1772648356789253600,7.052253662109375,0.05952160060405731,0.2619216740131378,-0.37923380732536316
1772648356799259000,7.0622587890625,0.07816371321678162,0.29334694147109985,-0.3637875020503998
1772648356809264400,7.072264404296875,0.10532793402671814,0.3141195774078369,-0.34621065855026245
1772648356819269600,7.08226953125,0.13355740904808044,0.3045322000980377,-0.3153179883956909
1772648356829275000,7.09227490234375,0.15539531409740448,0.28802061080932617,-0.26418536901474
1772648356839280400,7.1022802734375,0.15219952166080475,0.2949448525905609,-0.21145480871200562
1772648356849285600,7.11228564453125,0.1591237336397171,0.271509051322937,-0.1699095368385315
1772648356869296400,7.13229638671875,0.1964079588651657,0.26565009355545044,-0.10599371790885925
1772648356879301600,7.142301513671875,0.2198437601327896,0.2624543011188507,-0.06338317692279816
1772648356889307100,7.15230712890625,0.2198437601327896,0.216115340590477,0.003728422336280346
1772648356899312400,7.1623125,0.20972375571727753,0.14580795168876648,0.0798947662115097
1772648356909317600,7.172317626953125,0.19374480843544006,0.04034685716032982,0.13741900026798248
1772648356919323100,7.1823232421875,0.16551531851291656,-0.0810931846499443,0.1603221595287323
1772648356929328400,7.192328369140625,0.11491530388593674,-0.18176059424877167,0.1507347822189331
1772648356939333600,7.202333740234375,0.017443690448999405,-0.20999006927013397,0.13795162737369537
1772648356949339000,7.2123388671875,-0.08855003118515015,-0.20253323018550873,0.14008215069770813
1772648356959344400,7.222344482421875,-0.14394372701644897,-0.21638165414333344,0.15712636709213257
1772648356969349600,7.232349609375,-0.13435636460781097,-0.20732691884040833,0.1890842765569687
1772648356979355000,7.24235498046875,-0.1290300488471985,-0.1759016364812851,0.21837902069091797
1772648356989360400,7.2523603515625,-0.20040270686149597,-0.18229322135448456,0.21997691690921783
1772648356999365600,7.26236572265625,-0.24248060584068298,-0.17909742891788483,0.2029327005147934
1772648357009371000,7.272370849609375,-0.2520679831504822,-0.14341109991073608,0.21358533203601837
1772648357019376400,7.28237646484375,-0.23502376675605774,-0.06191844120621681,0.2125200778245926
1772648357029381600,7.292381591796875,-0.17430374026298523,0.01904158480465412,0.12516845762729645
1772648357039387000,7.302386962890625,-0.06404896825551987,0.05206475406885147,0.014913689345121384
1772648357049392400,7.312392333984375,0.06644581258296967,0.09254477173089981,-0.06764423102140427
1772648357059397400,7.3223974609375,0.07230476289987564,0.10692582279443741,-0.07137265801429749
1772648357069401900,7.33240185546875,0.016378426924347878,0.01904158480465412,0.013848425820469856
1772648357079406000,7.342406005859375,0.012650004588067532,-0.09281108528375626,0.11185266822576523
1772648357089410600,7.35241064453125,0.06538055092096329,-0.15885742008686066,0.13209268450737
1772648357099415000,7.3624150390625,0.06910897046327591,-0.13701951503753662,0.12570109963417053
1772648357109419300,7.372419189453125,0.0648479163646698,-0.1002679318189621,0.1368863582611084
1772648357119423700,7.382423828125,0.04727106913924217,-0.09281108528375626,0.1693768948316574
1772648357129428200,7.39242822265625,0.04886896535754204,-0.0390152782201767,0.21411797404289246
1772648357139432400,7.402432373046875,0.09627319127321243,0.11970898509025574,0.24767376482486725
1772648357149437000,7.41243701171875,0.19587533175945282,0.3519364297389984,0.2822948396205902
1772648357159441400,7.42244140625,0.3620564341545105,0.5926859974861145,0.3307643234729767
1772648357169445600,7.432445556640625,0.5213133096694946,0.7657912969589233,0.3669832944869995
1772648357179450000,7.4424501953125,0.59002286195755,0.804673433303833,0.30945906043052673
1772648357189454600,7.45245458984375,0.565521776676178,0.6997449994087219,0.13315793871879578
1772648357199458800,7.462458740234375,0.48775753378868103,0.5372923016548157,-0.05432844161987305
1772648357209463300,7.47246337890625,0.40200382471084595,0.2635195553302765,-0.16724637150764465
1772648357219467800,7.4824677734375,0.35992592573165894,-0.07363633811473846,-0.22530323266983032
1772648357229472000,7.492471923828125,0.3604585528373718,-0.3362238109111786,-0.2924148440361023
1772648357239476500,7.5024765625,0.3716438114643097,-0.5641902089118958,-0.37071171402931213
1772648357249481000,7.51248095703125,0.33222904801368713,-0.7213165760040283,-0.4628570079803467
1772648357259485200,7.522485107421875,0.21398481726646423,-0.7628618478775024,-0.5571328401565552
1772648357269489700,7.53248974609375,0.0696416050195694,-0.7282407879829407,-0.6162549257278442
1772648357279494100,7.542494140625,-0.052331071346998215,-0.7298386693000793,-0.6061349511146545
1772648357289498400,7.552498291015625,-0.15086795389652252,-0.7633944749832153,-0.5342296361923218
1772648357299502800,7.5625029296875,-0.2126532346010208,-0.7708513140678406,-0.4378232955932617
1772648357309507300,7.57250732421875,-0.23608903586864471,-0.7255775928497314,-0.3158506453037262
1772648357319511600,7.582511474609375,-0.22809955477714539,-0.6254428625106812,-0.18002954125404358
1772648357329516000,7.59251611328125,-0.19188059866428375,-0.4901543855667114,-0.07030738890171051
1772648357339520500,7.6025205078125,-0.11358372122049332,-0.3356911540031433,-0.012250530533492565
1772648357349524700,7.612524658203125,0.01584579423069954,-0.17323848605155945,-0.030892642214894295
1772648357359529200,7.622529296875,0.14634057879447937,-0.043808963149785995,-0.10972214490175247
1772648357369533700,7.63253369140625,0.26511746644973755,0.030226852744817734,-0.2034653276205063
1772648357379538200,7.6425380859375,0.3711111843585968,0.0834900289773941,-0.2732400894165039
1772648357389542400,7.65254248046875,0.43928804993629456,0.05685843899846077,-0.3057306408882141
1772648357399547000,7.662546875,0.47284385561943054,0.014247899875044823,-0.3057306408882141
1772648357409551400,7.67255126953125,0.45473435521125793,-0.06191844120621681,-0.2780337929725647
1772648357419555600,7.6825556640625,0.41159120202064514,-0.15086795389652252,-0.2455432415008545
1772648357429560000,7.69256005859375,0.357795387506485,-0.19773954153060913,-0.21997691690921783
1772648357439564300,7.702564208984375,0.31198906898498535,-0.21478375792503357,-0.20080217719078064
1772648357449568800,7.71256884765625,0.27470484375953674,-0.1902827024459839,-0.18748638033866882
1772648357459573200,7.7225732421875,0.26085641980171204,-0.14394372701644897,-0.1832253336906433
1772648357469577500,7.732577392578125,0.25553008913993835,-0.07789739221334457,-0.18002954125404358
1772648357479582000,7.74258203125,0.27097639441490173,-0.012916320003569126,-0.17204006016254425
1772648357489586400,7.75258642578125,0.2992058992385864,0.04354264587163925,-0.1597895324230194
1772648357499591000,7.7625908203125,0.31784799695014954,0.06697844713926315,-0.14061477780342102
1772648357509595100,7.77259521484375,0.3290332853794098,0.03289001062512398,-0.10705898702144623
1772648357519599600,7.782599609375,0.3439469635486603,-0.019840532913804054,-0.06498107314109802
1772648357529604000,7.79260400390625,0.3487406373023987,-0.11251845955848694,-0.023435797542333603
1772648357539608300,7.8026083984375,0.36365434527397156,-0.18282584846019745,-0.006924212910234928
1772648357549612800,7.81261279296875,0.3764374852180481,-0.25419852137565613,-0.011185267008841038
1772648357559617300,7.8226171875,0.37856802344322205,-0.30160272121429443,-0.03834948688745499
1772648357569622300,7.832622314453125,0.37430697679519653,-0.30107009410858154,-0.08788423985242844
1772648357579627300,7.842627197265625,0.3727090656757355,-0.2696448266506195,-0.1411474198102951
1772648357589632300,7.85263232421875,0.3583280146121979,-0.23395849764347076,-0.18695375323295593
1772648357599637200,7.86263720703125,0.3386206328868866,-0.17749953269958496,-0.21891164779663086
1772648357609642200,7.872642333984375,0.301336407661438,-0.12263846397399902,-0.24128219485282898
1772648357619647200,7.882647216796875,0.24647535383701324,-0.11997530609369278,-0.24927166104316711
1772648357629652200,7.89265234375,0.182559534907341,-0.13169319927692413,-0.25140219926834106
1772648357639657200,7.9026572265625,0.11598056554794312,-0.17749953269958496,-0.2396842986345291
1772648357649662200,7.912662109375,0.062184758484363556,-0.22170796990394592,-0.24288007616996765
1772648357659667200,7.922667236328125,-0.003861580276861787,-0.24727429449558258,-0.26525062322616577
1772648357669672200,7.932672119140625,-0.07470160722732544,-0.2755037844181061,-0.2790990471839905
1772648357679677200,7.94267724609375,-0.13915005326271057,-0.29148274660110474,-0.29028430581092834
1772648357689682200,7.95268212890625,-0.20572902262210846,-0.33462589979171753,-0.27537062764167786
1772648357699687200,7.962687255859375,-0.26804694533348083,-0.32344064116477966,-0.23808640241622925
1772648357709692200,7.972692138671875,-0.3314301073551178,-0.27284061908721924,-0.18482321500778198
1772648357719697400,7.982697509765625,-0.3788343369960785,-0.2126532346010208,-0.15712636709213257
1772648357729702400,7.992702392578125,-0.41771647334098816,-0.13169319927692413,-0.16192005574703217
1772648357739707100,8.00270703125,-0.4581964612007141,-0.14500899612903595,-0.12144003808498383
1772648357749712100,8.012712158203126,-0.481632262468338,-0.21105533838272095,-0.04846949130296707
1772648357759717000,8.022717041015625,-0.49441543221473694,-0.35167011618614197,0.03408843278884888
1772648357769722000,8.03272216796875,-0.5178512334823608,-0.5620596408843994,0.13422320783138275
1772648357779727000,8.04272705078125,-0.5338301658630371,-0.7026744484901428,0.21305270493030548
1772648357789732400,8.052732421875,-0.5551354289054871,-0.7756450176239014,0.23861902952194214
1772648357799737300,8.0627373046875,-0.571647047996521,-0.7974829077720642,0.21784639358520508
1772648357809742300,8.072742431640625,-0.5812343955039978,-0.7937544584274292,0.17576847970485687
1772648357819747300,8.082747314453124,-0.5956154465675354,-0.7703186869621277,0.12570109963417053
1772648357829752000,8.092751953125,-0.5945501923561096,-0.7831018567085266,0.10599371790885925
1772648357839757000,8.102757080078124,-0.5822996497154236,-0.8278428912162781,0.1177116185426712
1772648357849762300,8.11276220703125,-0.5673859715461731,-0.8970850706100464,0.1459411084651947
1772648357859767300,8.122767333984376,-0.5487438440322876,-0.9588703513145447,0.19494321942329407
1772648357869772300,8.132772216796875,-0.49281755089759827,-0.9402282238006592,0.23222744464874268
1772648357879777300,8.14277734375,-0.3980090916156769,-0.832103967666626,0.22849902510643005
1772648357889782300,8.1527822265625,-0.27124273777008057,-0.6856302618980408,0.1837579607963562
1772648357899787300,8.162787353515625,-0.15992268919944763,-0.5157207250595093,0.12303793430328369
1772648357909792300,8.172792236328124,-0.060320548713207245,-0.3213101029396057,0.0894821360707283
1772648357919797200,8.18279736328125,0.007856318727135658,-0.14021530747413635,0.1129179298877716
1772648357929802200,8.19280224609375,0.02010684832930565,-0.05126580595970154,0.1890842765569687
1772648357939807200,8.20280712890625,-0.0027963167522102594,0.026498429477214813,0.2929474711418152
1772648357949812200,8.212812255859374,-0.027297377586364746,0.11065424978733063,0.3728422224521637
1772648357959817200,8.222817138671875,-0.06884265691041946,0.1782984882593155,0.38935381174087524
1772648357969822200,8.232822265625,-0.11731214821338654,0.2432795614004135,0.37071171402931213
1772648357979827200,8.2428271484375,-0.14927005767822266,0.28802061080932617,0.3632548749446869
1772648357989832200,8.252832275390626,-0.1759016364812851,0.3487406373023987,0.3771032989025116
1772648357999837200,8.262837158203125,-0.1988048106431961,0.39294907450675964,0.4053327739238739
1772648358009842200,8.27284228515625,-0.20040270686149597,0.44035330414772034,0.42770329117774963
1772648358019847200,8.28284716796875,-0.17856480181217194,0.47284385561943054,0.43516016006469727
1772648358029852200,8.29285205078125,-0.15086795389652252,0.46219122409820557,0.42131173610687256
1772648358039857200,8.302857177734374,-0.11145319789648056,0.41159120202064514,0.3861580193042755
1772648358049862100,8.312862060546875,-0.06884265691041946,0.33649012446403503,0.3403517007827759
1772648358059867100,8.3228671875,-0.02569948323071003,0.2613890469074249,0.2961432635784149
1772648358069871900,8.332871826171875,0.014780531637370586,0.1820269078016281,0.25193482637405396
1772648358079876600,8.342876708984376,0.05206475406885147,0.10532793402671814,0.18588848412036896
1772648358089881600,8.352881591796875,0.0882837176322937,0.020639481022953987,0.09693898260593414
1772648358099886300,8.36288623046875,0.11970898509025574,-0.06511422991752625,0.0026631588116288185
1772648358109891000,8.37289111328125,0.14261215925216675,-0.1471395194530487,-0.08149266242980957
1772648358119896000,8.38289599609375,0.1585911065340042,-0.23342587053775787,-0.15020215511322021
1772648358129900800,8.39290087890625,0.17563532292842865,-0.3207774758338928,-0.20559586584568024
1772648358139905800,8.40290576171875,0.20226691663265228,-0.38469329476356506,-0.2396842986345291
1772648358149910500,8.41291064453125,0.23529008030891418,-0.4171838164329529,-0.24873903393745422
1772648358159915300,8.422915283203125,0.2539321780204773,-0.4304996132850647,-0.24660851061344147
1772648358169920300,8.432920166015625,0.25073641538619995,-0.43689119815826416,-0.24341271817684174
1772648358179925000,8.442925048828124,0.23315955698490143,-0.4310322403907776,-0.24341271817684174
1772648358189929700,8.4529296875,0.21185427904129028,-0.42836910486221313,-0.22477060556411743
1772648358199934700,8.462934814453124,0.19853848218917847,-0.41931435465812683,-0.1789642721414566
1772648358209939500,8.472939453125,0.1878858506679535,-0.39534592628479004,-0.12357056885957718
1772648358219944400,8.4829443359375,0.1921469122171402,-0.3783017098903656,-0.09480845183134079
1772648358229949200,8.49294921875,0.20386481285095215,-0.3601922392845154,-0.10120003670454025
1772648358239954200,8.5029541015625,0.2203763872385025,-0.33249539136886597,-0.12836425006389618
1772648358249959000,8.512958984375,0.23635534942150116,-0.2946785092353821,-0.14274531602859497
1772648358259963600,8.522963623046875,0.2502037584781647,-0.2659164071083069,-0.141680046916008
1772648358269968600,8.53296875,0.25499746203422546,-0.2600574493408203,-0.12090741097927094
1772648358279973400,8.542973388671875,0.2576606273651123,-0.2978743016719818,-0.10120003670454025
1772648358289978000,8.55297802734375,0.22836586833000183,-0.3458111584186554,-0.07510107755661011
1772648358299983000,8.562983154296875,0.18575532734394073,-0.3655185401439667,-0.02503369376063347
1772648358309987800,8.57298779296875,0.14580795168876648,-0.3820301294326782,0.015446321107447147
1772648358319992600,8.58299267578125,0.09254477173089981,-0.38469329476356506,0.039414748549461365
1772648358329997600,8.59299755859375,0.05952160060405731,-0.35646381974220276,0.059122126549482346
1772648358340002300,8.603002197265624,0.04514054208993912,-0.29627642035484314,0.08362318575382233
1772648358350007300,8.61300732421875,0.058988966047763824,-0.21584902703762054,0.10173266381025314
1772648358360012000,8.623011962890626,0.08668582141399384,-0.11677951365709305,0.10705898702144623
1772648358370016800,8.633016845703125,0.11598056554794312,-0.0390152782201767,0.09374319016933441
1772648358380021800,8.643021728515626,0.14314478635787964,0.004660528153181076,0.06285054981708527
1772648358390026500,8.653026611328125,0.15752583742141724,0.011584741063416004,0.022370534017682076
1772648358400031500,8.663031494140625,0.1692437380552292,-0.013981583528220654,-0.015446321107447147
1772648358410036200,8.6730361328125,0.1591237336397171,-0.03262369707226753,-0.03994738310575485
1772648358420041000,8.683041015625,0.16125427186489105,-0.022503692656755447,-0.043143171817064285
1772648358430046000,8.6930458984375,0.1644500494003296,-0.026764746755361557,-0.038882117718458176
1772648358440050700,8.70305078125,0.19001637399196625,-0.052863702178001404,-0.03142527490854263
1772648358450055700,8.7130556640625,0.17190690338611603,-0.056059494614601135,-0.03142527490854263
1772648358460060400,8.723060302734375,0.16658058762550354,-0.03315632790327072,-0.021305270493030548
1772648358470065200,8.733065185546875,0.17723321914672852,-0.05020054429769516,-0.02450106106698513
1772648358480070100,8.743070068359375,0.13728584349155426,-0.04274369776248932,-0.02876211516559124
1772648358490075000,8.753074951171875,0.11811109632253647,-0.02996053732931614,-0.03249053657054901
1772648358500079600,8.76307958984375,0.08881634473800659,-0.0624510757625103,-0.04953475296497345
1772648358510084600,8.773084716796875,0.06804370880126953,-0.06777739524841309,-0.06657896935939789
1772648358520089300,8.78308935546875,0.054727911949157715,-0.07896266132593155,-0.07829686999320984
1772648358530094000,8.793093994140625,0.05206475406885147,-0.07416897267103195,-0.06711160391569138
1772648358540099000,8.80309912109375,0.0414121188223362,-0.06831002235412598,-0.0378168560564518
1772648358550103800,8.813103759765625,0.046205803751945496,-0.04966791346669197,-0.01704421639442444
1772648358560108500,8.823108642578125,0.05685843899846077,-0.05552686005830765,-0.00852210819721222
1772648358570112800,8.83311279296875,0.07070686668157578,-0.043276332318782806,0.004793685860931873
1772648358580116700,8.84311669921875,0.08402266353368759,-0.02996053732931614,0.018642112612724304
1772648358590121000,8.853120849609375,0.10159950703382492,-0.031558431684970856,0.034621063619852066
1772648358600125200,8.863125244140624,0.08775108307600021,-0.03795001283288002,0.03621895983815193
1772648358610129200,8.873129150390625,0.07496792078018188,-0.028895273804664612,0.026098955422639847
1772648358620133400,8.88313330078125,0.05952160060405731,-0.03741738200187683,0.01012000348418951
1772648358630137600,8.8931376953125,0.05952160060405731,-0.05499422922730446,-0.001597895286977291
1772648358640141800,8.903141845703125,0.0366184338927269,-0.06937528401613235,-0.007456844672560692
1772648358650145800,8.913145751953126,0.02330263890326023,-0.023036323487758636,-0.003195790573954582
1772648358670154200,8.933154296875,0.02330263890326023,0.025965798646211624,-0.011185267008841038
1772648358690162400,8.953162353515625,0.038216330111026764,0.07177212834358215,-0.02024000696837902
1772648358700166700,8.963166748046875,0.054727911949157715,0.08721844851970673,-0.023968428373336792
1772648358710170600,8.973170654296876,0.06857633590698242,0.09840371459722519,-0.030892642214894295
1772648358720174800,8.9831748046875,0.08082687109708786,0.10639319568872452,-0.03994738310575485
1772648358730179000,8.993178955078125,0.09201213717460632,0.1074584573507309,-0.046871595084667206
1772648358740183000,9.00318310546875,0.09680582582950592,0.09893634915351868,-0.0564589649438858
1772648358750187300,9.013187255859375,0.0978710874915123,0.08295739442110062,-0.06338317692279816
1772648358760191500,9.02319140625,0.09627319127321243,0.07017423212528229,-0.059122126549482346
1772648358770195700,9.03319580078125,0.09414266049861908,0.0600542314350605,-0.051132649183273315
1772648358780199700,9.04319970703125,0.08934897929430008,0.046205803751945496,-0.04048001393675804
1772648358790204000,9.053203857421876,0.08615318685770035,0.03289001062512398,-0.03675159066915512
1772648358800208100,9.0632080078125,0.07816371321678162,0.030759483575820923,-0.038882117718458176
1772648358810212400,9.07321240234375,0.07283739000558853,0.04301001504063606,-0.04633896425366402
1772648358820216300,9.08321630859375,0.06857633590698242,0.062184758484363556,-0.052197910845279694
1772648358830220500,9.093220458984375,0.0648479163646698,0.09094687551259995,-0.05805686116218567
1772648358840224800,9.103224853515625,0.06591317802667618,0.11811109632253647,-0.06444844603538513
1772648358850228700,9.113228759765626,0.06431528180837631,0.13728584349155426,-0.06711160391569138
1772648358860233000,9.12323291015625,0.06538055092096329,0.14847110211849213,-0.06817686557769775
1772648358870237200,9.1332373046875,0.06591317802667618,0.14900372922420502,-0.07243791967630386
1772648358880241400,9.143241455078124,0.0696416050195694,0.14687320590019226,-0.07297055423259735
1772648358890245400,9.153245361328125,0.07177212834358215,0.13888372480869293,-0.070840023458004
1772648358900249600,9.16324951171875,0.07763107866048813,0.12716583907604218,-0.06764423102140427
1772648358910253800,9.17325390625,0.07976160943508148,0.11917635798454285,-0.066046342253685
1772648358920257800,9.1832578125,0.0834900289773941,0.12237215042114258,-0.066046342253685
1772648358930262000,9.193261962890626,0.08721844851970673,0.12237215042114258,-0.06977476179599762
1772648358940266200,9.203266357421874,0.08934897929430008,0.12769846618175507,-0.07350318133831024
1772648358950270200,9.213270263671875,0.09094687551259995,0.12982898950576782,-0.07243791967630386
1772648358960274400,9.2232744140625,0.09414266049861908,0.1303616166114807,-0.07030738890171051
1772648358970278700,9.233278564453125,0.09361003339290619,0.11864372342824936,-0.06924212723970413
1772648358980282600,9.24328271484375,0.09414266049861908,0.11012161523103714,-0.06924212723970413
1772648358990286800,9.253286865234376,0.09094687551259995,0.10213214159011841,-0.06764423102140427
1772648359000291000,9.263291015625,0.08775108307600021,0.09680582582950592,-0.07243791967630386
1772648359010295300,9.27329541015625,0.09094687551259995,0.09201213717460632,-0.08255792409181595
1772648359020299300,9.28329931640625,0.09414266049861908,0.06431528180837631,-0.09747160971164703
1772648359030303500,9.293303466796875,0.07550055533647537,0.08402266353368759,-0.09747160971164703
1772648359040307700,9.3033076171875,0.0739026591181755,0.08668582141399384,-0.09853687882423401
1772648359050312000,9.31331201171875,0.06804370880126953,0.0786963403224945,-0.10173266381025314
1772648359060316200,9.323316162109375,0.06538055092096329,0.07230476289987564,-0.10066740214824677
1772648359070320600,9.333320556640626,0.058456335216760635,0.0600542314350605,-0.09587371349334717
1772648359080325400,9.343325439453125,0.05259738489985466,0.05206475406885147,-0.08522108197212219
1772648359090330000,9.353330078125,0.05206475406885147,0.04407527670264244,-0.09001477062702179
1772648359100334600,9.36333447265625,0.0600542314350605,0.018508953973650932,-0.08841687440872192
1772648359110339300,9.37333935546875,0.05632580816745758,0.0073236869648098946,-0.0804273933172226
1772648359120343800,9.38334375,0.04833633080124855,0.03928159177303314,-0.06338317692279816
1772648359130348500,9.3933486328125,0.057923704385757446,0.05206475406885147,-0.04048001393675804
1772648359140353000,9.40335302734375,0.06751107424497604,0.07230476289987564,-0.03994738310575485
1772648359150357800,9.413357666015624,0.07283739000558853,0.08615318685770035,-0.04900212213397026
1772648359160362500,9.423362548828125,0.07656581699848175,0.09041424095630646,-0.06444844603538513
1772648359170367000,9.433366943359376,0.07656581699848175,0.09520792961120605,-0.0798947662115097
1772648359180371700,9.443371826171875,0.07230476289987564,0.10000161081552505,-0.0894821360707283
1772648359190376200,9.453376220703126,0.06804370880126953,0.10319740325212479,-0.09640634804964066
1772648359200381000,9.463380859375,0.06165212765336037,0.09946898370981216,-0.09853687882423401
1772648359210385400,9.473385498046875,0.05579317733645439,0.09680582582950592,-0.09693898260593414
1772648359220390100,9.48339013671875,0.04940159618854523,0.11065424978733063,-0.09321055561304092
1772648359230395000,9.493394775390625,0.058456335216760635,0.11118687689304352,-0.1086568832397461
1772648359240399400,9.5033994140625,0.07230476289987564,0.10053424537181854,-0.1177116185426712
1772648359250404000,9.513404052734375,0.06165212765336037,0.0978710874915123,-0.10652635246515274
