time,seconds_elapsed,z,y,x
1772649731671700500,0.062700439453125,0.2117126594007015,0.1943675568461418,-0.17985417058616876
1772649731681741600,0.072741455078125,0.22752397651672362,0.2510387076169252,-0.25020780975073575
1772649731691782400,0.082782470703125,0.14320494036376474,0.27328444169461724,-0.26073651028871536
1772649731701823500,0.092823486328125,0.11675298676788806,0.3340191886425018,-0.2422150574311614
1772649731711865300,0.102865234375,0.1988075851202011,0.3187064686983824,-0.2754733300410211
1772649731721906400,0.112906494140625,0.26745909654200073,0.24011516254246235,-0.3245718536004424
1772649731731947500,0.122947509765625,0.3513561078906059,0.14248656296133994,-0.3611468495428562
1772649731741988400,0.13298828125,0.4962260588571429,-0.01813011545240879,-0.43133214640319345
1772649731752029700,0.14302978515625,0.6312082375377416,-0.21885727045834064,-0.5840377594314515
1772649731762070500,0.153070556640625,0.6313578751415014,-0.4206546850442886,-0.7312338152579962
1772649731772112600,0.163112548828125,0.45804070510864253,-0.6146271050930023,-0.8317918924197554
1772649731782153700,0.17315380859375,0.3547758532062173,-0.7943336839020252,-0.7631542633928358
1772649731792194600,0.183194580078125,0.3397726376026869,-1.035423244434595,-0.6316255861669778
1772649731802235600,0.193235595703125,0.47552492387294765,-1.3489683848470448,-0.5690425810039043
1772649731812276500,0.2032763671875,0.8025856716796755,-1.6996756734400986,-0.5546876001760364
1772649731822317600,0.213317626953125,1.0054682511538267,-2.0966110447227955,-0.5193601200766861
1772649731832358700,0.223358642578125,1.2186606277182697,-2.542710552147031,-0.5177262352645396
1772649731842400500,0.233400390625,1.526833719703555,-3.0717034468352793,-0.5587433053076267
1772649731852441600,0.243441650390625,1.561524801595509,-3.6059786658406257,-0.5743403951510787
1772649731862482400,0.253482421875,1.169540769109875,-4.051358626818657,-0.4526813700325787
1772649731872523500,0.2635234375,0.6823715846724808,-4.335922002896666,-0.27074337890967726
1772649731882564600,0.273564697265625,0.5475083561964332,-4.439546628022193,-0.26687574369609357
1772649731892605400,0.28360546875,0.7490631941981614,-4.451156986317038,-0.4676886772893369
1772649731902647600,0.2936474609375,0.985424411034584,-4.4276399171292775,-0.6778809952549636
1772649731912688400,0.3036884765625,0.6731593735605478,-4.397767341434955,-0.6128950206033885
1772649731922729500,0.3137294921875,0.014126140508055687,-4.3213241532236335,-0.15724705585017798
1772649731932770600,0.3237705078125,-0.22365195738896726,-4.097161177572608,0.17624840117916463
1772649731942811400,0.333811279296875,-0.16824512746557593,-3.6175673968255517,0.42386575604528187
1772649731952852500,0.3438525390625,0.019188100072741507,-2.943984829416871,0.7880982966437935
1772649731962894300,0.353894287109375,-0.3275349411897361,-2.1318425171017648,1.1919707737132905
1772649731972935400,0.363935302734375,-0.6785058491550385,-1.0237865826547146,1.4776193146795034
1772649731982976500,0.3739765625,-0.5130953605934977,0.23349837475121019,1.5590052199900148
1772649731993017300,0.384017333984375,-0.7878080815255641,1.3885855249643324,1.7807509053662418
1772649732003058400,0.394058349609375,-1.0189303747951983,2.241647876688838,1.9739061638131736
1772649732013099500,0.404099609375,-1.5296838484376667,2.9238901358932257,2.3224233950160444
1772649732023140400,0.414140380859375,-1.7552549373209476,3.337458077546954,2.4314687300160527
1772649732033182700,0.4241826171875,-1.2546534398585558,3.1504823845177885,2.1312590181253848
1772649732043223600,0.4342236328125,-0.9850776434235274,2.4067875854849814,1.7103366220556198
1772649732053264600,0.4442646484375,-0.9322713513873517,1.7762246601134537,1.2278905206173658
1772649732063305700,0.4543056640625,-0.4767793078482151,1.4405705637454986,0.7264264149762689
1772649732073346600,0.4643466796875,-0.20245266362428663,1.2781740161776542,0.42701223737746474
1772649732083387600,0.4743876953125,-0.46535541203618047,1.2900532545417547,0.2991508504875004
1772649732093429500,0.484429443359375,-0.6770850225716829,1.6807400868237017,0.19407909529358147
1772649732103470600,0.494470703125,-0.9515580895289778,2.4386329225569963,0.12567220628261566
1772649732113511700,0.50451171875,-1.527177126313746,3.603186404773593,-0.0024083763159811495
1772649732123552500,0.514552490234375,-2.6656521644219753,4.9956969942271705,0.05026698281690478
1772649732133593600,0.524593505859375,-3.314290552449226,6.528572332182526,-0.04862184595838189
1772649732143634400,0.534634521484375,-3.7681314677804707,7.596060109397769,-0.01332841425910592
1772649732153676500,0.544676513671875,-4.084738918372988,8.29545165632367,0.16416998698115348
1772649732163717600,0.554717529296875,-4.01282051410973,8.438881053093075,0.3780269649341702
1772649732173758500,0.564758544921875,-4.143104013580084,8.80068373619616,1.0486714330643414
1772649732183799600,0.574799560546875,-4.2019326346457,9.484574931651354,1.7805615202739833
1772649732193840400,0.58484033203125,-4.234919250707328,9.475950895690918,1.7857737019643187
1772649732203881500,0.594881591796875,-4.265873484158516,9.468458494108916,1.7879861173167824
1772649732213922600,0.604922607421875,-4.290277857574821,9.463085568898915,1.7872025657236574
1772649732223964400,0.61496435546875,-3.4952211200952528,9.967644864076375,3.2402269528508185
1772649732234005500,0.625005615234375,-3.049856941208243,9.32445217423439,3.403476902377605
1772649732244046300,0.63504638671875,-2.7255314635843035,8.571848677080869,3.5809348254770037
1772649732254087400,0.64508740234375,-2.2711095334947107,7.81415165618062,3.6449744591891764
1772649732264128500,0.65512841796875,-1.70972535828948,7.268845340073108,3.5683950773775575
1772649732274169300,0.66516943359375,-0.9859778071336448,6.636431233876944,3.197415108345449
1772649732284211700,0.675211669921875,-0.012180267137289046,5.551151194861531,2.5999948663800954
1772649732294252500,0.68525244140625,1.1936388530559836,4.216729221761226,1.5525019755758345
1772649732304293600,0.695293701171875,2.277583259553462,2.674416777896881,0.2292398405238986
1772649732314334700,0.705334716796875,3.166441001150012,0.7816197482794522,-1.008235377779603
1772649732324375600,0.71537548828125,3.82147142830193,-1.453917536574602,-2.191395360788703
1772649732334416600,0.725416748046875,4.032243007460236,-3.619708500507474,-3.094355131365359
1772649732344458000,0.7354580078125,4.264010905157029,-5.583326202279329,-3.345559843198955
1772649732354499800,0.745499755859375,4.645285473710298,-7.357054369401931,-3.176246940371394
1772649732364541000,0.755541015625,5.0455514507204295,-8.576473414272069,-3.1860823979482054
1772649732374581800,0.765581787109375,5.2116474373281,-9.538160391366482,-2.891883470779657
1772649732384622800,0.775622802734375,4.793981997227668,-10.44850881088972,-2.6682798825770613
1772649732394664000,0.785663818359375,4.51335186894536,-11.042824949359893,-2.5936943049311636
1772649732404704800,0.795704833984375,4.462506063327193,-11.393978812676668,-2.5474796662449837
1772649732414747000,0.805746826171875,3.698793727660179,-11.507250971591471,-2.441701077955961
1772649732424787700,0.81578759765625,2.671298061354458,-11.278540415638684,-2.172170143575966
1772649732434828800,0.825828857421875,1.9127824175477026,-10.874192722272872,-1.8002654609143733
1772649732444869600,0.83586962890625,1.3889210405290127,-10.559731636059283,-1.483964884313941
1772649732454910700,0.84591064453125,1.1138625748991966,-10.25342696829438,-1.179373669403419
1772649732464951800,0.855951904296875,1.1918215745009482,-10.002415733206272,-1.1360052869938313
1772649732474993700,0.86599365234375,1.4144202234447,-10.007096584498882,-1.3509168885663152
1772649732485034800,0.87603466796875,1.800147533623129,-10.015018025147914,-1.662585713712871
1772649732495075600,0.88607568359375,2.257515015645325,-9.955574487054347,-2.0682104412771762
1772649732505116700,0.89611669921875,2.621448573297262,-9.712657711094618,-2.2772420449003574
1772649732515157800,0.90615771484375,2.7860867623120544,-9.59133434767127,-2.433537645244598
1772649732525198600,0.916198486328125,2.665502234557271,-9.547645428070425,-2.531780285070836
1772649732535239700,0.92623974609375,2.5097937864512203,-9.377505719029903,-2.5222090313881633
1772649732545281500,0.936281494140625,2.2163111908584834,-9.615711248558759,-2.6016408800214528
1772649732555322600,0.946322509765625,1.7672921427257358,-9.725960844781994,-2.5278689568459987
1772649732565363700,0.95636376953125,1.0686265719868242,-9.777859958845376,-2.375333293557167
1772649732575404500,0.966404541015625,0.572669685459882,-9.816611422044039,-2.66936475520432
1772649732585445600,0.976445556640625,0.851869342547655,-9.075393826779722,-3.1099206570267675
1772649732595486700,0.98648681640625,1.1772341000914572,-7.953273711144924,-3.4896102944761513
1772649732605528800,0.99652880859375,1.658313881612569,-6.117084703934192,-4.08537020201385
1772649732615570000,1.00656982421875,1.4469332306452094,-3.8032863677918907,-4.106282641661167
1772649732625610800,1.01661083984375,0.8778877270318567,-0.8918827885061502,-3.403233156749606
1772649732635651800,1.02665185546875,-0.6874503492414951,2.880681108763814,-2.423202421452105
1772649732645693000,1.03669287109375,-1.2522275278858839,8.450207333749532,-0.44144832061752676
1772649732655733800,1.046733642578125,-1.2054602237530052,8.466281101194024,-0.5185484383676201
1772649732665774800,1.05677490234375,-1.1205138494819402,8.484389004814624,-0.551874369386211
1772649732675816700,1.066816650390625,-1.0434329478889703,8.501752812069654,-0.5833423975784331
1772649732685857800,1.07685791015625,-2.0442358375802634,17.95759732379913,9.547052722874284
1772649732695899000,1.08689892578125,-1.6358739401370286,9.264139452090859,6.332440103751421
1772649732705939700,1.096939697265625,-2.640822551330924,5.292347113940119,4.3510643347099425
1772649732715980800,1.106980712890625,-2.613567464658618,3.4976585763752457,3.3920974302291866
1772649732726022000,1.11702197265625,-3.4161025751948353,1.679471674323082,2.3611375949442386
1772649732736063700,1.127063720703125,-3.7759091160446405,0.6958575275808573,1.7457829062290489
1772649732746104800,1.137104736328125,-3.246568430832028,1.2286498145520686,1.6947848326586186
1772649732756145700,1.147145751953125,-2.984799070364237,3.424600354427099,2.5771032356142998
1772649732766186800,1.157186767578125,-3.3158997412115334,6.241361071944237,3.974283278183639
1772649732776227800,1.167227783203125,-3.8102152902722355,8.69200942646563,5.27101031140089
1772649732786268700,1.1772685546875,-3.8352109075799583,8.690615926280618,5.242160649013519
1772649732796309800,1.187309814453125,-3.849775731766224,8.692336758723854,5.210103715017437
1772649732806351600,1.1973515625,-3.8528351193368433,8.695839798408747,5.184329806813597
1772649732816392700,1.207392822265625,-3.848315888346731,8.70054987579584,5.1623921157717705
1772649732826433500,1.21743359375,-3.832844470709562,8.70806682729721,5.139477104130387
1772649732836474600,1.227474609375,-3.129500971287489,10.489025530195235,2.2005203320086
1772649732846515700,1.237515625,-3.249410960781574,9.005623540461063,2.2663155772164463
1772649732856556500,1.247556640625,-3.253723563283682,8.109931422799825,2.3895452126525343
1772649732866599000,1.257598876953125,-3.116954793447256,7.635957235500216,2.352206977252662
1772649732876639700,1.2676396484375,-2.6456606390118598,7.225403088709712,1.9974667798817156
1772649732886680800,1.277680908203125,-1.879304803098738,6.7678896223455665,1.5957465124100445
1772649732896722000,1.287721923828125,-1.007763376353681,6.382205712917447,1.1802940721839665
1772649732906762800,1.2977626953125,0.12526421000361443,5.793747068303823,0.6157536249049007
1772649732916803800,1.307803955078125,1.2750015236213803,4.724221647781134,-0.12421528547257184
1772649732926845000,1.317844970703125,2.25822316391468,2.9197207412540913,-1.0904705933958292
1772649732936886800,1.32788671875,3.199216312548518,0.521726118555665,-2.373978810208291
1772649732946927900,1.337927978515625,3.634115211522579,-1.851635582667589,-3.7053164074271914
1772649732956968700,1.34796875,3.5451731917440887,-4.32713137819767,-4.797627660253644
1772649732967009800,1.358009765625,3.3459353985130784,-6.714684101858735,-5.684087254667282
1772649732977051000,1.36805078125,3.2275133094891904,-8.972140957576036,-6.413903750473261
1772649732987091700,1.378091796875,3.228611918380856,-10.75700192860961,-6.718169605886936
1772649732997133800,1.3881337890625,2.9300702858328815,-12.001957565796374,-6.497010488227009
1772649733007174700,1.398174560546875,2.9785183826595545,-12.787891670143603,-5.920411792755127
1772649733017215700,1.4082158203125,3.7176124098986385,-12.919652256429195,-5.068709623467922
1772649733027256800,1.4182568359375,4.081742659166455,-12.651793931436538,-4.070808300437033
1772649733037297700,1.428297607421875,3.623724458150565,-11.753299615836143,-2.8280700470387936
1772649733047338800,1.4383388671875,2.6519313898444175,-10.397211169850825,-1.3651711854986845
1772649733057379800,1.4483798828125,2.1734511232972142,-9.350353508210182,-0.36403307250365613
1772649733067421700,1.458421630859375,2.110990283209085,-9.014100276905298,-0.12223872470259665
1772649733077462800,1.468462890625,1.9388159996010361,-9.21415581625998,-0.4711391100041568
1772649733087503600,1.478503662109375,1.828088118341565,-9.441561134833098,-0.9294652079254389
1772649733097544700,1.488544677734375,1.8903594272069633,-9.508066866397858,-1.3312310681045054
1772649733107585800,1.498585693359375,2.0183388875186443,-9.497666468414664,-1.715787873198837
1772649733117626600,1.508626708984375,2.108856778311729,-9.4591815471977,-2.207699868249148
1772649733127668700,1.518668701171875,2.1312318378575146,-9.375873733913897,-2.7004326781630517
1772649733137709800,1.528709716796875,1.9682025453440843,-9.265309664914012,-3.0495950754016636
1772649733147751000,1.5387509765625,1.6897575060158967,-9.132819010788202,-3.2341315585851667
1772649733157791700,1.548791748046875,1.2371912867955863,-8.9288652949512,-3.2609304259225724
1772649733167832800,1.558832763671875,0.6023777182422578,-8.617375333502888,-2.974027500981092
1772649733177874000,1.5688740234375,0.13249927582368254,-8.184830888700485,-2.4652596481978892
1772649733187914800,1.578914794921875,0.33214126594141125,-7.779827361774444,-2.2428983151413497
1772649733197956900,1.588956787109375,0.8499725690156221,-7.143861116054654,-2.0911185847863556
1772649733207997700,1.598997802734375,0.6833980051107704,-6.293735402303934,-2.124543446134776
1772649733218038800,1.609038818359375,1.1550855427779256,-5.275855413344502,-2.323246401836723
1772649733228079900,1.619079833984375,1.3395796481244264,-3.5189386802911757,-2.0856169186301527
1772649733238120700,1.62912060546875,1.405914260905981,-1.3185288229197263,-1.895358989059925
1772649733248161800,1.639161865234375,2.149671019259095,1.5418647000968455,-2.6018171133711934
1772649733258203600,1.64920361328125,1.4281366141080856,5.806459250360727,-2.8558880282908676
1772649733268244700,1.65924462890625,-0.44043892437927423,12.020005263662338,-2.237787547998875
1772649733278285800,1.669285888671875,-0.3729090373985469,12.028595397353172,-2.23659424656108
1772649733288326700,1.67932666015625,-0.29359423927366735,12.04424655547142,-2.2708193183764815
1772649733298367700,1.68936767578125,-3.340174935290217,20.139014311408996,5.789238066446781
1772649733308408800,1.699408935546875,-1.109446365892142,10.431279443669318,4.990182030197977
1772649733318450400,1.709450439453125,-0.3130050421863794,5.252440635487437,3.746113112717867
1772649733328491500,1.719491455078125,-2.256069200751185,3.8499382288515567,4.266608228173852
1772649733338532400,1.729532470703125,-3.570675297269225,4.185710398641229,4.4782139200687405
1772649733348573400,1.739573486328125,-4.208052578830719,5.042709505292773,3.347168447439372
1772649733358614500,1.749614501953125,-4.519215208020806,6.392098745900392,2.3826821950152515
1772649733368655400,1.7596552734375,-4.4661903047978875,8.947529078888893,3.054385816809535
1772649733378696400,1.769696533203125,-4.478926452252269,8.937361905139683,3.1015549797415733
1772649733388738300,1.77973828125,-4.4797892065614455,8.932107637873292,3.1319857738405465
1772649733398779400,1.789779296875,-4.476456847268342,8.929500085723399,3.150950294290483
1772649733408820500,1.799820556640625,-4.473983150631189,8.930313740193844,3.1484067472875115
1772649733418861300,1.809861328125,-4.468288738381863,8.934469690829514,3.1288354931160804
1772649733428902400,1.81990234375,-4.453396289676427,8.942280072319507,3.09674962528646
1772649733438943500,1.829943603515625,-4.427014478707314,8.952712619006633,3.0612425508365035
1772649733448985600,1.839985595703125,-3.382376831203699,10.356626646006108,4.100069758495688
1772649733459026700,1.850026611328125,-3.000523878240585,8.604269183692336,4.314173696947098
1772649733469067500,1.860067626953125,-2.324765720358491,6.955737422034144,4.185950344876945
1772649733479108600,1.870108642578125,-1.43650652917698,5.320380783769488,3.5499878985494373
1772649733489149700,1.880149658203125,-0.20971242549419403,3.542908753943443,2.2243663408897816
1772649733499190500,1.8901904296875,0.9212754717290401,1.6202584378540514,0.6734906513415276
1772649733509231600,1.900231689453125,2.0363930151253937,-0.04881576109528541,-0.8910111202381551
1772649733519273500,1.9102734375,2.6735633759379387,-1.141202417245507,-2.171457465261966
1772649733529314600,1.920314453125,3.0418051521778104,-2.2993226515442133,-3.121511433838308
1772649733539355400,1.93035546875,3.359308674827218,-3.7806250386506317,-3.836093535633385
1772649733549396500,1.940396484375,3.6005607324451208,-5.567323746505379,-4.323614017726481
1772649733559437600,1.9504375,3.7626112430542706,-7.40459645729959,-4.9004701950907705
1772649733569478400,1.960478515625,3.786132403895259,-9.240034938403964,-5.853817213863134
1772649733579520500,1.9705205078125,3.326101986274123,-11.388609394598006,-6.9939961332798
1772649733589561300,1.980561279296875,3.0379835480630395,-13.253320731937885,-7.458790988823771
1772649733599602400,1.9906025390625,2.8697651624739167,-14.205906703209877,-6.709231097149848
1772649733609643500,2.0006435546875,2.5976012492418286,-14.82875452415943,-5.302057776093482
1772649733619684400,2.010684326171875,2.2838497726023195,-14.801596468120813,-3.5480367644816635
1772649733629725400,2.020725341796875,1.7618536049336193,-13.12815238352418,-2.1259747941121456
1772649733639767300,2.030767333984375,1.0547475381076334,-10.742046351540088,-1.3634605821885168
1772649733649808400,2.040808349609375,0.34576406003721055,-9.08170140249133,-0.611947656750679
1772649733659849500,2.050849365234375,-0.12873320128843188,-8.203916112920641,-0.06349237509295344
1772649733669890300,2.060890380859375,-0.17267309997566044,-8.018661836856603,-0.1440780699364841
1772649733679931400,2.070931396484375,0.3726064742553979,-8.408555472934246,-0.7899471393808722
1772649733689972500,2.080972412109375,0.6532138061840087,-8.712669937178491,-1.4019753140218556
1772649733700013300,2.091013427734375,0.9106700526930391,-8.839279716572165,-1.9605581680707633
1772649733710055700,2.1010556640625,1.1480139238912612,-8.68417507957816,-2.5389251883894204
1772649733720096500,2.111096435546875,1.1982659283347428,-8.43653945840299,-3.0333453668683767
1772649733730137600,2.1211376953125,1.425382931485772,-8.289051141631603,-3.174252551683783
1772649733740178700,2.1311787109375,1.6358283474296331,-8.314835571229457,-3.1093650689706203
1772649733750219500,2.141219482421875,1.8852683876782654,-8.30632493251562,-2.9519769972145555
1772649733760260600,2.151260498046875,2.0635582315571606,-8.188111810067296,-2.994157265818119
1772649733770302500,2.161302490234375,2.25417651887238,-7.85385705910325,-3.0651264065325257
1772649733780343600,2.171343505859375,1.2091625123370437,-7.118292375034094,-2.361499560124427
1772649733790384600,2.181384521484375,1.517981281814724,-5.826946158072352,-2.5865865187525747
1772649733800425500,2.191425537109375,3.2295383855760096,-4.326190297955274,-3.153754830317199
1772649733810466600,2.201466552734375,3.6402205426603556,-2.3797826741814614,-2.6209514374300835
1772649733820507600,2.211507568359375,2.327942450698465,-0.023629881912469862,-1.5397119059771298
1772649733830549500,2.221549560546875,-1.5458376953810453,2.8611528169512748,0.04840557285919785
1772649733840590600,2.231590576171875,-2.3190976115942,6.78727938247025,1.5375231637611984
1772649733850631400,2.24163134765625,-2.2622867600917815,6.791210292178392,1.5589683951109647
1772649733860672500,2.251672607421875,-2.1995400887995955,6.794781136402487,1.5964651820734141
1772649733870713600,2.261713623046875,-2.119855872840434,6.804121211677789,1.596781846807152
1772649733880754400,2.27175439453125,-4.216967414431274,17.705449778157472,9.404456269797683
1772649733890796500,2.281796630859375,-2.0254301609538494,8.3867095518291,7.845971858811378
1772649733900837400,2.29183740234375,-0.3133165923535824,4.233073622840642,4.234237990444899
1772649733910878500,2.30187841796875,-2.5517367391675707,3.891105521020293,4.310524819050729
1772649733920919300,2.311919189453125,-4.245799248901009,3.8755858803272245,4.467793356080353
1772649733930960400,2.32196044921875,-4.364313984644412,3.723350661289692,3.1363904385402797
1772649733941001500,2.33200146484375,-3.805285432654619,5.553730689960718,1.2477816543929279
1772649733951043600,2.342043701171875,-4.255537383583188,9.28709596478641,1.0074867513693868
1772649733961084700,2.352084716796875,-4.25051575602889,9.287173121675849,1.0127064587790517
1772649733971125500,2.36212548828125,-4.226568478730321,9.29134660796821,1.005115565258637
1772649733981166600,2.37216650390625,-4.188707242369651,9.298868235644697,0.9864759659141301
1772649733991207700,2.382207763671875,-4.149280071866512,9.307493440648912,0.9621926615942269
1772649734001248500,2.39224853515625,-4.1232378681153055,9.31425226725936,0.9385657753564417
1772649734011290600,2.40229052734375,-4.115748389142752,9.317582288464903,0.9208805541273206
1772649734021331500,2.41233154296875,-4.1201586068004366,9.318526291316747,0.9081609194163233
1772649734031372500,2.42237255859375,-3.8212335278928276,10.878520522344111,3.3853000251740215
1772649734041413600,2.43241357421875,-3.3696085350453853,9.296220936006307,3.8747874234259125
1772649734051454500,2.442454345703125,-2.26662113603428,7.7880381407588715,3.777704182767868
1772649734061495600,2.45249560546875,-1.0848165131568908,6.776765002718568,3.243071820887923
1772649734071537400,2.462537353515625,-0.030993104156851768,5.593425571489334,2.32561050061956
1772649734081578500,2.47257861328125,0.9421072473555803,4.181849047037959,1.2647766283355653
1772649734091619600,2.48261962890625,1.7424745123334229,2.298357021382451,0.2310956975236535
1772649734101660400,2.492660400390625,2.475314009222388,-0.23044307883381843,-0.9165190709821879
1772649734111701500,2.502701416015625,2.9438235013753173,-2.7512328910738226,-1.9152749650157987
1772649734121742600,2.51274267578125,3.2825024985224007,-5.038865104824304,-2.862875695221126
1772649734131784400,2.522784423828125,3.7033757947534323,-7.073349071457982,-3.6958079898476597
1772649734141825500,2.532825439453125,4.128829112251102,-8.822234473747015,-4.842551382346451
1772649734151866400,2.542866455078125,4.385312349009514,-10.291496878969669,-6.049410513111948
1772649734161907500,2.552907470703125,4.1184751837581395,-11.470101098370552,-6.578818418341875
1772649734171948500,2.562948486328125,3.5173967115461826,-12.350438995033501,-6.586092208737135
1772649734181989400,2.5729892578125,2.9688778631329535,-13.05994686230421,-6.569188420209288
1772649734192031500,2.583031494140625,3.3056220928251743,-13.578880719792842,-5.847486841797829
1772649734202072300,2.593072265625,3.629551849129796,-13.554984295898675,-4.39981141448319
1772649734212113400,2.603113525390625,2.207521735203266,-12.613805853825808,-3.1826714204609394
1772649734222154500,2.613154541015625,0.9153420630920678,-11.024641642415522,-1.967601072319597
1772649734232195300,2.6231953125,0.7687064906924963,-9.741703772836923,-0.9195976747099309
1772649734242236700,2.633236572265625,1.137922080400586,-8.974862491494417,-0.2417033085167408
1772649734252278500,2.643278564453125,1.1599914349980651,-8.660406081455946,0.012227248084172606
1772649734262319600,2.653319580078125,1.312713999161124,-8.67983091289401,-0.2484050711777061
1772649734272360400,2.6633603515625,1.5698462013475596,-8.91773190651834,-0.7155606645036489
1772649734282401500,2.673401611328125,1.800788023483753,-9.269886471310258,-1.0156924888525158
1772649734292442600,2.683442626953125,2.0344472878850994,-9.590497896847129,-1.3098334752887486
1772649734302483500,2.6934833984375,2.0407414195932447,-9.759191498732566,-1.7224419242605566
1772649734312525600,2.703525634765625,1.997483877146989,-9.812546656823157,-2.0668454365342854
1772649734322567000,2.71356689453125,1.9139444470643996,-9.719401924657822,-2.22679809808135
1772649734332608000,2.72360791015625,1.8121220490552483,-9.533812717550992,-2.2177853550642728
1772649734342649000,2.733649169921875,1.2641696023531257,-9.020960225802659,-1.9786196022011338
1772649734352690000,2.74368994140625,0.026325112345814704,-8.489816875082253,-1.5018855947993694
1772649734362731000,2.75373095703125,0.07518310514762998,-7.5506830905795095,-1.1367470452718436
1772649734372772900,2.76377294921875,1.5822919875532389,-6.166230135375261,-2.076264422264695
1772649734382814000,2.77381396484375,3.5592326967567205,-4.377607181459665,-3.8758728805750606
1772649734392855000,2.78385498046875,4.916559160104394,-1.8462977287709712,-4.54819901818186
1772649734402896000,2.793895751953125,4.922125562059879,1.4838362894982098,-3.3831177126988767
1772649734412937000,2.80393701171875,3.818756324124336,5.247275215548276,-3.320813232216239
1772649734422978800,2.813978759765625,2.933921116042137,10.210414340519904,-3.582904371984303
1772649734433020000,2.82402001953125,2.888759785801172,10.201775106990336,-3.4911212835609913
1772649734443061000,2.83406103515625,2.9331705899357794,10.203686493569611,-3.4565187567353246
1772649734453101800,2.844101806640625,-5.577481567904353,13.695734828847646,3.921077465435862
1772649734463143000,2.854142822265625,-6.00390314591229,9.266608472552894,5.225508789420128
1772649734473183700,2.864183837890625,-5.274426257324219,8.084232917919755,5.938983222234249
1772649734483225900,2.874225830078125,-3.761767777967453,9.262368935286998,5.659485897374153
1772649734493267000,2.884266845703125,-5.486583737882971,11.278667841410636,8.226607837200165
1772649734503307800,2.894307861328125,-3.671087390089035,9.065844492667912,8.84102276084721
1772649734513348900,2.904348876953125,-3.8659249025344846,6.4054205842882395,7.249104282292723
1772649734523389700,2.9143896484375,-4.812324294126033,6.698788613590597,6.721735189414024
1772649734533430800,2.9244306640625,-4.9942503025501965,7.412165431249141,5.7145952056556935
1772649734543472600,2.93447265625,-6.080585988098383,9.339659680238366,4.547904711410403
1772649734553513700,2.944513671875,-6.074023560842871,9.336885539349913,4.584107074648141
1772649734563554800,2.954554931640625,-6.068593937009573,9.334407751059532,4.617148928028345
1772649734573595600,2.964595703125,-6.057814768841863,9.33425986702144,4.632952354098856
1772649734583636700,2.97463671875,-6.035967678692937,9.337539619344472,4.626567329236865
1772649734593677800,2.984677734375,-6.0115451850980515,9.342547218373417,4.605802773627638
1772649734603720000,2.994719970703125,-5.990845511418581,9.348387761095166,4.572627649256587
1772649734613761000,3.004760986328125,-5.970439852249622,9.355888930505513,4.524401378487051
1772649734623801900,3.0148017578125,-1.623070718795806,11.120645855665206,3.2772958697900174
1772649734633843000,3.024843017578125,-1.18577528007403,8.475223701584339,3.616685353294015
1772649734643884000,3.034884033203125,-0.7173458674199878,6.1769718941420315,3.491613743253052
1772649734653926000,3.04492578125,0.16310513422861694,4.186065203428268,2.835087524585426
1772649734663967000,3.054967041015625,1.060881949209422,2.250612688910961,1.812703794465959
1772649734674007800,3.0650078125,1.8046949677944182,0.32393501700162886,0.5675311535276473
1772649734684049000,3.075048828125,2.5826731447011233,-1.6880167998284101,-0.6886313757196069
1772649734694090000,3.085090087890625,3.0758453689455982,-3.743320267128944,-1.8907567559614777
1772649734704130800,3.095130859375,3.5181945839256046,-6.0802042953044175,-3.004758154809475
1772649734714173000,3.1051728515625,4.433243143963813,-8.183133437132835,-4.143945432840288
1772649734724213800,3.1152138671875,5.309612136995792,-9.514299623307584,-5.261316600382328
1772649734734254800,3.1252548828125,5.929508706924319,-10.710908870476484,-6.090071609324217
1772649734744296000,3.1352958984375,5.567520730382204,-11.644419554400443,-6.314757732066512
1772649734754336800,3.145336669921875,4.814296470981836,-12.24751287356615,-6.385861312815547
1772649734764377900,3.1553779296875,4.028476348403096,-12.759943340510128,-6.52895636306405
1772649734774419700,3.165419677734375,3.4132202977567907,-13.12270347046852,-6.320252822351455
1772649734784460800,3.175460693359375,2.925345010876655,-12.991903838169574,-5.265981085062027
1772649734794502000,3.185501953125,2.2803695292711255,-12.08137772399187,-3.9387946161732077
1772649734804542700,3.195542724609375,1.589772114175558,-10.779057108551264,-2.800779889053106
1772649734814583800,3.205583740234375,1.2305034795947372,-9.657647187012433,-1.6375820592291652
1772649734824626000,3.2156259765625,1.0198370413113385,-9.035027914121747,-0.9854025645289569
1772649734834667000,3.2256669921875,0.886352115451172,-8.820817592686414,-0.7394529236793518
1772649734844707800,3.235707763671875,1.2962100236058234,-8.598448514714837,-1.0176567015975713
1772649734854749000,3.2457490234375,1.332953654113412,-8.646822377261518,-1.1438195409413427
1772649734864790000,3.2557900390625,1.3981668616496026,-9.148448541596531,-1.0788862463250755
1772649734874830800,3.265830810546875,1.5189064338356255,-9.601248423442245,-1.126782919814065
1772649734884873000,3.275873046875,1.74665252867043,-9.755866738224029,-1.3650322154194117
1772649734894913800,3.285913818359375,2.084455327504873,-9.75396295042932,-1.634344684743136
1772649734904955000,3.295954833984375,1.9738456657975911,-9.84626187942028,-1.9614590624332426
1772649734914996000,3.305995849609375,1.5873405031144618,-9.619640989223122,-2.0621673617206513
1772649734925036800,3.316036865234375,0.8872909306712448,-9.075227822563052,-2.048502701244503
1772649734935079000,3.326078857421875,0.6028729544132948,-8.133633200904727,-2.3135464072078467
1772649734945119700,3.33611962890625,1.235320378357172,-6.66616527788341,-2.8884090726673604
1772649734955160800,3.346160888671875,1.9229191961586474,-4.835018941015004,-3.306419088421762
1772649734965202000,3.356201904296875,1.944999510541558,-2.648580325850844,-3.409031029373407
1772649734975242800,3.36624267578125,2.3398311875432727,0.5292746342390775,-3.203979289166629
1772649734985283800,3.376283935546875,2.7342396706968546,4.7470811298429965,-3.7016830193608996
1772649734995325700,3.38632568359375,-0.05057166485190391,9.475022674930095,-1.748520222238451
1772649735005366800,3.39636669921875,-0.0425245519965887,9.476403900155425,-1.760716709858179
1772649735015407900,3.406407958984375,-0.006034677054360509,9.479941426631807,-1.7807646416306495
1772649735025448700,3.41644873046875,0.043298458978533745,9.485279865050316,-1.8110161336399613
1772649735035489800,3.42648974609375,0.31319216225631535,13.184502631777525,1.8809791660517452
1772649735045531000,3.43653076171875,-2.2423048792928455,9.257452521672844,1.1391937077715992
1772649735055573000,3.446572998046875,-4.727593170040846,7.282012280160188,1.9251548462562262
1772649735065614000,3.456614013671875,-4.616382619830966,5.921290329155325,1.2198984258849173
1772649735075655000,3.466655029296875,-3.0689672998696564,5.486585491448641,-0.40557095155045386
1772649735085696000,3.476696044921875,-2.6148212641119954,5.5673120560675855,-0.4686114912226796
1772649735095737000,3.486737060546875,-3.2093034067988393,6.02971212542951,0.8636123142462223
1772649735105779000,3.496779052734375,-3.5431080759078264,7.4556398313164705,2.4546394699841736
1772649735115820000,3.506820068359375,-4.125978691256046,9.860606046593189,4.371374424549937
1772649735125860900,3.51686083984375,-4.101357460218668,9.8614045034945,4.386889096806943
1772649735135902000,3.52690185546875,-4.084260194945335,9.862408712100983,4.393572227832674
1772649735145943000,3.536943115234375,-4.068912403687834,9.864142404025792,4.391334678038954
1772649735155984000,3.54698388671875,-4.050193090170621,9.866654679107665,4.384899676555395
1772649735166026000,3.55702587890625,-4.018058999285102,9.870886617588996,4.375643187910318
1772649735176066800,3.56706689453125,-3.9676580148249863,9.877865808951855,4.360067140854895
1772649735186108000,3.57710791015625,-3.9031706373453137,9.887503405869007,4.337404058147967
1772649735196149000,3.58714892578125,-3.6867058149814604,10.657863508987425,2.910796261042356
1772649735206189800,3.59718994140625,-3.3399732752382754,8.871752245631814,2.4273969505324957
1772649735216232000,3.60723193359375,-2.5658926902920007,6.914948315528035,2.0422692136824128
1772649735226272800,3.617272705078125,-1.4423755673408507,4.602502563038468,1.6575734385088086
1772649735236313900,3.62731396484375,0.030091771402955055,2.2212457246512174,1.0986913823176174
1772649735246355000,3.63735498046875,1.3852186788797378,-0.030009353816509245,0.5345677722111344
1772649735256395800,3.647395751953125,2.5768957303434608,-2.1263094328939913,0.007142857491970062
1772649735266436900,3.657436767578125,3.6629227883338924,-4.043716587632894,-0.5359229862123728
1772649735276478700,3.667478759765625,4.327665046682953,-5.787013960656523,-1.2293402810342609
1772649735286519800,3.677519775390625,4.525415231704712,-7.333810856458545,-2.063991946799308
1772649735296560600,3.687560546875,4.9216141054064035,-8.659815714347362,-2.8932728793114424
1772649735306601700,3.697601806640625,5.456693042010069,-10.116637155669927,-4.010308823549747
1772649735316642800,3.707642822265625,5.251982954847812,-11.50178919905424,-5.010235222667456
1772649735326684200,3.71768408203125,4.732615382117033,-12.39318741891384,-5.188165439453721
1772649735336725200,3.727725341796875,4.281674279880524,-12.833824569278955,-5.021085117983818
1772649735346766300,3.737766357421875,3.900097805771231,-13.251274905323982,-4.95192565703988
1772649735356807200,3.74780712890625,3.164450704115629,-13.311482998049259,-4.570317326487601
1772649735366848300,3.75784814453125,2.1784885329425334,-12.557020721286534,-4.0450545582383866
1772649735376889300,3.767889404296875,1.5615443830788134,-11.146792688834667,-3.379655297285318
1772649735386931200,3.77793115234375,1.1103957755714655,-10.026000022411345,-2.656438053613901
1772649735396972300,3.78797216796875,1.0272224753875285,-9.461125082480907,-2.042543354448676
1772649735407013000,3.79801318359375,1.1871142735928297,-9.367934757608175,-1.8195380244001744
1772649735417054200,3.80805419921875,1.4669744404159486,-9.239237066024542,-1.7584563637107609
1772649735427095300,3.81809521484375,1.6257915220618246,-9.119684219405055,-1.8276375980950892
1772649735437137200,3.82813720703125,1.664787169279903,-9.158829650357365,-1.9187280280791221
1772649735447178200,3.83817822265625,1.7023201965995132,-9.258397109046578,-1.9325645379908383
1772649735457219000,3.848218994140625,1.4977870734393597,-9.372336791959404,-2.093312003177404
1772649735467260200,3.85826025390625,1.3893243606328964,-9.353841350325942,-2.1034752314038574
1772649735477301200,3.86830126953125,1.321452016890049,-9.356457670304179,-1.9718929242946206
1772649735487342000,3.878342041015625,1.07320396290496,-9.169659671929479,-1.6220621262751518
1772649735497384200,3.88838427734375,0.4701468110311776,-8.98326674722433,-1.333501643384993
1772649735507425000,3.898425048828125,-0.009528437454253434,-8.65060774101913,-1.1193184291522948
1772649735517466000,3.908466064453125,0.5991192279029637,-7.609130603373051,-1.1100891207750887
1772649735527507000,3.9185068359375,0.735547148412466,-6.3175084920793765,-1.500222922284156
1772649735537548000,3.928548095703125,2.2344470053993164,-4.516238238036633,-2.6194930553153157
1772649735547590100,3.938590087890625,4.110331040269136,-2.1553326982825993,-3.1162334934353826
1772649735557631000,3.948630859375,3.5709424237728116,0.29244740732610225,-2.533618314152956
1772649735567672000,3.958672119140625,1.0886964963953942,2.7102052996367214,-2.0458347972095012
1772649735577713000,3.968712890625,-0.037703415450453755,5.921667930296063,-0.9675729663930833
1772649735587754000,3.97875390625,0.22257132254540918,9.614853170424698,2.0535485864572225
1772649735597795000,3.988795166015625,0.3142738930784166,9.628517538639903,2.0168077324286102
1772649735607837200,3.998837158203125,0.4184323328197002,9.646279405301808,1.9672600037969648
1772649735617878300,4.008878173828125,0.5110848975539207,9.666521398341656,1.898812198253721
1772649735627919000,4.018919189453125,-3.5956706223160024,12.82737963092327,7.129943065339327
1772649735637960200,4.028960205078125,-3.633634734529257,9.113342156901956,5.582787857618928
1772649735648001300,4.039001220703125,-4.204298194733262,7.9753423350900405,5.421171646773815
1772649735658043100,4.049043212890625,-4.1678000634193415,8.457126903879642,4.296951343989372
1772649735668084200,4.059084228515625,-4.44190342028141,9.142621442878246,2.493604283672571
1772649735678125000,4.069125,-4.442491449302435,9.146758688813447,2.467798519025743
1772649735688166100,4.079166259765625,-4.425836082577705,9.15324571274519,2.4428018788047132
1772649735698207200,4.089207275390625,-4.402914641195536,9.160789552253485,2.4174419582292437
1772649735708248000,4.099248046875,-4.3869794054388995,9.167246181046963,2.393224339556694
1772649735718290200,4.109290283203125,-4.380042299652099,9.172207018324732,2.3705486896291372
1772649735728331000,4.1193310546875,-4.375169140657782,9.176919433799386,2.34792067823559
1772649735738372000,4.1293720703125,-4.364192988613247,9.18265476258099,2.3249271945305168
1772649735748413200,4.1394130859375,-4.343627754968405,9.190045457354188,2.301112603700906
1772649735758454000,4.1494541015625,-2.116338512369245,10.618434000396729,4.904079033237696
1772649735768495000,4.1594951171875,-1.7365056670568881,8.423139294081926,4.046489559477568
1772649735778537000,4.169536865234375,-1.0233094666622577,6.157629480290413,2.763112713959813
1772649735788578000,4.179578125,-0.03451411788985133,3.9683132638633247,1.3257424075603483
1772649735798619100,4.189619140625,1.1458324151337147,1.873586717712879,0.06718114660829305
1772649735808660000,4.199659912109375,2.434666357013583,-0.4897790746748447,-1.0361068427845834
1772649735818701000,4.209701171875,3.2614415903151035,-2.6488965521931647,-1.9831661595895884
1772649735828743200,4.2197431640625,3.805807410702109,-4.375027686360478,-2.8068346590474245
1772649735838784300,4.2297841796875,4.222198008561134,-5.809767644256353,-3.480917577193677
1772649735848825300,4.239825439453125,4.7542046981126065,-7.317570500275492,-4.071238216286898
1772649735858866200,4.2498662109375,5.690367357850074,-9.059217768004537,-4.859321607622504
1772649735868907300,4.2599072265625,5.881746838796138,-10.63616605644226,-5.84621609120965
1772649735878948000,4.269947998046875,5.4516825203716754,-11.504089877212047,-6.285445712864399
1772649735888990200,4.279990234375,4.4990141315132375,-11.870468197667599,-6.199038179999589
1772649735899031000,4.290031005859375,3.6624592624753713,-12.036067925190926,-5.884395892000198
1772649735909072100,4.300072021484375,3.1154134092241526,-11.91793020606637,-5.292080571958422
1772649735919113200,4.31011328125,2.336723869177699,-11.45320607767105,-4.456827433168888
1772649735929154000,4.320154052734375,1.6081335541658102,-10.722727903085946,-3.741327632007003
1772649735939196200,4.330196044921875,1.16855687263906,-9.915555780398845,-3.10294088114202
1772649735949237000,4.340237060546875,1.1975631868928671,-9.575809446281195,-2.7063199826359745
1772649735959278000,4.350278076171875,1.123948938497156,-9.402734852832555,-2.2656531677849587
1772649735969319200,4.360319091796875,1.2973739528186619,-9.362776351931691,-2.017171158913523
1772649735979360000,4.370360107421875,1.5333372563786805,-9.46372912749946,-1.947097944125533
1772649735989401000,4.380401123046875,1.7424644293308258,-9.64107423787415,-1.8535272416330872
1772649735999443000,4.39044287109375,2.11439512321651,-9.728028883227706,-1.74622831190899
1772649736009484000,4.400484130859375,2.417385697997361,-9.736285254919528,-1.7680306861333548
1772649736019525000,4.410525146484375,2.753082902854681,-9.663320556473732,-1.9719914162330328
1772649736029566000,4.42056591796875,2.9899574760407206,-9.475502567401527,-2.0354671324521303
1772649736039607000,4.43060693359375,3.044962154904008,-9.249005595844984,-1.8561089286893606
1772649736049649200,4.440649169921875,2.8474598071634767,-8.934674858012794,-1.618357718799263
1772649736059690200,4.450690185546875,2.4617712215602396,-8.399610534456372,-1.5197811708435416
1772649736069731300,4.4607314453125,2.071297739768028,-7.574710447376966,-1.4745276322744787
1772649736079772200,4.470772216796875,1.3927696787811814,-6.458598047724366,-1.5474705572798848
1772649736089813200,4.480813232421875,2.034433259359747,-5.041868962815403,-2.347628709551692
1772649736099854300,4.490854248046875,2.88805485240221,-3.2987358404427765,-2.873574783889949
1772649736109896200,4.500896240234375,2.7215917860478163,-1.2698469173371791,-2.2296187084600327
1772649736119937300,4.510937255859375,1.2351081969112157,1.1240952151000498,-1.1940604394689203
1772649736129978000,4.52097802734375,-0.804268802461028,4.126484887212515,-0.818811926272139
1772649736140019200,4.531019287109375,0.4893354956258088,8.599218914565444,-2.1235985665000974
1772649736150060300,4.541060302734375,0.5129748029537499,8.595903506407142,-2.0148292719624936
1772649736160101000,4.55110107421875,0.5940134291965514,8.60315859210193,-1.9629069231539964
1772649736170143200,4.561143310546875,0.6871737242572009,8.615546949031948,-1.9716579464949666
1772649736180184000,4.57118408203125,-1.5918215940512717,14.63666192650795,9.634638067346811
1772649736190225200,4.58122509765625,-1.591408629336208,9.014128333956002,6.067158935770392
1772649736200266200,4.591266357421875,-4.778204582381248,7.771420183435082,6.10498626986146
1772649736210307000,4.60130712890625,-6.403443146735429,8.780667953127622,7.07702512962222
1772649736220349200,4.61134912109375,-6.189440915092826,8.052046804586052,5.284209984713793
1772649736230390000,4.62139013671875,-6.319822029718757,8.190297921934723,3.1831840461581944
1772649736240431000,4.63143115234375,-6.988077849146723,9.589051789692043,3.240854437099397
1772649736250472200,4.64147216796875,-7.015328259643912,9.584596563848853,3.2507661747828123
1772649736260513000,4.651512939453125,-7.0255977247238155,9.58213806478083,3.2675884225070475
1772649736270554000,4.66155419921875,-7.022366487717628,9.581891396543384,3.279126007826626
1772649736280596000,4.671595947265625,-7.0124828070849174,9.58320364818573,3.2801448294803497
1772649736290637000,4.681636962890625,-6.994266766914725,9.586536007478832,3.2672412165045737
1772649736300678000,4.691677978515625,-6.964961177453398,9.59254898415804,3.237930074085295
1772649736310719000,4.701718994140625,-6.925994610199332,9.601210429519414,3.193294813545048
1772649736320759800,4.711759765625,-3.385404070070386,11.083182678711413,1.3126821427181363
1772649736330801700,4.7218017578125,-3.7655706773817537,9.00182239461243,1.1369213789254426
1772649736340842800,4.7318427734375,-3.492677280831337,7.123492866286635,1.0990248520556836
1772649736350883800,4.7418837890625,-2.3799288046538827,5.4319952386051416,0.825420384626463
1772649736360924700,4.751924560546875,-0.8566441557340323,3.8155391156435012,0.44171084401123223
1772649736370965800,4.7619658203125,0.46487128178104753,2.3709347663372755,0.11515804572664201
1772649736381006600,4.772006591796875,1.5981097344100474,0.9238613965690136,-0.05857968780584633
1772649736391048700,4.782048583984375,2.6610511003673074,-0.718092740264535,-0.6294423969089985
1772649736401089800,4.79208984375,3.2570214357852936,-2.5074095216631886,-1.5000623248949647
1772649736411130600,4.802130615234375,3.6810564109176394,-4.379615598672628,-2.3925661679089067
1772649736421171700,4.812171630859375,3.76734031740278,-6.1601218816280365,-3.3557863459199666
1772649736431212500,4.822212646484375,3.997243005749583,-7.8087477513104675,-4.3701574499756095
1772649736441253600,4.832253662109375,4.4997640730977055,-9.072980335897206,-5.27830280649662
1772649736451295700,4.842295654296875,4.84696423035264,-10.040872597372532,-5.924512798333168
1772649736461336800,4.8523369140625,4.830269700661301,-10.969511875867843,-6.363337346318364
1772649736471378000,4.8623779296875,4.258921765324473,-11.678333514440059,-6.374230496254563
1772649736481418800,4.872418701171875,3.8464135618567465,-12.117702252304554,-5.669761792194843
1772649736491459800,4.8824599609375,3.4333126531928775,-12.287426366281508,-4.640120346032083
1772649736501501700,4.892501708984375,2.8221143535047766,-12.118618782627582,-3.698029173028469
1772649736511542800,4.902542724609375,1.9322465580828487,-11.497559598660468,-3.1173525605931878
1772649736521583900,4.912583984375,1.7642383081130681,-10.600747537058592,-2.534610247799754
1772649736531624700,4.922624755859375,1.4533043731123207,-9.959142408668994,-2.1510779634475705
1772649736541665800,4.932665771484375,1.5093115070164203,-9.548817394459247,-2.1104583682894704
1772649736551707000,4.942706787109375,1.5571762509971856,-9.216609054630995,-2.079370425456017
1772649736561748700,4.952748779296875,1.5838848097026348,-8.983846008417009,-2.2635824989907443
1772649736571789800,4.962789794921875,1.7854437393575906,-8.844498912525177,-2.6259254264503715
1772649736581830700,4.97283056640625,2.0620880128741264,-8.790327761876583,-2.881649077013135
1772649736591871700,4.982871826171875,2.339460746795684,-8.795206181567908,-3.010436492706835
1772649736601912800,4.992912841796875,2.548041391780972,-8.787501598539947,-2.9775188502281904
1772649736611954700,5.00295458984375,2.692050049743056,-8.803952382603287,-2.8069389962047335
1772649736621995800,5.012995849609375,2.684094122302532,-8.897068473196029,-2.542551269932091
1772649736632036600,5.02303662109375,2.4224187237285078,-8.872782173201442,-2.188485172430426
1772649736642077700,5.03307763671875,2.9278420883893963,-8.579283210995793,-2.066879631064832
1772649736652118800,5.043118896484375,2.6112813995480537,-7.985505417186022,-1.8012647010847924
1772649736662159600,5.05315966796875,2.3855321776188907,-7.173506312733888,-1.9380228033967315
1772649736672201700,5.06320166015625,2.982902296832204,-6.138342596018314,-2.0529745859615502
1772649736682242600,5.07324267578125,2.7215631444752213,-4.897780225354433,-1.7555911835379898
1772649736692283600,5.08328369140625,1.9323639008522033,-3.2146728248775003,-1.4810029657684265
1772649736702324700,5.09332470703125,0.9153905053436756,-0.5162468103617429,-1.917702484423667
1772649736712365800,5.10336572265625,2.0003461347103118,3.802871941772103,-3.690658644260466
1772649736722408000,5.113407958984375,3.0544705724835395,10.271842914950847,-6.029958209145069
1772649736732448800,5.12344873046875,3.090620328751206,10.269273356723785,-5.959630873465538
1772649736742489900,5.13348974609375,3.1524417018920183,10.278131201440095,-5.962340716946125
1772649736752530700,5.14353076171875,0.2595376558929682,14.563060099202394,5.864705687624216
1772649736762571800,5.15357177734375,0.698067166454345,9.183317025882005,2.273537637424469
1772649736772612900,5.16361279296875,-3.6806519217699765,8.70691356560886,5.624554869246483
1772649736782654700,5.17365478515625,-3.691849607610702,8.70622090716958,5.615052881407737
1772649736792695800,5.18369580078125,-3.7404338980376717,8.698092545771598,5.622908855605125
1772649736802736600,5.193736572265625,-3.8073476258814334,8.684795841825007,5.657859757477045
1772649736812777700,5.20377783203125,-3.8692034858137365,8.670652750182152,5.714430370482802
1772649736822818800,5.21381884765625,-3.913630656561255,8.659123055908083,5.774975147816538
1772649736832860700,5.223860595703125,-3.935792804008722,8.651886674913763,5.82486116849184
1772649736842901800,5.23390185546875,-3.9339287637025118,8.649380829572678,5.85747865898013
1772649736852942600,5.243942626953125,-3.9156513487339017,8.650436476105451,5.873130401620268
1772649736862983700,5.253983642578125,-3.892420695272088,8.653297126233577,5.875033020371198
1772649736873024800,5.264024658203125,-3.871141175878048,8.656610196304321,5.868831827643513
1772649736883065600,5.274065673828125,-3.8513182850331065,8.660314311519265,5.856096264711022
1772649736893107700,5.284107666015625,-1.9431288943640888,10.46864909712076,2.258973397760093
1772649736903148500,5.2941484375,-1.1626534938141704,8.731817120718956,2.907249966737628
1772649736913189600,5.304189697265625,-0.2314474335707724,7.174047580003738,3.1466689637094736
1772649736923230700,5.314230712890625,0.4123550587326288,5.502646399411558,2.86709155935049
1772649736933271600,5.324271484375,1.4015538737393916,3.4490362920254465,1.7369073797255754
1772649736943314000,5.33431396484375,2.467553896614909,0.68572542514503,0.34701142974980176
1772649736953354800,5.344354736328125,3.342644540274143,-2.3761294123709202,-0.9070273853417485
1772649736963395800,5.354395751953125,3.856095582437515,-4.745868246921897,-1.7432833444982767
1772649736973437000,5.36443701171875,3.9993203965455293,-6.976292718806863,-2.87154970780313
1772649736983477800,5.374477783203125,4.4409751995205875,-9.338046399822831,-4.328623662582039
1772649736993518800,5.384518798828125,4.468373494055867,-11.449384473556279,-5.800394835755228
1772649737003560700,5.394560791015625,3.321263898593187,-12.973245899450777,-6.6700739757597445
1772649737013601800,5.404601806640625,2.3184764109559355,-14.010430892860889,-7.193356091585755
1772649737023643000,5.414642822265625,2.8931530523240565,-14.502254625105857,-7.198990882602334
1772649737033683700,5.42468359375,4.452031431064009,-14.645022927618026,-6.746801241609454
1772649737043724800,5.434724853515625,4.249882718822359,-14.338381575244664,-6.192130300307274
1772649737053766700,5.4447666015625,3.2904496581345795,-12.98555125427246,-4.983289348074794
1772649737063807700,5.454807861328125,2.2621515894047914,-10.661924767076968,-3.020716771441698
1772649737073848800,5.464848876953125,1.289369948452711,-9.081356534576415,-1.394351248884201
1772649737083889700,5.4748896484375,0.9198157744400203,-8.182408629989624,-0.5155995254341512
1772649737093930800,5.4849306640625,1.6338988406717776,-7.734679475536942,-0.5129385625965893
1772649737103971800,5.494971923828125,2.4088316585332152,-7.8918527354985475,-0.9995037167262285
1772649737114013700,5.505013671875,2.6853841621130705,-8.288135780352354,-1.4515969846725463
1772649737124054800,5.5150546875,2.8204385292470455,-8.640504864677787,-1.8642055797748267
1772649737134095600,5.525095703125,2.907745056778192,-8.981230272960662,-2.2093569878064097
1772649737144136700,5.53513671875,2.8049475301265714,-9.276474617528915,-2.417084815354645
1772649737154177800,5.545177734375,2.502329441919923,-9.411913015544414,-2.4844571006208658
1772649737164220000,5.555219970703125,2.0459704062879083,-9.580441197735071,-2.3438578127108514
1772649737174260700,5.5652607421875,1.6075129380494355,-9.631835869407654,-2.0161638815671203
1772649737184301800,5.5753017578125,1.0231447776198386,-9.486250171387194,-1.7730021909356115
1772649737194343000,5.585343017578125,0.38896950697004795,-8.949693563446402,-1.492998670119047
1772649737204383700,5.5953837890625,0.5883137562502175,-8.230840360203384,-1.5931877678379416
1772649737214425900,5.60542578125,1.0581495285708458,-7.17587187282145,-1.9461939810231328
1772649737224466700,5.615466796875,1.6270464905589819,-5.457888389274478,-2.6502827458545566
1772649737234507800,5.6255078125,1.6476275062948464,-2.938305614736676,-3.1065503038108346
1772649737244548900,5.635548828125,1.243307869979739,-0.11572013658881186,-2.425062808496505
1772649737254589700,5.645589599609375,0.9899316593259573,2.9138860437512397,-2.5925907276034352
1772649737264630800,5.655630859375,3.887685483443737,6.924248058792949,-4.940910926550626
1772649737274672600,5.665672607421875,4.284637221339345,12.72730597627759,-3.841985516281426
1772649737284713700,5.675713623046875,-6.450998678636551,18.388039243364332,3.8434316234365102
1772649737294754800,5.6857548828125,-11.665166574352979,18.86558310584426,8.41257581449151
1772649737304796700,5.695796630859375,-4.951971834269166,13.64264971987009,6.431524747359752
1772649737314837800,5.705837646484375,-1.4040052124142646,8.404549159902334,3.107955786694586
1772649737324878600,5.715878662109375,-1.1465466278176755,5.8108940179377795,1.3667515865579247
1772649737334919700,5.725919677734375,-4.134090101519226,5.759546108016371,2.9703920670881865
1772649737344960800,5.735960693359375,-4.6159553343296045,5.790910968095064,4.140281357374787
1772649737355002600,5.746002685546875,-2.7534529052108523,5.907610178849101,3.1331492646619674
1772649737365043700,5.756043701171875,-2.0802102372810243,6.643370093229413,3.687726682461798
1772649737375084500,5.76608447265625,-2.2061457706749437,7.75296098215878,4.306954267087579
1772649737385125600,5.776125732421875,-3.115191875427961,9.75148223952949,5.297804210302234
1772649737395166700,5.786166748046875,-3.091329938325286,9.752232181113957,5.322404983073473
1772649737405207600,5.79620751953125,-3.061118339934945,9.754775435855985,5.337853312096
1772649737415249700,5.806249755859375,-3.032412469932437,9.759161103594302,5.332036734771728
1772649737425290500,5.81629052734375,-3.008524813866615,9.764895263332129,5.305620437011123
1772649737435331600,5.82633154296875,-2.99038826867342,9.771147309464215,5.267052513685822
1772649737445372700,5.83637255859375,-2.9765426986724135,9.777502231448889,5.2234261379271745
1772649737455413500,5.84641357421875,-3.7710038083463906,10.787629706585406,1.6484928909525274
1772649737465455900,5.856455810546875,-3.4550977840214965,8.858992717301845,2.4253290582172573
1772649737475496700,5.86649658203125,-2.549427877703309,7.2869199259459965,2.708710969425738
1772649737485537800,5.876537841796875,-1.377207367990166,5.735758405193686,2.2809468907676638
1772649737495579000,5.886578857421875,-0.337478389185667,4.168383416265249,1.7324352027475833
1772649737505619700,5.89661962890625,0.4016904568552971,2.5428303791344162,1.2178298029173165
1772649737515661800,5.906661865234375,1.1301853486686944,1.039089950248599,0.7364354755543172
1772649737525702700,5.91670263671875,1.9993005711801348,-0.40087680238485335,0.29460034757629033
1772649737535743700,5.92674365234375,2.729913624191284,-1.7689982159912585,-0.1680937362961471
1772649737545784800,5.936784912109375,3.281293122732639,-3.1997546572089193,-0.9004675153695046
1772649737555825700,5.94682568359375,3.8212738599032163,-4.734221648269892,-1.7241507740050552
1772649737565867800,5.95686767578125,4.5498149289458985,-6.394077352496981,-2.712012641319632
1772649737575908600,5.96690869140625,5.545593560734391,-8.09183287152946,-4.190048720106482
1772649737585949700,5.97694970703125,5.745295464345812,-9.52483095419407,-5.662850405371189
1772649737595990800,5.98699072265625,4.9906625071913,-10.68355441508293,-6.366901176279783
1772649737606031600,5.997031494140625,4.066054091647267,-11.620074217694997,-6.464832558199763
1772649737616072700,6.00707275390625,3.814999017417431,-12.61146659722328,-6.216372761160135
1772649737626114600,6.017114501953125,4.129777499017119,-13.532123644793034,-5.427561640071868
1772649737636155600,6.02715576171875,3.13457169868052,-13.903496120274067,-4.425551128156483
1772649737646196500,6.037196533203125,1.7447012484721838,-13.368410753929615,-2.7367902319625017
1772649737656237600,6.047237548828125,1.1692121216773985,-11.585885532367229,-1.5797522399425505
1772649737666278700,6.057278564453125,1.240907823100686,-10.071382301926612,-0.894962707408145
1772649737676320500,6.067320556640625,1.152966066405922,-9.2869095023036,-0.3674558134939521
1772649737686361600,6.077361572265625,1.1289509845681487,-8.883259728074073,-0.2724296514961868
1772649737696402400,6.08740234375,1.2310982306174933,-8.983018909943103,-0.7061524924281984
1772649737706443500,6.097443603515625,1.3370819860897958,-9.294263372197747,-1.031610262017697
1772649737716484600,6.107484619140625,1.563120107962936,-9.45506008335352,-1.2456202385753392
1772649737726526700,6.117526611328125,1.7895833233803509,-9.430649864718317,-1.5327699778847395
1772649737736567800,6.12756787109375,1.9835218411594628,-9.392996133628486,-1.8349707174621521
1772649737746608600,6.137608642578125,2.1821372647084294,-9.396502680444717,-2.019892108310014
1772649737756649700,6.147649658203125,2.3037260010696947,-9.434465039092302,-2.0991725657738742
1772649737766690800,6.15769091796875,2.2178649961717425,-9.26542540024817,-2.175697733180225
1772649737776732700,6.167732666015625,2.4858640448093414,-8.715919878885149,-2.5704569294676185
1772649737786773800,6.177773681640625,2.7218004603624344,-7.79007344597876,-2.8156232379198074
1772649737796814600,6.187814697265625,2.318976761693507,-6.393837698522209,-2.6074504430830476
1772649737806855700,6.197855712890625,2.565684600499272,-4.716205514585972,-2.5093197391986846
1772649737816896800,6.207896728515625,1.9630781880676744,-2.9210452678561207,-1.9212071315437553
1772649737826938600,6.217938720703125,0.3875147050518542,-0.8146557564407586,-1.2666260555945337
1772649737836979700,6.227979736328125,-0.15859204071834682,2.0220967787474393,-1.3731699291676283
1772649737847020500,6.2380205078125,2.263008498495072,6.454712730723619,-2.3891911385178566
1772649737857061600,6.2480615234375,2.2361299900501965,6.450976466804742,-2.3778897000417114
1772649737867102700,6.258102783203125,2.2621634259730574,6.454136976662277,-2.3831296465218066
1772649737877144600,6.26814453125,2.3373360097266733,6.4661769585460425,-2.4283649187818166
1772649737887185700,6.278185546875,2.427353988173604,6.483765222206712,-2.505527653439343
1772649737897226500,6.2882265625,0.013133622339367866,10.694510693383217,3.593129121139645
1772649737907267600,6.298267578125,-2.6346815643578765,7.131510753047466,3.8951781772866845
1772649737917308700,6.30830859375,-4.023096408930421,5.120521643769741,5.575432234159112
1772649737927350800,6.318350830078125,-3.5655233213335276,3.9195612156540154,5.188979678446054
1772649737937391900,6.328391845703125,-3.5908401334196327,4.378049080008268,3.5981636081755157
1772649737947432700,6.3384326171875,-4.027468632665276,6.213243230962753,2.834602079156041
1772649737957473800,6.348473876953125,-4.839770519456267,8.250847959965467,3.1312659351333973
1772649737967515000,6.358514892578125,-5.388671645185351,9.746676885074377,4.120073851126432
1772649737977556700,6.368556640625,-5.402538257974386,9.744404848489165,4.118461739754677
1772649737987597800,6.378597900390625,-5.410823855760693,9.744390235441923,4.10873763359785
1772649737997638700,6.388638671875,-5.420251609319448,9.744960728806257,4.093989561799169
1772649738007679700,6.3986796875,-5.43606292643547,9.744829795902968,4.0766833299502725
1772649738017720600,6.408720458984375,-5.454879270586371,9.74411609467566,4.060091383850574
1772649738027762700,6.4187626953125,-5.466974197527766,9.743813312336801,4.048665149950981
1772649738037803800,6.4288037109375,-2.576727972561121,11.125333721220493,2.763841612756252
1772649738047844600,6.4388447265625,-1.8610023998193441,9.036243135130405,3.3774949043810367
1772649738057885700,6.4488857421875,-1.0611141505300998,6.931780792385339,3.141768332186341
1772649738067926500,6.458926513671875,-0.6683358989268541,5.398438421440124,2.605125799527764
1772649738077968600,6.46896875,-0.0289700738966465,4.195649024331569,1.8041309041708706
1772649738088009500,6.479009521484375,0.6298562384068965,2.8399317497462033,0.6534263529561459
1772649738098050600,6.489050537109375,1.2609293052576482,1.2585130378961562,-0.4318897802859544
1772649738108091600,6.499091552734375,1.8048909287579356,-0.3569681025534868,-1.5203253607228397
1772649738118132500,6.509132568359375,2.0682244698025287,-1.9621873767077922,-2.42839166065827
1772649738128174800,6.5191748046875,2.255153839471936,-3.607971300962567,-3.2359728025376793
1772649738138215700,6.529215576171875,2.411869564924389,-5.173450100880861,-3.6526042234152554
1772649738148256800,6.5392568359375,2.6212539275079965,-6.554762419971824,-3.8494659351646896
1772649738158297900,6.5492978515625,3.062362787038088,-7.539203080666065,-4.269421532028913
1772649738168338700,6.559338623046875,3.761950733318925,-8.354309503483773,-4.56741780565381
1772649738178380800,6.569380859375,4.063665150684118,-9.519591884496808,-4.615379580268264
1772649738188421600,6.579421630859375,4.199459522530436,-10.738436344349383,-4.5027451347351075
1772649738198462700,6.589462646484375,4.138822975260019,-11.677648454785347,-4.261975892198086
1772649738208503800,6.59950390625,3.7987960706353183,-12.356046898043155,-3.809911923411488
1772649738218544600,6.609544677734375,3.3720302092343566,-12.742041773116588,-3.2066087608873843
1772649738228586800,6.619586669921875,2.784461791458726,-12.608041298949718,-2.3626614435106514
1772649738238627600,6.629627685546875,2.5773347062826155,-11.838455102813244,-1.644646444657445
1772649738248668700,6.639668701171875,2.338709051645547,-10.81828437256813,-1.1394430794227868
1772649738258709800,6.649709716796875,1.9445802622161805,-10.023066891568899,-0.7379795631911605
1772649738268750600,6.65975048828125,1.6380582984387875,-9.509909279394149,-0.6792678465034813
1772649738278792700,6.669792724609375,1.4835774924315512,-9.269128930941223,-0.9849499253906309
1772649738288833500,6.67983349609375,1.4824224771775305,-9.23701880545318,-1.3850181878715753
1772649738298874600,6.68987451171875,1.632806953781843,-9.251541836324334,-1.7696525882467626
1772649738308915700,6.699915771484375,1.8278600086741148,-9.276921192252635,-2.1695228439375756
1772649738318956800,6.709956787109375,1.9132674245856702,-9.291505013400316,-2.5093831598237157
1772649738328999000,6.7199990234375,1.8470248740017412,-9.317261970469355,-2.6946093788370487
1772649738339039700,6.730039794921875,1.43327573056221,-9.304822760134934,-2.6167653839170932
1772649738349080800,6.740080810546875,0.6001829846769571,-9.154860162204503,-2.1603885203674436
1772649738359122000,6.750121826171875,0.06380407139062881,-8.655666193452477,-1.7172814727574586
1772649738369162800,6.760162841796875,0.41538112855553627,-7.749092616292834,-2.002332340091467
1772649738379204900,6.770204833984375,1.7939936871685087,-6.330308936941623,-2.721235812216997
1772649738389245700,6.78024560546875,2.8836393740475175,-4.54584134913981,-3.1128491116940973
1772649738399286800,6.790286865234375,2.677709974223375,-2.2415748114526273,-2.770378321048617
1772649738409327900,6.800327880859375,1.354828216791153,0.8107400443017482,-2.7420965216770767
1772649738419368700,6.81036865234375,1.244930502745509,4.789231587830185,-3.2815178713992235
1772649738429410800,6.820410888671875,0.9229290841549634,9.790625916916131,-2.6627275091469285
1772649738439451600,6.83045166015625,0.837366331551224,9.771361244475841,-2.5724352438032625
1772649738449492700,6.84049267578125,0.7879125648133456,9.75757938736081,-2.4825211641222236
1772649738459533600,6.850533447265625,-3.3750814134985205,13.109271157443523,8.888229333180188
1772649738469574700,6.86057470703125,-0.2964092966943979,6.4304153248131275,8.492907826834916
1772649738479616800,6.87061669921875,-0.028030893350392577,3.434747654432058,6.739785809889435
1772649738489657600,6.88065771484375,-1.2026776803623884,4.965582426470518,5.162237217471003
1772649738499698700,6.89069873046875,-4.106217175209522,7.23816378608346,5.0750581157118075
1772649738509739500,6.900739501953125,-6.950973568633199,7.899071580836177,4.659796229621768
1772649738519780600,6.910780517578125,-7.377408590644597,9.429290266802907,3.295368994358182
1772649738529822700,6.92082275390625,-7.390588974735141,9.431123911970854,3.263324627582729
1772649738539863800,6.93086376953125,-7.401162391197681,9.432857603895664,3.236098767004907
1772649738549905000,6.94090478515625,-7.387588623875379,9.438333404958248,3.2035666167125103
1772649738559945700,6.95094580078125,-7.3534829406559465,9.446390454685687,3.172753253036737
1772649738569986800,6.96098681640625,-7.311875503504276,9.454972405070066,3.1476804788395762
1772649738580028700,6.971028564453125,-7.274322310179471,9.462205278933048,3.1308547239840028
1772649738590069800,6.98106982421875,-7.246512512233853,9.467298802679776,3.1214015437230467
1772649738600110800,6.99111083984375,-7.228938861620426,9.470140748107433,3.118772656524181
1772649738610151700,7.001151611328125,-7.218221652773022,9.471184704202413,3.1227430214598773
1772649738620192800,7.01119287109375,-7.21300421038568,9.470828730371593,3.1315956054791805
1772649738630234600,7.021234619140625,-1.0302917267650364,9.854351662373542,3.1921874368250367
1772649738640275700,7.031275634765625,-0.9093553168326616,8.991606121024489,2.5476827876016497
1772649738650316800,7.04131689453125,-0.610910714918375,7.666454665094614,1.709223838508129
1772649738660357600,7.051357666015625,0.00946414004638791,6.072096976694464,0.5625936971254647
1772649738670398700,7.061398681640625,1.0194679888032376,4.1729193061292165,-0.5943775132685899
1772649738680440600,7.071440673828125,2.0386685588419438,1.9923194801211357,-1.611590855012834
1772649738690481700,7.081481689453125,2.927458642029762,-0.3295177855700254,-2.5425620835870504
1772649738700522800,7.091522705078125,3.3753333424329757,-2.813255339744687,-3.6094805364817377
1772649738710563600,7.1015634765625,3.812844469732046,-5.502907096174359,-4.519440833470225
1772649738720604700,7.111604736328125,4.567907050475478,-8.213571245494485,-5.610855429717898
1772649738730646800,7.121646728515625,5.026355751863122,-10.289459235662221,-6.829261498153209
1772649738740688000,7.13168798828125,4.782314355787634,-11.221408077096939,-7.023901442199945
1772649738750729000,7.14172900390625,4.5728930221945046,-11.49690376510024,-6.4276774242818355
1772649738760769800,7.151769775390625,4.339027567696571,-12.113806998431683,-5.996951427078247
1772649738770811000,7.161810791015625,4.1411014415860175,-12.589874358618259,-5.389534399494528
1772649738780852700,7.171852783203125,3.4779753862619396,-12.546160304576158,-4.289736882565915
1772649738790893800,7.181893798828125,2.5410645385056734,-11.608740338253975,-2.883753940337896
1772649738800935000,7.191934814453125,1.812567893126607,-10.330996530187129,-1.760345538458228
1772649738810975700,7.201975830078125,1.0376439161587505,-9.79521499827206,-0.9783296304680407
1772649738821016800,7.212016845703125,0.6343185515780001,-9.778482474657892,-0.24156141582801938
1772649738831058700,7.22205859375,0.6276170081127435,-9.815555775511264,0.05083382291942835
1772649738841099800,7.232099853515625,0.7969950120657682,-9.97638112823963,-0.16025632066875695
1772649738851140900,7.242140869140625,0.8262456564694642,-10.097557192146777,-0.49160000649169083
1772649738861181700,7.252181640625,0.8010545165896416,-10.11743444352746,-0.7958167620666324
1772649738871222800,7.262222900390625,0.8816133234262465,-9.946585709434746,-1.1502691554721445
1772649738881264600,7.2722646484375,1.1520488784957676,-9.704964818504452,-1.6429086610794066
1772649738891305700,7.2823056640625,1.4423469257682562,-9.472740701472759,-2.1149371211387216
1772649738901346600,7.2923466796875,1.4669944602906704,-9.264637464740872,-2.2448446269035336
1772649738911387600,7.3023876953125,1.4117080418765544,-9.07735840485096,-2.1655470721744
1772649738921428700,7.3124287109375,1.2836509862840175,-8.824673683592676,-2.222835624191165
1772649738931470600,7.322470703125,1.0518395417064428,-8.44170604738593,-2.510073480175435
1772649738941511700,7.33251171875,1.7071259894460438,-7.674244588318467,-3.1297476395249366
1772649738951552500,7.342552490234375,1.700616753682494,-6.87862554078102,-3.6341648958832025
1772649738961593600,7.352593505859375,1.6777134324789047,-5.5366556365191935,-3.7506411115363236
1772649738971635000,7.362635009765625,2.303248885077238,-4.262463383454084,-3.8816935495525597
1772649738981676800,7.3726767578125,1.5863830562591552,-2.550259652352333,-3.333533889840543
1772649738991718000,7.3827177734375,0.4181476706594229,-0.16078969689309597,-3.062851155076921
1772649739001758700,7.3927587890625,1.2081518739897756,3.1071792493641373,-4.0753924133569
1772649739011799800,7.4027998046875,4.052915208610892,7.208971009346842,-5.189004228365421
1772649739021841700,7.412841552734375,4.07990609138906,7.209134675475955,-5.162819401273131
1772649739031882800,7.4228828125,-8.20666102771461,14.582527016216515,3.6821363151088353
1772649739041923800,7.432923828125,-8.06831112616658,14.595762929886579,3.6404531823724504
1772649739051964700,7.442964599609375,-0.18527758387438953,13.026409334361553,8.16624543069601
1772649739062005800,7.453005859375,-0.44197029866501686,9.386508525174856,6.1982788860648865
1772649739072047600,7.463047607421875,-3.5325212154418226,7.34362848611772,6.8227358957767485
1772649739082088700,7.473088623046875,-4.7863726912677285,7.907585726681352,7.5912722905993455
1772649739092129800,7.4831298828125,-4.108810114312171,9.493481291684509,5.132006329858303
1772649739102170600,7.493170654296875,-4.105161528676748,9.499522909936308,5.077354702216386
1772649739112211700,7.503211669921875,-4.106898727732896,9.502285360386967,5.049400527364015
1772649739122253600,7.513253662109375,-4.104887972432374,9.50308147920072,5.044359026065469
1772649739132294700,7.523294677734375,-4.097236580896377,9.503122395732998,5.052863235038519
1772649739142335700,7.533335693359375,-4.089798539850116,9.502658285352586,5.065975230067968
1772649739152376600,7.54337646484375,-4.091463842713833,9.501112224954365,5.07861493141055
1772649739162417700,7.553417724609375,-4.10083080599606,9.49946211965978,5.083108151176572
1772649739172459800,7.563459716796875,-4.1068361838907,9.499696512937545,5.0737248212814325
1772649739182500900,7.5735009765625,-4.10066363273561,9.502776943296194,5.052067116224766
1772649739192542000,7.5835419921875,-4.078329051330686,9.508808624675869,5.022764449372887
1772649739202582800,7.593582763671875,-2.618627086135745,10.59690956633091,2.615241243089735
1772649739212624000,7.603623779296875,-2.0773545555889603,8.866154864016174,2.7524983809649943
1772649739222665700,7.613665771484375,-1.3148410743176937,7.281935707792639,2.37478676559031
1772649739232706800,7.623706787109375,-0.6429127038568258,5.578367118567228,1.6883410633467137
1772649739242748000,7.633747802734375,0.04660758352652192,3.7036096035093067,0.9556702010229229
1772649739252788700,7.643788818359375,0.7499848390877246,1.7858505665928124,0.14492686878554523
1772649739262829800,7.653829833984375,1.455320827501267,0.06367898370623588,-0.7359628896065056
1772649739272871700,7.66387158203125,2.0285585221074522,-1.6465782895028591,-1.6359401372410356
1772649739282912800,7.673912841796875,2.407888824725151,-3.324235607880354,-2.41601762451455
1772649739292953900,7.683953857421875,2.5814380499482152,-4.932676766690611,-2.955298250591755
1772649739302994700,7.69399462890625,2.7767022633731364,-6.462289887979626,-3.3719580207809803
1772649739313035800,7.704035888671875,3.050092503529787,-7.920437024948001,-3.8010657691329715
1772649739323077600,7.71407763671875,3.6258389660865067,-9.479600065848231,-4.466756706508994
1772649739333118700,7.72411865234375,4.062623532676697,-10.993416483068465,-5.2497261158317325
1772649739343159600,7.73415966796875,4.2370781823068855,-12.241092485129833,-5.691852043449878
1772649739353200600,7.74420068359375,4.467515708182752,-13.105779223674535,-5.2934734876215455
1772649739363241700,7.75424169921875,4.467956145426631,-13.609179996466636,-4.491638634309172
1772649739373283800,7.764283935546875,3.8143741635173556,-13.661453789061307,-3.8953535338535903
1772649739383325000,7.774324951171875,3.0546155339121817,-13.069072418045996,-3.205697199000418
1772649739393365800,7.78436572265625,2.647219558891654,-11.675717194461821,-2.4581343263626096
1772649739403406800,7.79440673828125,2.1690514270335433,-10.202090748810768,-1.8194240426316857
1772649739413448000,7.804447998046875,1.714149604472518,-9.358144600477814,-1.4162021384254098
1772649739423489800,7.81448974609375,1.5987433561384676,-8.952201162353157,-1.465323896729946
1772649739433531000,7.82453076171875,1.6300386581122874,-8.749427011689543,-1.6716674303129315
1772649739443571700,7.83457177734375,1.7343140022315084,-8.625990601634978,-1.8399559585288165
1772649739453612800,7.84461279296875,1.9154361469268797,-8.620309633389114,-2.114779300228506
1772649739463654000,7.85465380859375,1.9116449379503726,-8.741130307987332,-2.4238790055394173
1772649739473695700,7.86469580078125,1.6479536695092916,-8.914940814495086,-2.5395105870619417
1772649739483736800,7.87473681640625,1.439941033670306,-8.990851503264903,-2.3485927322782576
1772649739493777700,7.884777587890625,1.538274712780863,-9.184654411965608,-2.181032956728339
1772649739503818800,7.89481884765625,1.675056049837917,-9.409982339742779,-2.017932352544367
1772649739513859800,7.90485986328125,1.4107682768084109,-9.535165885725617,-1.6763301614269612
1772649739523901700,7.914901611328125,0.8463247140325605,-9.55328898691535,-1.2215796569701283
1772649739533942800,7.92494287109375,0.6056611238270998,-9.007877456867694,-0.9688886521015315
1772649739543983600,7.934983642578125,0.9672223993897437,-7.882623719382286,-1.1805495082497597
1772649739554024700,7.945024658203125,1.5259756415694952,-6.889133490791917,-1.8518742137290536
1772649739564065800,7.955065673828125,1.7259055087178945,-5.151223071503639,-1.9447085647709668
1772649739574107600,7.965107666015625,1.698354653969407,-2.8654426230996846,-1.9795123132571577
1772649739584148700,7.975148681640625,3.0620296095609665,0.6340291401773691,-2.8071494240850208
1772649739594189600,7.985189453125,4.309290016558766,5.419861733219027,-3.531588318505883
1772649739604230700,7.995230712890625,2.6656203079789877,11.216494586092233,-2.6900071457386017
1772649739614271700,8.005271728515625,2.6462498370766636,11.21036295146942,-2.6210578204140065
1772649739624313900,8.01531396484375,2.696414674693346,11.21183828471899,-2.5782056438982486
1772649739634355000,8.02535498046875,2.7827415435373783,11.22045413737297,-2.5947765472099182
1772649739644395800,8.035395751953125,-1.3887195266075432,11.002850666368007,4.6068826778188345
1772649739654436900,8.045436767578124,-2.8976205531269312,6.9555585583359,2.169934931869805
1772649739664478000,8.05547802734375,-6.258837107402086,7.3322244640499346,3.2163942418426275
1772649739674519800,8.065519775390625,-6.251133108896017,8.59786340830326,2.888202151918411
1772649739684561000,8.075560791015626,-5.075981075775623,8.793853597915172,1.1792477780014277
1772649739694601700,8.085601806640625,-4.5745396203577515,8.706038536339998,1.9887766929477453
1772649739704642800,8.095642822265624,-5.134677010372281,9.154729229301214,4.4701124466776845
1772649739714683600,8.10568359375,-5.1145507526665925,9.160291539603472,4.444623785156011
1772649739724725800,8.115725830078125,-5.086474997261166,9.165929253229498,4.42939056018889
1772649739734766800,8.125766845703126,-5.060779999512434,9.170622964003682,4.420378401693702
1772649739744807700,8.1358076171875,-5.04696657821536,9.17396350660324,4.408682118681073
1772649739754848800,8.145848876953124,-5.0393677936494345,9.177652424249052,4.386453920260071
1772649739764889600,8.1558896484375,-5.026681330555677,9.183203628635406,4.35547952080369
1772649739774931700,8.165931640625,-5.003343125066161,9.190547561657429,4.32389575727731
1772649739784972500,8.17597265625,-4.974218737390637,9.198990980353951,4.291953974093497
1772649739795013600,8.186013671875,-4.94178127964437,9.208740805473923,4.255560764458775
1772649739805054700,8.1960546875,-1.9426257671475409,9.8274274150908,0.93792543162629
1772649739815095600,8.206095458984375,-1.3231171736232936,8.080206731143594,0.5594589062310755
1772649739825136600,8.21613671875,-0.6637297203056514,6.100343412491679,0.032550270470976826
1772649739835178800,8.2261787109375,0.2658843945711851,4.143910069265962,-0.5160271762616933
1772649739845219800,8.2362197265625,1.3606630604244767,2.4076661218851805,-1.0493035934880375
1772649739855261000,8.246260986328124,2.490326284915209,0.6992384021908045,-1.6814420976132154
1772649739865301800,8.2563017578125,3.502153549706936,-1.3440408653169869,-2.520973352113366
1772649739875342800,8.2663427734375,4.345330467233062,-3.8871418780863283,-3.0893852339982986
1772649739885384700,8.276384765625,5.250256861707568,-6.6438529083102935,-3.5216605064705013
1772649739895425800,8.28642578125,5.899634962186217,-8.83574511270523,-4.194010609474778
1772649739905467000,8.296466796875,6.330552098047733,-9.965104531943798,-4.613212173101306
1772649739915507700,8.3065078125,6.078653558731078,-10.378469059979915,-4.660718897424638
1772649739925548800,8.316548828125,5.442661009526253,-11.170057829087972,-4.604045700827241
1772649739935590700,8.326590576171874,4.9792467946857215,-12.45124564012885,-4.73127741151154
1772649739945631700,8.3366318359375,4.35858479334265,-13.519928180086612,-4.907216162219643
1772649739955672800,8.3466728515625,4.173894580902159,-13.816463148987292,-4.583607892954349
1772649739965713700,8.356713623046875,3.522559208875894,-13.154952712166308,-3.669488430459797
1772649739975754800,8.366754638671875,2.5086484158083797,-11.526322751808166,-2.703901231056452
1772649739985796600,8.376796630859374,1.6038172984018921,-9.670340079846978,-2.018996913035959
1772649739995837700,8.386837646484375,1.0222054509431122,-8.72686738935709,-1.543103155850619
1772649740005878800,8.396878662109375,0.9278672712095081,-8.685300284215808,-1.4017393133088945
1772649740015919600,8.406919677734376,1.023789505264163,-8.955987110632657,-1.613165995375067
1772649740025960700,8.416960693359375,1.125607373228669,-9.179563226306438,-1.7050478679977357
1772649740036002600,8.42700244140625,1.390449565270543,-9.397432070249318,-1.7678423239544032
1772649740046043600,8.437043701171875,1.6662797459252177,-9.582006547355652,-1.9356293323889373
1772649740056084700,8.447084716796875,1.7641870163172482,-9.641644731238484,-2.083606601721048
1772649740066125600,8.45712548828125,1.5999521474063396,-9.701964467644691,-2.042792653034627
1772649740076166700,8.467166748046875,1.1367068593919276,-9.830663328272104,-1.6135608399115502
1772649740086208800,8.477208740234374,0.4382629685796797,-9.826053788650036,-0.8369871229752898
1772649740096249900,8.487249755859375,0.3548258298277855,-9.50317500270307,-0.3866347804121673
1772649740106291000,8.497291015625,0.7871886344529688,-8.772579923740029,-0.48903819317966696
1772649740116331800,8.507331787109376,1.2517962968617677,-7.659861842700838,-0.9370961411952972
1772649740126372900,8.517372802734375,0.9371635073430835,-6.187690856555104,-1.362156513852626
1772649740136414700,8.527414794921874,1.6230974606722592,-4.472495542421937,-2.1275110637687145
1772649740146455800,8.537455810546875,1.5094383482664822,-2.5934002904206515,-2.390040448823571
1772649740156496600,8.54749658203125,-0.1838718817949295,-0.41140754874944685,-1.7171451330266891
1772649740166537700,8.557537841796876,-0.23380700230896473,2.623865571311116,-1.5102068484209477
1772649740176578800,8.567578857421875,2.6549235573977232,6.1742825089275835,-2.4817408273994923
1772649740186620700,8.57762060546875,3.7956063346832987,10.199876579892635,-3.3175141906708476
1772649740196661800,8.587661865234375,3.833396551634371,10.205975481289624,-3.3001164811462163
1772649740206702600,8.59770263671875,3.9513498541027303,10.23531964919567,-3.3171658156245947
1772649740216743700,8.60774365234375,-5.919698676049709,15.856375570410489,10.98671435508132
1772649740226784800,8.61778466796875,-1.5916870078861713,9.202241506582498,7.012928797286748
1772649740236826600,8.62782666015625,-2.113848302988708,4.322314333304763,4.113241667018831
1772649740246867700,8.63786767578125,-4.007991778779029,2.2692022385686634,3.682668522289395
1772649740256908500,8.647908447265625,-5.347831100752949,0.5961281563282013,3.2374908058851957
1772649740266949600,8.65794970703125,-5.70067130972147,0.39572307288348674,2.58252993683815
1772649740276990700,8.66799072265625,-3.865618028542399,2.7450527411341668,1.4560431504264473
1772649740287031600,8.678031494140624,-2.6708634693294764,6.757225604990125,0.9420033485896885
1772649740297074000,8.688073974609376,-3.5426951111927627,11.249420704138279,1.8317236983649432
1772649740307114800,8.69811474609375,-3.535309677116573,11.242003121358156,1.9047613159164785
1772649740317155800,8.70815576171875,-3.5097140480890867,11.243591851854324,1.9556060986213384
1772649740327197200,8.718197265625,-3.4742794543534514,11.251555378079413,1.9821936612956226
1772649740337238000,8.728238037109374,-3.435838956800103,11.262519839686155,1.993545807045698
1772649740347280400,8.7382802734375,-3.3986686253130434,11.274658021247387,1.9931500857263802
1772649740357321200,8.7483212890625,-3.3638021868541834,11.288459752106666,1.9740831278152762
1772649740367362300,8.7583623046875,-2.6167633380904793,10.038671287935971,0.4424182616282254
1772649740377403100,8.768403076171875,-2.5581086122870444,9.082656511259078,1.0322381115924566
1772649740387444200,8.7784443359375,-2.506441261152923,8.84371039249599,1.7061825711160896
1772649740397486300,8.788486328125,-2.1461010518178343,8.565050687503815,2.2422429199725387
1772649740407527200,8.798527099609375,-1.5020239803567528,7.610973016369343,2.5404110430330036
1772649740417568300,8.808568359375,-0.4048115114852786,5.903030449843406,2.357860180708766
1772649740427609000,8.818609130859375,0.7974009625181555,3.921426425004005,1.674448147072643
1772649740437650200,8.828650146484375,1.9247566407188772,2.0941940467089415,0.7656962029606104
1772649740447692000,8.838692138671876,2.749763110782206,0.4689531442672014,-0.16477818200737238
1772649740457733000,8.848733154296875,3.2116476318374274,-1.2760253137111663,-1.0658080074347556
1772649740467774200,8.858774169921874,3.6583611795067785,-3.227220756283402,-2.0036367006883022
1772649740477815000,8.86881494140625,3.8769565841585396,-4.460138165152073,-2.7833710736125705
1772649740487856000,8.878856201171875,4.213193448850512,-5.630865952089429,-3.2015526465415953
1772649740497898000,8.88889794921875,4.6720191668570035,-6.906160028916597,-3.6401509845554827
1772649740507939000,8.89893896484375,4.616423828624189,-8.083380685004592,-3.7021789861842986
1772649740517980200,8.908980224609374,4.895706926211714,-8.646582138764858,-3.2276977261453865
1772649740528021000,8.91902099609375,5.040471370977163,-8.925684911349416,-2.8201959526628255
1772649740538062000,8.92906201171875,3.950349152627587,-9.762192434114217,-2.8201515289992094
1772649740548104000,8.93910400390625,3.230356131699681,-10.465118584907055,-2.485966920661926
1772649740558145000,8.94914501953125,3.0437413809373974,-10.807042847585677,-1.7525933168962597
1772649740568186000,8.95918603515625,2.703361717352271,-10.834580842852592,-1.095424124149978
1772649740578227200,8.969227294921875,2.2527058617979288,-10.506665231782197,-0.7134349775865674
1772649740588268300,8.979268310546875,1.9831135526195167,-10.02918332862258,-0.47405163644999265
1772649740598309400,8.989309326171876,1.7429650723293422,-9.571070727321505,-0.41939065645784135
1772649740608351200,8.999351318359375,1.641568936908245,-9.047193568211794,-0.319411255966872
1772649740618392300,9.009392333984374,1.7010653742328286,-8.660258781939744,-0.31485622301101684
1772649740628433200,9.01943310546875,1.939453274591267,-8.347529634085298,-0.505116344538331
1772649740638474200,9.02947412109375,2.3796523258000613,-8.163570658528805,-0.6988450189590454
1772649740648515300,9.039515380859376,2.580625272260606,-8.314802838003635,-0.9932518897898495
1772649740658557200,9.04955712890625,2.650412217453122,-8.5454189353168,-1.3896210054919123
1772649740668598300,9.059598388671875,2.522692723251879,-8.691353008383512,-1.687812947819382
1772649740678639000,9.06963916015625,2.1520678512677547,-8.752866923010348,-1.8713911073647438
1772649740688680200,9.07968017578125,1.552576355986297,-8.544595343974231,-1.9105150571376084
1772649740698721300,9.08972119140625,1.8183339093074202,-7.857319766777754,-2.008349846815318
1772649740708763100,9.09976318359375,2.1292092459887266,-6.725425276103615,-2.1406110760994252
1772649740718804200,9.10980419921875,1.5894634866178035,-5.393583382624388,-2.2071783285930753
1772649740728845000,9.119844970703125,0.7218567689731716,-3.2251053715646263,-1.9338300278820095
1772649740738886100,9.12988623046875,1.1805404481604695,-0.38686405912339683,-1.5431221528120338
1772649740748927200,9.13992724609375,3.433781732009351,2.9120377855360506,-1.5785693137682972
1772649740758968000,9.149968017578125,3.916548005312681,4.517963746654987,-2.418252105568349
1772649740769010200,9.16001025390625,2.871622773039341,8.239070428410171,-2.152644628242403
1772649740779051000,9.170051025390626,2.879823030629754,8.24444393814206,-2.1674762866713104
1772649740789092000,9.180092041015625,-5.861437625738978,10.089949055230617,2.018786192894727
1772649740799133200,9.19013330078125,-7.411425426536798,9.78210417228639,3.950271118955314
1772649740809174000,9.200174072265625,-4.953589206337928,7.103386482325196,3.214145586133003
1772649740819216100,9.210216064453125,-4.629235087141394,3.110412239935994,2.310529105213284
1772649740829257200,9.22025732421875,-4.796560323283076,0.36101883924901484,1.1573252845287323
1772649740839298300,9.23029833984375,-4.400522777622938,0.7566916432499885,-0.015105068542808294
1772649740849339100,9.240339111328124,-4.312484428685903,2.7373113332271575,0.5631070534750819
1772649740859380200,9.250380126953125,-3.443125898937881,4.467413709113002,1.2995154948920011
1772649740869422000,9.260422119140625,-2.1088950644955036,6.374018314808607,1.7922525425896048
1772649740879463200,9.270463134765626,-2.7247242388546464,8.599248725181818,3.885133460873365
1772649740889504300,9.280504150390625,-3.577029342471063,9.741183548355101,5.366180411913991
1772649740899545000,9.290545166015624,-3.39237157099545,9.260728766864538,5.277234300482273
1772649740909586200,9.300586181640625,-3.4278824448376892,8.34644300789237,4.173831452538073
1772649740919627300,9.310627197265624,-3.7740155573830005,8.609080967888236,3.707102414061129
1772649740929669000,9.320669189453126,-3.43633901527673,8.814586004820466,2.8426918621093034
1772649740939710200,9.330710205078125,-3.398854211013019,8.872943501242995,2.1350587026692924
1772649740949751000,9.3407509765625,-3.6402655508458612,8.80838656565845,1.8100670162215828
1772649740959792000,9.350792236328125,-3.638755438543856,7.99628867700696,1.2311522988922894
1772649740969833200,9.360833251953125,-3.742300276431441,7.603860554015636,0.9337715268172323
1772649740979875000,9.370875,-4.135007216364145,7.815095074510574,1.3981120627224444
1772649740989916200,9.380916259765625,-4.190814443781972,7.709992193526029,1.6756075462408362
1772649740999957000,9.39095703125,-3.6198639833301303,7.148499297249317,1.5185489987000822
1772649741009998000,9.400998046875,-2.745354354429245,6.150044724249839,1.3193499300442635
1772649741020039200,9.4110390625,-1.5571879414349794,5.016963069617748,1.100111405183375
1772649741030081300,9.421081298828126,-0.5124772286951541,3.920648426368832,0.9689809334948658
1772649741040122400,9.431122314453125,0.6374789883702993,2.876424620363116,0.6304755393490195
1772649741050163200,9.4411630859375,1.0920154847502708,1.9150696517020462,0.06003127485364675
1772649741060204300,9.451204345703125,1.5576631577312945,1.037235846814513,-0.3551365032121539
1772649741070245400,9.461245361328125,2.1262164939135313,0.20740999377071856,-0.5872320254281163
1772649741080286200,9.4712861328125,2.783933383670449,-0.9776327342450618,-0.9224009686276317
1772649741090328300,9.481328369140625,3.4388650266230103,-2.2534429439008234,-1.2483717292405665
1772649741100369200,9.491369140625,4.314322165507078,-3.4971389364153143,-1.5743898361265658
1772649741110410200,9.50141015625,4.641444580373168,-4.630554937568307,-1.8417834662169217
1772649741120451300,9.511451416015625,4.534499286392331,-5.754093687829375,-2.035885357864201
1772649741130492200,9.5214921875,4.907282797715068,-7.011760338029265,-2.3078566711336372
1772649741140534300,9.5315341796875,4.930886376142501,-8.610085761016606,-2.9940149347379803
1772649741150575000,9.5415751953125,4.156272707232833,-10.085193385136128,-3.781057877109945
1772649741160616200,9.5516162109375,3.761435185012221,-10.978097333383559,-4.104658255329728
1772649741170657300,9.5616572265625,3.365688438992202,-11.414840398919582,-4.000100733268261
1772649741180698000,9.571697998046876,2.6531919112995266,-11.537882256698607,-3.244475550206005
1772649741190739200,9.5817392578125,2.078524768412113,-11.574140149515866,-2.2283535108298063
1772649741200781000,9.591781005859374,1.7729031144753098,-11.237188999074696,-1.1856035767689346
1772649741210822100,9.601822265625,1.6391522311553357,-10.23336150086522,-0.22681312483362853
1772649741220863000,9.611863037109375,1.834043227353692,-9.05229293717742,0.2293885282795876
1772649741230904000,9.621904052734376,2.4049334820508954,-8.052821880611777,0.40622393556647
1772649741240945200,9.631945068359375,2.9318109920203685,-7.743276623490452,0.5273437392417342
1772649741250987000,9.641987060546874,4.172502542021871,-7.963935390412807,0.3471666933767497
1772649741261028000,9.652028076171876,3.9526103755578395,-7.906864426669478,0.17754728188328445
1772649741271069000,9.66206884765625,3.6095357738003133,-9.500120291307567,-1.2138116533171386
1772649741281110000,9.672110107421876,3.434499232628941,-10.121155509877203,-1.862050009176135
1772649741291151000,9.682151123046875,2.6927839169755576,-9.560081131273508,-1.5358907402537763
1772649741301193200,9.692193115234375,2.1166969704180953,-8.59911603871286,-1.579751655420661
1772649741311234300,9.702234375,1.6967276372894644,-7.485749138376116,-1.612598716881126
1772649741321275000,9.71227490234375,1.7269760605588553,-6.54169484860599,-1.8550022826217114
1772649741331315700,9.722315673828126,1.7229758850067853,-5.847645247229933,-2.5211159754544497
1772649741341356800,9.732356689453125,1.2122963533833622,-4.571214275327325,-2.731551162265241
