time,seconds_elapsed,z,y,x
1772648324490717000,0.063717041015625,0.029772622451186177,-0.20175006831288336,0.07987710818275809
1772648324500756700,0.0737568359375,-0.008837094189226628,-0.13038111462593077,0.055955915173515676
1772648324510797800,0.0837978515625,-0.026395254972577095,-0.07737491610348224,0.0033337475325912235
1772648324520838700,0.093838623046875,-0.01621434495896101,-0.038465047472715376,-0.02114844036027789
1772648324530879700,0.103879638671875,0.017447393885254858,-0.005981412497162819,-0.06818981219418346
1772648324540919800,0.113919921875,0.020042671075463293,0.02511924368739128,-0.11912322303056716
1772648324550961000,0.1239609375,-0.0138859020113945,0.07697861026227473,-0.184809527971223
1772648324561001700,0.134001708984375,-0.04724544303864241,0.10657587614655493,-0.23442878746911883
1772648324571041800,0.144041748046875,-0.06964519863426685,0.11749766765534878,-0.3000815554663539
1772648324581083000,0.154082763671875,-0.08317512681484222,0.10847148063480853,-0.3506208524186164
1772648324591123700,0.164123779296875,-0.09669891751557588,0.08997486995756626,-0.3605413579303771
1772648324601164800,0.174164794921875,-0.11837415822893381,0.08768003701865673,-0.34170872023180127
1772648324611204900,0.184204833984375,-0.2137082171320915,0.06499474247992039,-0.3387400066193193
1772648324621246000,0.194245849609375,-0.21830285144597292,0.012227613410353659,-0.29770423187576234
1772648324631286800,0.204286865234375,-0.18888152665048835,-0.059362289550900456,-0.2509474491368979
1772648324641326800,0.214326904296875,-0.18592998336851596,-0.0830757580935955,-0.23721038101166486
1772648324651368000,0.224367919921875,-0.18657324970811603,-0.10838497139513492,-0.21730419579744337
1772648324661409000,0.234408935546875,-0.4252852674543857,-0.08975859685838222,-0.23004735751450062
1772648324671449900,0.244449951171875,-0.4820034722372889,0.0191448454529047,-0.2825307012066245
1772648324681490000,0.254489990234375,-0.35251112314462657,-0.04873860420584678,-0.16979535258226094
1772648324691531000,0.264531005859375,-0.3297422419756651,-0.15015432111024857,-0.15546389876045286
1772648324701571800,0.27457177734375,-0.25801205376088615,-0.17402093438804148,-0.17766235963031649
1772648324711611600,0.284611572265625,-0.1299634737357497,-0.17086451618373394,-0.29040004634223876
1772648324721652700,0.29465283203125,0.058171910722553725,-0.12056290044486521,-0.4054293511226773
1772648324731693800,0.30469384765625,0.1666989209368825,-0.10275894820690154,-0.4543748760774731
1772648324741734700,0.314734619140625,0.09103139327317476,-0.1666302396148443,-0.3866591111358255
1772648324751774700,0.324774658203125,0.020714578987658022,-0.21548048750162124,-0.30886962288208303
1772648324761815800,0.33481591796875,0.05347615412175655,-0.19532909535467624,-0.34008725650981064
1772648324771857000,0.34485693359375,0.05447890142351389,-0.1549713660031557,-0.3680564097356051
1772648324781896700,0.354896728515625,0.11775368824303149,-0.14614742355644703,-0.46174635469354686
1772648324791937800,0.364937744140625,0.3462517704889178,-0.1927332336425781,-0.3711260995045304
1772648324801979000,0.374978759765625,0.35527532716095445,-0.3187807029783726,-0.1435374602537602
1772648324812019700,0.385019775390625,0.19189561377465725,-0.2874205190747976,-0.025809271778166294
1772648324822059800,0.395059814453125,0.22818127138167618,-0.1310083066135645,0.030240239962935445
1772648324832100900,0.405100830078125,0.18834873494803905,0.041055063965916634,0.11670922069139777
1772648324842142000,0.415141845703125,-0.03444587495923042,0.26768063033819195,0.1867396923162043
1772648324852182000,0.42518212890625,-0.08204173887073993,0.37771921415925025,0.2074148160763085
1772648324862222800,0.435222900390625,-0.16122575022280214,0.26097733330726625,0.2140922480136156
1772648324872264000,0.445263916015625,-0.31080344048887487,0.18250117796361445,0.14289412084892392
1772648324882305000,0.455304931640625,-0.34386487535238264,0.06377484529614448,0.07259535367675125
1772648324892344800,0.4653447265625,-0.3520399985015392,-0.11125848100483417,0.06540719573833048
1772648324902386000,0.475385986328125,-0.4352098646193743,-0.29477438896894453,0.1514899536281824
1772648324912427000,0.485427001953125,-0.5851446977600455,-0.357903922098875,0.2682394332647323
1772648324922466800,0.495466796875,-0.7005655591413378,-0.3563631223976612,0.5016480839058757
1772648324932507600,0.505507568359375,-0.812889039029181,-0.3462941483259201,0.722384007717669
1772648324942548700,0.515548828125,-0.8877084254309534,-0.3761924429833889,0.8502763742677867
1772648324952589800,0.52558984375,-0.8285235382735728,-0.4225643180578947,0.8369947217598557
1772648324962630000,0.5356298828125,-0.7329910341888666,-0.5016033679813147,0.7532331733591854
1772648324972670700,0.545670654296875,-0.6305272695362567,-0.5846586678087711,0.6687155458942056
1772648324982711800,0.5557119140625,-0.5299821979865431,-0.6559709228724241,0.5531600983478129
1772648324992753000,0.5657529296875,-0.43681788433790203,-0.7070271563708782,0.3872431215688586
1772648325002793700,0.575793701171875,-0.34878976453393695,-0.7394967628210782,0.22674919275194405
1772648325012834800,0.585834716796875,-0.3478974918693304,-0.7244517539024352,0.14123013315945862
1772648325022876000,0.5958759765625,-0.30101912857741114,-0.6705395464509725,0.08540025551840663
1772648325032915700,0.605915771484375,-0.20264087967276573,-0.5102589681237936,0.019255173959583042
1772648325042956800,0.615956787109375,-0.1457537480637431,-0.33523616321682925,0.007058686339855193
1772648325052998000,0.625997802734375,-0.14684066651761532,-0.18046295013427732,0.031970570886880156
1772648325063038000,0.636037841796875,-0.15004150838553904,-0.024860300490260123,0.09377470063194632
1772648325073078800,0.646078857421875,-0.15604907823726533,0.09754501295089721,0.19986177034825087
1772648325083119900,0.656119873046875,-0.20830942682847378,0.12336568290591239,0.32575638720989225
1772648325093160000,0.666159912109375,-0.28707316694185137,0.06631050125360488,0.392527783973515
1772648325103201000,0.676200927734375,-0.3127184803299606,-0.08843231669068335,0.40316535171344875
1772648325113241900,0.686241943359375,-0.3468193412438035,-0.26501053434610367,0.40284591050073504
1772648325123283000,0.696282958984375,-0.37665421527624127,-0.4390285461246967,0.4574808792687952
1772648325133322800,0.70632275390625,-0.4189303454697132,-0.6092167704820632,0.5662340994544327
1772648325143363800,0.71636376953125,-0.456509696149081,-0.7470645677268505,0.756326170938462
1772648325153404700,0.72640478515625,-0.5248064027838408,-0.850937030133605,1.0547758874192834
1772648325163444700,0.73644482421875,-0.5632873784780502,-0.8722562970161437,1.2963669677332044
1772648325173485800,0.74648583984375,-0.46814270466715097,-0.8601163618892431,1.4014835849821567
1772648325183526700,0.756526611328125,-0.3937003348842263,-0.8386024492174387,1.5008648734495043
1772648325193567700,0.766567626953125,-0.3870765328302979,-0.7581628848463297,1.5832663855433464
1772648325203607800,0.77660791015625,-0.35976416301280256,-0.6759025347888469,1.6260339525155723
1772648325213649000,0.78664892578125,-0.32019378464668985,-0.5901145951271056,1.5836223593741654
1772648325223689700,0.796689697265625,-0.283348447330296,-0.45928807482123374,1.423296188339591
1772648325233729800,0.806729736328125,-0.21592472413778305,-0.32632337344288825,1.2488229801394044
1772648325243771000,0.81677099609375,-0.18047274087592957,-0.17997253626883028,1.1025099907577036
1772648325253811700,0.826811767578125,-0.21674948452413081,-0.14185761740803718,1.06812607511878
1772648325263852800,0.836852783203125,-0.23227540882751344,-0.17401333560347557,1.0643807511106134
1772648325273892900,0.846892822265625,-0.3207353441774845,-0.21654665542840956,1.0676527585186064
1772648325283934000,0.856933837890625,-0.35472412301898,-0.2238911729723215,0.9905321094371378
1772648325293974800,0.866974853515625,-0.3173281660825014,-0.2187286756426096,0.8234110175654291
1772648325304014800,0.877014892578125,-0.21829963657557963,-0.23546061473488805,0.6708335609614848
1772648325314056000,0.887055908203125,-0.28012568589150905,-0.22167174335718154,0.6891251505859196
1772648325324097000,0.897096923828125,-0.31411914090812204,-0.20158114148676395,0.6666209117025137
1772648325334137900,0.907137939453125,-0.39162265182733536,-0.17952537702322005,0.6054916124790907
1772648325344177700,0.917177734375,-0.43537499205321073,-0.11977788754701614,0.5278687129639089
1772648325354218800,0.92721875,-0.3380199487164616,-0.10770517243742943,0.5552767982408404
1772648325364259800,0.937259765625,-0.36874680315256114,-0.09123276106417179,0.5873734797254204
1772648325374299600,0.947299560546875,-0.4154387039616704,-0.07483750658035278,0.6649569240130484
1772648325384340700,0.9573408203125,-0.44290918695032594,0.0017944822013378143,0.7851837243713438
1772648325394381800,0.9673818359375,-0.4650917926639318,0.09735328977108001,0.9563041150122881
1772648325404422700,0.977422607421875,-0.4580411435000598,0.11517360862195491,1.0883515554152428
1772648325414462700,0.987462646484375,-0.5054255566179752,0.03912964886128902,1.2107546768993138
1772648325424503800,0.99750390625,-0.5691249985903502,-0.09188976366817951,1.3254732352301477
1772648325434545000,1.007544921875,-0.6580632189765572,-0.19932254890501497,1.5138224085696041
1772648325444585000,1.0175849609375,-0.7256050155907869,-0.29865619883835315,1.698501222833246
1772648325454625800,1.027625732421875,-0.7894388975977897,-0.4143377569824457,1.8215647079221904
1772648325464667000,1.0376669921875,-0.7447349557355046,-0.5096282690048217,1.9187616380877792
1772648325474707000,1.04770703125,-0.5687415522307158,-0.43050913958251474,1.9652640076741574
1772648325484747800,1.057747802734375,-0.5341895865485072,-0.12884499109983444,1.8864159502781928
1772648325494788900,1.067788818359375,-0.7287618721865117,0.28841654437482356,1.5905308235883713
1772648325504830000,1.077829833984375,-0.6579249795496463,0.6542892533957958,1.5276178558185696
1772648325514869800,1.087869873046875,-0.5404200053706765,0.9557470656514168,1.5909243529506027
1772648325524910600,1.09791064453125,-0.5241711736202239,1.2496738978803157,1.431034089115262
1772648325534951700,1.10795166015625,-0.4484595145538449,1.3710896157622336,1.1595489519275723
1772648325544991700,1.11799169921875,-0.35534079361259935,1.349945120924711,0.9952762352243065
1772648325555032800,1.12803271484375,-0.3085081691585481,1.398172268477082,0.7025074139241129
1772648325565073700,1.13807373046875,-0.17953356032967566,1.4898399138271807,0.11612462573647499
1772648325575114800,1.14811474609375,-0.043103228667378424,1.4305834227383136,-0.5188193642634898
1772648325585154800,1.15815478515625,0.03875920811370015,1.2024796005070209,-0.9435160912401974
1772648325595195600,1.168195556640625,0.2030154120735824,0.903399623298645,-1.1674605287697166
1772648325605236700,1.17823681640625,0.43430677829980846,0.545956304448843,-1.2940461235702037
1772648325615276800,1.18827685546875,0.5087849500484765,0.18430384347140788,-1.3538926895067096
1772648325625318000,1.19831787109375,0.5244694259144366,-0.10054477928876876,-1.3379372877448796
1772648325635358700,1.208358642578125,0.6771066498816013,-0.44549394274652,-1.4329706101357935
1772648325645399800,1.21839990234375,0.733976830355823,-0.8159253379851579,-1.5163772076189517
1772648325655440000,1.22843994140625,0.8262868652626871,-1.1227958229392767,-1.520407924439758
1772648325665481000,1.23848095703125,0.8918567772820591,-1.3452432268440722,-1.45867247601673
1772648325675521800,1.248521728515625,0.8371968202032148,-1.300204061678052,-1.3492521702244877
1772648325685561900,1.258561767578125,0.717369102165103,-0.9781202255010605,-1.270019789686054
1772648325695603000,1.26860302734375,0.5732132908172906,-0.6315244638800621,-1.0769259060375391
1772648325705643800,1.278643798828125,0.3731063135363161,-0.1929343091726303,-0.9504796466425061
1772648325715684900,1.288684814453125,0.20247487545609472,0.33498774141371246,-0.931619901741296
1772648325725724700,1.298724609375,0.14836509960591793,0.6994739645123481,-0.9634325055874884
1772648325735765800,1.308765869140625,0.0564563389763236,0.953183937165141,-1.0257610975980758
1772648325745806600,1.318806640625,-0.04830956513881683,1.1637865894973278,-1.0390243376664816
1772648325755846700,1.3288466796875,-0.15415347374901175,1.2525497455775736,-0.9831097043514251
1772648325765887700,1.3388876953125,-0.2107012904010713,1.2439631190180778,-0.8740576473496854
1772648325775928800,1.3489287109375,-0.2698316708922386,1.0909177526414393,-0.7814796091563999
1772648325785969700,1.3589697265625,-0.2863758323274553,0.8179080362349748,-0.7278695995219051
1772648325796009700,1.369009765625,-0.184120888119936,0.5151216057240963,-0.7151777296006679
1772648325806050800,1.37905078125,-0.0992347196035087,0.2306879935055971,-0.711314186040312
1772648325816091600,1.389091552734375,-0.042408232140541076,0.07767711392045021,-0.7476978971943259
1772648325826131700,1.399131591796875,0.12187544434815645,-0.14126900386512278,-0.7485435542382299
1772648325836172800,1.4091728515625,0.21923925551325082,-0.43413259077668187,-0.6695012894444167
1772648325846214000,1.4192138671875,0.2457978843539953,-0.6247241362154483,-0.48896585859581826
1772648325856254000,1.42925390625,0.10132979218661785,-0.6386807653754949,-0.3133107471346855
1772648325866294800,1.439294677734375,-0.061087505908310406,-0.580529605180025,-0.1379408823557198
1772648325876335900,1.4493359375,-0.12747457952946423,-0.4576438147455454,-0.004983195240050554
1772648325886377000,1.459376953125,-0.12925064929127691,-0.44570729323625563,0.09539236496165394
1772648325896417000,1.4694169921875,-0.09579086275994778,-0.5800029509574175,0.14239493915513157
1772648325906457900,1.479457763671875,-0.14629501533359288,-0.7018757649570703,0.267929490532726
1772648325916499000,1.4894990234375,-0.19146774375140665,-0.7525257557421923,0.2432946693614125
1772648325926538800,1.499538818359375,-0.17599486480951307,-0.8471084117561578,0.14195201769322155
1772648325936579600,1.50957958984375,-0.21347850002944468,-0.987869466099143,0.05126841494441032
1772648325946620700,1.51962060546875,-0.22448504721224308,-1.1484282768458127,-0.04404927734583616
1772648325956661800,1.529661865234375,-0.21028174981474876,-1.2955553590893745,-0.09153744309917092
1772648325966701800,1.539701904296875,-0.19716069469600914,-1.4286474862396716,-0.08731763344705104
1772648325976742700,1.54974267578125,-0.20048691650927067,-1.5220950007438658,-0.06182838740348816
1772648325986783500,1.559783447265625,-0.20628946530818937,-1.583591379714012,0.038702363359928126
1772648325996823600,1.569823486328125,-0.269974586494267,-1.5185352624356745,0.2167731576606631
1772648326006864600,1.57986474609375,-0.31238398767858744,-1.4382342297524213,0.3197032246507704
1772648326016905500,1.589905517578125,-0.33051030373871326,-1.2994646414875983,0.3769188575617969
1772648326026946600,1.599946533203125,-0.27385142792761324,-1.0467109466463327,0.4180231674969196
1772648326036986600,1.609986572265625,-0.30722061356604097,-0.8300199143111705,0.4325706021569669
1772648326047027700,1.62002783203125,-0.5926911676168442,-0.7943611564308405,0.3710518652245402
1772648326057068500,1.630068603515625,-0.8875450515627861,-0.743303753888607,0.2250198847413063
1772648326067108400,1.6401083984375,-1.0773831482857466,-0.6145704064697027,0.07816007513180374
1772648326077149400,1.6501494140625,-1.1823273315772413,-0.5119850612640381,0.03204904295057058
1772648326087190300,1.660190185546875,-1.0759615910500286,-0.5251221907347441,0.06105959498807788
1772648326097230300,1.670230224609375,-0.8687991422995924,-0.630045623499155,0.10482830182686448
1772648326107271400,1.680271484375,-0.8027695038139819,-0.6609650778979063,0.24887173884138464
1772648326117312500,1.6903125,-0.7464920285359025,-0.538375055539608,0.34678280862569805
1772648326127353300,1.700353271484375,-0.583291763369739,-0.3822381528884172,0.3704600368112325
1772648326137393400,1.710393310546875,-0.7586594361916184,-0.15918284621834755,0.49377501244321464
1772648326147434500,1.7204345703125,-1.0752458439961075,0.1002034185051918,0.5737323462553322
1772648326157475600,1.7304755859375,-0.9813976397365332,0.2174807214081287,0.49503816424682734
1772648326167515400,1.740515380859375,-1.1010095230668782,0.13474807766377925,0.474291582685709
1772648326177556500,1.750556396484375,-1.3443494928747415,-0.11861878063976763,0.5676528802111744
1772648326187597600,1.76059765625,-1.4022265123039483,-0.36488194441795346,0.6461243593797087
1772648326197638400,1.770638427734375,-1.4154974972873926,-0.6232651695787906,0.6794394767433405
1772648326207678500,1.780678466796875,-1.6387983031511306,-0.8632423849552869,0.7847406567789613
1772648326217719600,1.790719482421875,-1.8370032462030648,-0.9872171396702527,0.9393034419812262
1772648326227760600,1.8007607421875,-1.9120424128353595,-0.8320762623190879,1.0212950580999254
1772648326237800400,1.810800537109375,-1.605641298958659,-0.14565408708155153,0.7668537024326622
1772648326247841300,1.82084130859375,-0.7226353521302342,1.1538275055408478,0.19365897018536923
1772648326257882400,1.83088232421875,-0.7350973588183521,2.4863977132946253,-0.11849851526096462
1772648326267923500,1.84092333984375,-0.9529963056385516,3.809252582719922,-0.45671632463708517
1772648326277963500,1.850963623046875,-0.4836965398907661,4.900498836663365,-0.7087995728708804
1772648326288004400,1.86100439453125,-0.37338849147856235,4.827302667549252,-0.5308754935644566
1772648326298045400,1.87104541015625,-0.44368630880266424,3.6837849590986966,-0.6608380905173719
1772648326308085500,1.88108544921875,-0.13676643174886702,2.337063476395607,-1.3366630300253628
1772648326318126300,1.891126220703125,0.0646761780500412,1.1390297493815422,-1.779707095401734
1772648326328167400,1.90116748046875,0.1541559579670429,0.16416647984981536,-1.7521743608318268
1772648326338208500,1.91120849609375,0.39257717607319353,-0.6082447105795145,-1.6973916541561482
1772648326348248600,1.92124853515625,0.6345876508429646,-1.2028957800924778,-1.736534016368538
1772648326358289400,1.931289306640625,1.0316302818924188,-1.4804302804470062,-1.6506855786912142
1772648326368330500,1.94133056640625,1.608899716232717,-1.5139923583090305,-1.4124077145785092
1772648326378370600,1.95137060546875,2.1129744427636266,-1.4389245501041412,-1.0230290422856807
1772648326388411600,1.96141162109375,2.1983564319729805,-1.231153906327486,-0.641343847104907
1772648326398452500,1.971452392578125,2.2199664984956384,-0.8320680790126324,-0.3755079678505659
1772648326408493600,1.98149365234375,2.2412249751016495,-0.27877076415121554,-0.11916077856197953
1772648326418533600,1.99153369140625,2.445997898367047,0.17914660683870315,0.07639160415455698
1772648326428574500,2.001574462890625,2.5728867869630454,0.45349487837255,0.13085209313854573
1772648326438615600,2.011615478515625,2.3957190789818763,0.5986795943766832,-0.08690729908049107
1772648326448655400,2.0216552734375,2.108117065860331,0.7026122625380754,-0.45935193383768197
1772648326458696400,2.031696533203125,1.8332997155100106,0.725032184138894,-0.8288209137849509
1772648326468737300,2.0417373046875,1.5371721583664417,0.6733961049258709,-1.1824122333817184
1772648326478777300,2.05177734375,1.1811799151077866,0.5499532651305198,-1.406448367782682
1772648326488818400,2.061818359375,0.9374351638913154,0.3893932853400707,-1.4660874284483492
1772648326498859500,2.071859619140625,0.5448065498918294,0.1852963616400957,-1.3068126661628483
1772648326508900400,2.081900390625,0.30746348241120575,0.007848959934711457,-1.138722583128512
1772648326518940400,2.0919404296875,0.40531098544001576,-0.12823533476889132,-0.9174657041825354
1772648326528981500,2.1019814453125,0.4543590939864516,-0.21929566187560556,-0.5996914017677307
1772648326539022300,2.112022216796875,0.5811988827437162,-0.3628776188582182,-0.3071829119041562
1772648326549062400,2.1220625,0.6958396996632218,-0.48614860921800135,-0.09346358885616063
1772648326559103500,2.132103515625,0.7411223181962967,-0.6330401291400194,0.08696341318190097
1772648326569144600,2.14214453125,0.7615759081602096,-0.7463409296274185,0.2262815752401948
1772648326579185400,2.152185302734375,0.8024573691248893,-0.7596656906247139,0.313671689401567
1772648326589225500,2.1622255859375,0.7345312493681907,-0.7016612454235553,0.33345234853997824
1772648326599266600,2.1722666015625,0.5782523078978061,-0.6353495751261711,0.3793463769696653
1772648326609307600,2.1823076171875,0.4052189232423901,-0.5578314511597157,0.34984833367615936
1772648326619347500,2.192347412109375,0.31355157015323637,-0.4821685996711254,0.30932474623844025
1772648326629388500,2.202388427734375,0.3248357652336359,-0.4663654658615589,0.28499387644976376
1772648326639429600,2.2124296875,0.32521161280870436,-0.48609191059470175,0.2717699454784393
1772648326649469400,2.222469482421875,0.2871633294433355,-0.5067103357315064,0.2872334720700979
1772648326659510300,2.23251025390625,0.24698621735572812,-0.5212403808653354,0.28372517168819905
1772648326669551400,2.24255126953125,0.2468178750514984,-0.5107926366090775,0.28937983644902704
1772648326679592400,2.252592529296875,0.2170154419839382,-0.48318800584673877,0.3562025250084698
1772648326689632500,2.262632568359375,0.2129959772095084,-0.4139414511412382,0.4415495890349149
1772648326699673300,2.27267333984375,0.22945348327457904,-0.3534469426900148,0.5273715770967304
1772648326709714400,2.28271435546875,0.12484189293831587,-0.3030330987483263,0.6245585703901946
1772648326719754500,2.29275439453125,0.02718845117688179,-0.3166694099128246,0.674958824197948
1772648326729795300,2.30279541015625,-0.07059621574878693,-0.40625265020430085,0.7607279130287468
1772648326739836400,2.31283642578125,-0.11518413001596926,-0.478088636881113,0.8144454746909439
1772648326749877500,2.32287744140625,-0.15691314772069453,-0.563946134647727,0.8303617134861647
1772648326759917600,2.33291748046875,-0.14464987847507,-0.656741322723031,0.8047009102679789
1772648326769958400,2.34295849609375,-0.10984919872879981,-0.7925777801454067,0.8204540674559772
1772648326779999500,2.35299951171875,-0.07329553783535957,-0.9173299489736556,0.8583262636020779
1772648326790039600,2.36303955078125,-0.016719664132595062,-0.929908860039711,0.8937823385171592
1772648326800080600,2.37308056640625,-0.02252981171607971,-0.8202338488340377,0.9251062820635736
1772648326810121500,2.38312158203125,0.036549276979267596,-0.6280062266260386,0.8644323253922164
1772648326820161500,2.39316162109375,0.14619213948100804,-0.3268435979247093,0.7578890363410115
1772648326830202600,2.40320263671875,0.11470891371965408,-0.04174655336141586,0.7219866789631545
1772648326840243500,2.413243408203125,-0.020534546245634555,0.10591945806443691,0.6945544821582734
1772648326850284500,2.423284423828125,-0.04908376438170671,0.19747253712415694,0.6542778552189469
1772648326860324400,2.433324462890625,-0.12757102564126252,0.23665479295551775,0.6445162665959447
1772648326870365400,2.443365478515625,-0.08447568801939487,0.2712999898791313,0.6317573958531022
1772648326880406300,2.45340625,0.04918576345145702,0.2036602858483791,0.7355480251953005
1772648326890446300,2.4634462890625,0.04260053984224796,0.06967910090386867,0.9982146998289972
1772648326900487400,2.4734873046875,-0.08744140595719217,0.052957098683714864,1.3028354330949485
1772648326910528500,2.483528564453125,-0.20241466970145702,0.1431762987911701,1.4974422055244445
1772648326920569300,2.4935693359375,-0.36422669537961483,0.25683190406560896,1.6601926810964942
1772648326930609400,2.503609375,-0.5083543035462499,0.34820904203653336,1.8193221896924077
1772648326940650500,2.513650390625,-0.4959831900119781,0.3756891696363687,1.9520251713946462
1772648326950691600,2.523691650390625,-0.40463936978876586,0.348815775758028,2.03866592849344
1772648326960731400,2.5337314453125,-0.2265435871772468,0.32086452351510525,2.081330911874026
1772648326970772500,2.5437724609375,-0.10294541068971157,0.5904559559106827,2.049263310353458
1772648326980813600,2.5538134765625,-0.525541877451539,1.1311620847463608,1.6936372700586915
1772648326990854400,2.5638544921875,-0.45576910691484807,1.5632529405623674,1.5109519676998258
1772648327000894500,2.57389453125,-0.3508437744542956,1.697209575587511,1.4330600419849155
1772648327010935600,2.583935546875,-0.47214054213166234,1.739811868995428,0.9820574188195168
1772648327020976600,2.5939765625,-0.3978884342238307,1.6399860516309737,0.5854444113589823
1772648327031016700,2.6040166015625,-0.07718377744555473,1.6084475885510443,0.5162956179395318
1772648327041057500,2.6140576171875,0.017857143729925154,1.7269962265640497,0.4708616082370281
1772648327051098600,2.6240986328125,-0.03862608325332403,1.98412389870584,0.14535422735214232
1772648327061138400,2.634138427734375,-0.11003317699357866,2.176961761766672,-0.33054274470359085
1772648327071179300,2.64417919921875,-0.015829291164129972,2.081165638309717,-0.7748277500517666
1772648327081220400,2.654220458984375,0.6238543676435947,1.5366618707567452,-1.2760147923171519
1772648327091261400,2.664261474609375,1.0312976889371872,0.7476414908319712,-1.6344778096035122
1772648327101301500,2.674301513671875,1.0328916801303625,0.1488414849460125,-1.95293176484555
1772648327111342300,2.68434228515625,1.2111015906408429,-0.23892039979994295,-2.2919036074593664
1772648327121383400,2.694383544921875,1.4189669269636274,-0.6872223857045173,-2.6556612240225075
1772648327131423500,2.704423583984375,1.2386002768106759,-1.0393097304791212,-2.803473365920782
1772648327141464600,2.714464599609375,0.9675698976531624,-1.3430097687035798,-2.9409868166446684
1772648327151505400,2.72450537109375,0.6533338523671031,-1.4058593158483503,-3.0681746881872414
1772648327161546500,2.73454638671875,0.4232762657195329,-1.2383821040153502,-3.124220692797005
1772648327171586600,2.744586669921875,0.3007230682402849,-0.8461696696013211,-3.0426334196954965
1772648327181627400,2.75462744140625,0.2241658982604742,-0.37480537253916263,-2.84636236731559
1772648327191668500,2.76466845703125,0.07794599398970603,0.08892974481880664,-2.435558775808662
1772648327201708500,2.77470849609375,-0.11003244634121656,0.5378624298423529,-1.8147317931622267
1772648327211749600,2.78474951171875,-0.18190964181125163,1.0480722981274126,-1.2349728800937532
1772648327221790500,2.79479052734375,-0.06756342392414807,1.4551993930786846,-0.7091866724923253
1772648327231831600,2.80483154296875,-0.0412938411578536,1.6390741974830627,-0.31668709169998766
1772648327241871400,2.814871337890625,-0.10930267076194286,1.617868327847123,-0.11379355244040489
1772648327251912400,2.824912353515625,-0.1083686047822237,1.392697051936388,0.02410729016587138
1772648327261953300,2.834953369140625,-0.0964952116370201,1.0190314970821142,0.04885375501811504
1772648327271993300,2.844993408203125,-0.1117015485972166,0.5350485414654016,-0.037387773630023
1772648327282034400,2.855034423828125,-0.06582505582422017,0.1437649123340845,-0.12245806654170155
1772648327292075500,2.865075439453125,0.0553059998974204,-0.21748364401757717,-0.31105624620616434
1772648327302116400,2.875116455078125,0.11067746624648571,-0.5939654253363609,-0.4210759791962802
1772648327312156400,2.885156494140625,0.20106676222383973,-0.9856436067432165,-0.41813481117784973
1772648327322197500,2.895197509765625,0.327612536470592,-1.3495505686491727,-0.3412431485466659
1772648327332238300,2.90523828125,0.4008759256020188,-1.5232383255600928,-0.3274905175261199
1772648327342278400,2.9152783203125,0.33029081576913594,-1.4479577513873576,-0.2877816074721515
1772648327352319500,2.925319580078125,0.14645458980947731,-1.2830384073436258,-0.24314956180229783
1772648327362360600,2.935360595703125,0.04217500790655613,-1.0785340718865395,-0.2189832349255681
1772648327372400600,2.945400634765625,-0.0603711743324995,-0.8687439049810171,-0.1121869940266013
1772648327382441500,2.95544140625,-0.21680647540837525,-0.6995481987923383,-0.1016987716294825
1772648327392482600,2.965482666015625,-0.34573972931355235,-0.6066191552042961,-0.15447569144070147
1772648327402523400,2.9755234375,-0.48363048891723154,-0.6506541117638349,-0.2615022339642048
1772648327412563500,2.9855634765625,-0.5099038710758089,-0.7039280213117599,-0.40979017668068407
1772648327422604500,2.9956044921875,-0.5022197463139891,-0.884542362615466,-0.4837348260745406
1772648327432645600,3.005645751953125,-0.5843821889549493,-1.0713298395961521,-0.42077392750978465
1772648327442685400,3.015685546875,-0.5922279340192675,-1.1409569180518389,-0.3006494184821844
1772648327452726300,3.025726318359375,-0.5712573344439268,-1.3391478325784205,-0.20575038999542591
1772648327462767400,3.035767333984375,-0.5054544904515147,-1.4697522345662115,-0.007746084082126617
1772648327472808400,3.045808349609375,-0.3562915184661746,-1.497428176999092,0.14857055905014277
1772648327482848500,3.0558486328125,-0.25089871462434526,-1.5437749176323412,0.21535013912022113
1772648327492889300,3.065889404296875,-0.257756909956038,-1.4577654441744088,0.28314751793071624
1772648327502930400,3.075930419921875,-0.2824304557025432,-1.2988561542004347,0.2543446172945201
1772648327512970500,3.085970458984375,-0.3494169565215707,-1.044565751311183,0.25740108225569125
1772648327523011300,3.09601123046875,-0.41071898196339607,-0.682476652482152,0.20760157082006334
1772648327533052400,3.106052490234375,-0.4737725272476673,-0.27415245670080185,0.18563202333524823
1772648327543092500,3.116092529296875,-0.6389484764009714,-0.00813245305120945,0.24808672594353556
1772648327553133600,3.126133544921875,-0.8114856019720434,0.1367196699976921,0.3268929900243878
1772648327563174400,3.13617431640625,-0.8699117797166108,0.3180027043431997,0.3857859084978699
1772648327573215500,3.146215576171875,-0.8509279700443149,0.3508329607993364,0.41247137858867644
1772648327583255600,3.156255615234375,-0.8355573824331164,0.4308715431541204,0.5254428009912371
1772648327593296600,3.166296630859375,-0.9715054835364222,0.3662789517343044,0.5875241402424871
1772648327603337500,3.17633740234375,-1.069110994502902,0.20464286714494226,0.5439557782813906
1772648327613377500,3.18637744140625,-1.1792708666160703,0.03403027989566326,0.48519671532064673
1772648327623418600,3.196418701171875,-1.3378373345017431,-0.11615268278717994,0.5215053154118359
1772648327633459500,3.20645947265625,-1.4424568158835172,-0.3107271603822708,0.5193491602912544
1772648327643500500,3.21650048828125,-1.4391589433819054,-0.49566871723532674,0.5636341460891068
1772648327653540400,3.226540283203125,-1.5217083395138382,-0.6348153221189975,0.6894768866330385
1772648327663581400,3.23658154296875,-1.6363102857276797,-0.751433284330368,0.7892670481622218
1772648327673622300,3.246622314453125,-1.7375994536429642,-0.7879793464392423,0.8617134218223392
1772648327683662300,3.256662353515625,-1.7445064565524457,-0.7895914578109979,0.8789970034480095
1772648327693703400,3.266703369140625,-1.673531470619142,-0.9288929609954356,0.7953311705067754
1772648327703744500,3.27674462890625,-1.6408011674061416,-1.0096960979819298,0.601685352063924
1772648327713785300,3.286785400390625,-1.8715628106698392,-0.6542465832978487,0.41507133195400236
1772648327723825400,3.296825439453125,-1.8243521466836332,0.2508352939993143,0.013424860370904207
1772648327733866500,3.306866455078125,-1.4414882631123065,1.3430384102761745,-0.49808147746548054
1772648327743907300,3.3169072265625,-1.6487307913616298,2.4212147547662255,-0.7895163467481732
1772648327753947400,3.326947509765625,-1.725546320016682,3.50309696803689,-0.9775371649160981
1772648327763988500,3.336988525390625,-1.0465773833945393,4.171481966802477,-1.3507032458156347
1772648327774029600,3.347029541015625,-0.6567398614183068,4.155706890043616,-1.5360416930317877
1772648327784069600,3.357069580078125,-0.5747884311795234,3.5086697997331617,-1.5159227418497203
1772648327794110500,3.3671103515625,0.18488368918597697,2.331897471934557,-1.769125934024155
1772648327804151600,3.377151611328125,0.7704039422601461,1.0264186847239731,-2.102156988412142
1772648327814192600,3.387192626953125,0.8457435531437396,0.09293196619749068,-2.0763070923626423
1772648327824232700,3.397232666015625,1.2483546319752932,-0.5876549270153045,-1.8764315857499836
1772648327834273500,3.4072734375,1.839073038214445,-1.237737376371026,-1.6887018594831227
1772648327844314600,3.417314697265625,2.1423037053614853,-1.710059704810381,-1.4533192784205078
1772648327854354400,3.4273544921875,2.155010918982327,-1.6628700836122035,-1.1562985718294978
1772648327864395300,3.437395263671875,2.1960595532074567,-1.197009060141444,-0.8003326320558786
1772648327874436400,3.447436279296875,2.2499743910074232,-0.5398650018364191,-0.5196151177510618
1772648327884477400,3.4574775390625,2.50891817266047,0.05654372499883174,-0.2644134452357888
1772648327894517500,3.467517578125,2.6123499055624007,0.37683950871527194,-0.13503215530216692
1772648327904558300,3.477558349609375,2.3865008765205737,0.5861784247219562,-0.20902254353389144
1772648327914599400,3.487599365234375,2.1796984932541847,0.7655021416932344,-0.3575269054800272
1772648327924639500,3.497639404296875,1.9325430568113922,0.8128209422290325,-0.5919361114658415
1772648327934680600,3.5076806640625,1.7485840812548994,0.7334522219598293,-0.898496653687954
1772648327944721400,3.517721435546875,1.4941235824957488,0.5900386072814464,-1.187420416932553
1772648327954762500,3.527762451171875,1.1451911946207285,0.43552784452736376,-1.4918527149543166
1772648327964802600,3.537802490234375,0.8982914865046739,0.23131401644945143,-1.70429383476004
1772648327974843400,3.547843505859375,0.5906915182322263,0.050747605940699575,-1.8166257902152836
1772648327984884500,3.557884521484375,0.3878250131100416,-0.1887257515668869,-1.689003472778201
1772648327994924500,3.567924560546875,0.3424886185631156,-0.483732195726037,-1.4420244158156215
1772648328004965600,3.577965576171875,0.36921325162053104,-0.7071154191762209,-1.2328827759467065
1772648328015006500,3.58800634765625,0.52782472769171,-0.8861036205828189,-0.9315756242081522
1772648328025047600,3.598047607421875,0.6775415341675282,-0.9605927521169185,-0.6389841322362423
1772648328035087600,3.608087646484375,0.714075321316719,-0.9237713801980018,-0.30065643274486065
1772648328045128700,3.618128662109375,0.7239519876867533,-0.8072989639371633,-0.0888511266246438
1772648328055169500,3.62816943359375,0.8314967088654637,-0.6609709231168032,0.12046952307298779
1772648328065209600,3.638209716796875,0.8171241923809051,-0.4951701200634241,0.28293972039893267
1772648328075250700,3.648250732421875,0.7710980620041489,-0.30517361790835856,0.403361604937911
1772648328085291500,3.65829150390625,0.597197246864438,-0.19496201560795307,0.5706472397215664
1772648328095331600,3.66833154296875,0.4667062421232462,-0.15164660549461842,0.5953599484346807
1772648328105372700,3.67837255859375,0.43017216271311043,-0.13703063564300536,0.5813765773981809
1772648328115413800,3.688413818359375,0.3681199034258723,-0.23517595257461069,0.5426400195077061
1772648328125454600,3.69845458984375,0.17984394145309923,-0.36558921590447424,0.4842060968481004
1772648328135494400,3.708494384765625,0.14965455489456653,-0.5120417598873377,0.412151352854073
1772648328145535500,3.718535400390625,0.1271180211767554,-0.6299018311142921,0.3885534735150635
1772648328155576600,3.72857666015625,0.09492226323187351,-0.6345984644979238,0.40441637468785047
1772648328165616600,3.73861669921875,0.04149754703640938,-0.6226379775911569,0.44455710028782486
1772648328175657500,3.748657470703125,0.06819324626028538,-0.6093821901768446,0.455641535012424
1772648328185698600,3.758698486328125,0.023942893384397028,-0.594927548366785,0.49041255027279257
1772648328195739400,3.768739501953125,-0.07229717444777488,-0.5441945554733276,0.5669149213254452
1772648328205779500,3.778779541015625,-0.12297522228360175,-0.45939913398027415,0.5917579784199595
1772648328215820500,3.788820556640625,-0.14339286415129898,-0.3719523211956024,0.6685584556363523
1772648328225861600,3.798861572265625,-0.11921236261874436,-0.30694705732166766,0.7589899833202362
1772648328235901700,3.808901611328125,-0.19171733459830284,-0.25888883659541606,0.865343302757293
1772648328245942500,3.818942626953125,-0.20040975961983204,-0.2561556122392416,0.8753490023344754
1772648328255983600,3.828983642578125,-0.16016396621018647,-0.2846533924490213,0.8586455586843192
1772648328266023700,3.839023681640625,-0.06737666918039321,-0.33271979648172856,0.8282689789906144
1772648328276064500,3.849064453125,-0.057388943651318546,-0.38195290620625016,0.8416267654746771
1772648328286105600,3.859105712890625,-0.037139059565961356,-0.41601241219639773,0.8569070444539189
1772648328296146700,3.869146728515625,-0.04818623102009296,-0.3072580229669809,0.8299563475556672
1772648328306186500,3.8791865234375,-0.13095453059971332,-0.18653554804623126,0.7915171651765703
1772648328316227600,3.8892275390625,-0.30952918276935815,-0.10677461358904838,0.7393072315983474
1772648328326268700,3.8992685546875,-0.35715661086291073,-0.09057634298205375,0.6677475776448846
1772648328336308500,3.90930859375,-0.3200447315648198,-0.11268588345944881,0.6398115229710937
1772648328346349600,3.919349609375,-0.3074576371923089,-0.113004447889328,0.6853070536024868
1772648328356390400,3.929390380859375,-0.3316650267317891,-0.012943652725219726,0.8257077502004802
1772648328366431500,3.939431396484375,-0.40000469572544095,0.16564415118694303,1.0399967628952116
1772648328376471600,3.949471435546875,-0.46276159615069623,0.34798517015278335,1.3046928975299
1772648328386512600,3.9595126953125,-0.5579587308011948,0.48628830994963645,1.5489841767132282
1772648328396553500,3.969553466796875,-0.6089236327543854,0.5419704496830702,1.6985265034049748
1772648328406593500,3.979593505859375,-0.6225403624355793,0.5236030183434486,1.7567121503919363
1772648328416634600,3.989634521484375,-0.6124532681852579,0.4537544060915708,1.7687267055734992
1772648328426675500,3.999675537109375,-0.654042585158348,0.3459171317070722,1.8007818860039113
1772648328436715500,4.009715576171875,-0.6577442161552608,0.20106091700494289,1.7970193185999987
1772648328446756600,4.019756591796875,-0.5888384377114474,0.14015022896826265,1.7513675744935868
1772648328456797700,4.029797607421875,-0.465561456002295,0.2506646136075258,1.6788640638187526
1772648328466838500,4.039838623046875,-0.6559152471624314,0.48018356333374973,1.3629191687881945
1772648328476878600,4.049878662109375,-0.6154001352921128,0.66297232606709,1.0652673246867954
1772648328486919700,4.059919677734375,-0.5197124406456947,0.8287468256354331,0.9630212213728576
1772648328496960500,4.06996044921875,-0.5357058363303542,1.09776133492589,0.8137637029718607
1772648328507000300,4.080000244140625,-0.36018940268754956,1.3129542376577854,0.771239516301453
1772648328517041400,4.09004150390625,-0.020973668315261602,1.4105454278379679,0.7196858546748757
1772648328527082500,4.10008251953125,0.18508125758469104,1.5427806458979845,0.668802347394824
1772648328537123300,4.110123291015625,0.5412549948900938,1.673949111509323,0.4320983084701001
1772648328547163400,4.120163330078125,0.9673960023909807,1.601034681946039,-0.02015796801820397
1772648328557204500,4.13020458984375,1.173080049151927,1.3143401390582323,-0.6445140015736222
1772648328567245600,4.14024560546875,1.0867068569481373,0.8958516921371221,-1.3509618967518209
1772648328577285600,4.15028564453125,1.0111012886047364,0.434566890540719,-2.023508691371977
1772648328587326500,4.160326416015625,1.0699208495810628,-0.06338555371761322,-2.4948119058966634
1772648328597367600,4.170367431640625,0.7482613762959838,-0.5081541047990322,-2.7029204033255576
1772648328607408600,4.18040869140625,0.5403875644057988,-0.6853799727082253,-2.7940923741132018
1772648328617448400,4.190448486328125,0.3130257927134633,-0.5172177012205124,-2.7963737630486487
1772648328627489500,4.200489501953125,0.1726648436039686,-0.23847440959811209,-2.700978037086129
1772648328637530600,4.210530517578125,0.10478607012033461,0.07158288869857787,-2.5303344701766965
1772648328647570700,4.22057080078125,0.06213292330801486,0.4668804296463728,-2.2563974097922443
1772648328657611500,4.230611572265625,0.029046061742305753,0.7874252196878194,-1.7620123026266694
1772648328667652600,4.240652587890625,0.02344663430005312,0.9925473947823047,-1.0347978060126304
1772648328677692700,4.250692626953125,0.002837269252538681,1.1138502999395132,-0.24588804685547946
1772648328687733800,4.260733642578125,0.05876169330924749,1.2122796945095062,0.35104251189678903
1772648328697774600,4.270774658203125,0.11551555392742156,1.187482522383332,0.7269071842305361
1772648328707815700,4.280815673828125,0.09929536374956369,1.012109004342556,0.8744837638072669
1772648328717855500,4.29085546875,0.020656419059634206,0.7546154214978218,0.8023574158817529
1772648328727896600,4.300896484375,0.10958090318143367,0.5026017313688993,0.4921076637528836
1772648328737937400,4.3109375,0.043754386052489276,0.1984112792789936,0.1227567572273314
1772648328747977500,4.3209775390625,-0.0517529835909605,-0.0629722967416048,-0.2805493181310594
1772648328758018600,4.3310185546875,-0.08217208725214004,-0.3600526245653629,-0.6823083101779223
1772648328768059400,4.341059326171875,-0.04577770857363939,-0.7281383334606886,-0.9735974873796105
1772648328778100500,4.3511005859375,-0.04278992493450642,-1.180942306959629,-1.1591254658184944
1772648328788140500,4.361140625,-0.01759060174822807,-1.5461708728581667,-1.2789612210325896
1772648328798181600,4.371181640625,0.017488894939422607,-1.6963772164165973,-1.3670692742049693
1772648328808222500,4.381222412109375,-0.09016776218116283,-1.6547919910967348,-1.1674934811912476
1772648328818262500,4.391262451171875,-0.09136837014257908,-1.5997645158797502,-0.8711068347200751
1772648328828303600,4.4013037109375,0.03823533037006855,-1.4224801957815885,-0.5956070550635457
1772648328838344400,4.411344482421875,-0.04957154789865017,-1.2056056235730648,-0.2490523561052978
1772648328848384500,4.421384521484375,-0.2756780588328838,-1.0158832621842622,0.02219049675911665
1772648328858425600,4.431425537109375,-0.045001171243190766,-0.9560019171953201,0.1788642827659845
1772648328868466700,4.441466796875,0.10223229398429393,-1.106091940897703,0.38718700746744866
1772648328878507500,4.451507568359375,0.044428632052242754,-1.3103899401277304,0.4327184861950576
1772648328888547600,4.461547607421875,-0.002449146717786789,-1.4837299065142868,0.38357290862351656
1772648328898588700,4.471588623046875,0.1003776060283184,-1.663469803071022,0.28292656865641475
1772648328908629800,4.481629638671875,0.16594810256958006,-1.8568179537415503,0.2160107949860394
1772648328918669600,4.491669677734375,0.09610855040699243,-1.973340638884902,0.17794782550819216
1772648328928710400,4.50171044921875,0.009987141007184982,-2.000605077907443,0.12869725319221614
1772648328938751500,4.51175146484375,-0.07017711355388163,-1.9074749587893485,0.024670184745639562
1772648328948792600,4.52179248046875,-0.08602554780989885,-1.6958499776720999,-0.1556897434055805
1772648328958832400,4.531832275390625,-0.13446663037389517,-1.4630126971781252,-0.34596330893635746
1772648328968873500,4.54187353515625,-0.3164519677698612,-1.2324591437071561,-0.527912405975163
1772648328978914600,4.55191455078125,-0.4994277775079012,-0.832158095383644,-0.7326506963185966
1772648328988955000,4.561954833984375,-0.6898875132605433,-0.3761182087033987,-0.7592268608160316
1772648328998995700,4.57199560546875,-0.8102464155659079,-0.07052607312202454,-0.5936424769923091
1772648329009036800,4.582036865234375,-0.8594114284902811,0.13172434592843055,-0.2983729979828
1772648329019078000,4.592077880859375,-0.9917062677830457,0.44214521684050556,0.09100319009199738
1772648329029117700,4.60211767578125,-1.09959819496423,0.8765531174272299,0.43083983284160493
1772648329039158800,4.61215869140625,-1.1979770283907651,1.1013789409011603,0.6321669995673
1772648329049199900,4.622199951171875,-1.397034788879752,1.1237234591782093,0.6959026818968356
1772648329059240000,4.632239990234375,-1.5469672839328645,1.06219551602602,0.649523646429181
1772648329069280800,4.64228076171875,-1.8309277256816625,0.7858674688518047,0.5373728927597403
1772648329079321900,4.65232177734375,-1.9798691638708112,0.46448564346432686,0.4364550423748791
1772648329089362000,4.66236181640625,-1.8574533290356396,0.04988426710963249,0.4203798136256635
1772648329099403000,4.672403076171875,-1.6815446812048553,-0.3923737624555826,0.5276445488192141
1772648329109443800,4.68244384765625,-1.5393451184913516,-0.7832768678367138,0.6625378801725804
1772648329119485000,4.69248486328125,-1.5967019134387372,-0.9952087229460477,0.8793740200668573
1772648329129524700,4.702524658203125,-1.9953703921243546,-0.8256482750982046,0.9628089668616652
1772648329139565800,4.71256591796875,-1.3974883778661489,0.25744623657166954,0.6054935121752322
1772648329149606700,4.722606689453125,-0.7381555773451924,1.7847183476924895,-0.04379727534614503
1772648329159646700,4.732646728515625,-1.0236173635676502,3.3938200162380934,-0.28214630499891935
1772648329169687800,4.742687744140625,-0.8843103074252605,4.890720369970798,-0.3325251506924629
1772648329179728600,4.752728759765625,-0.6572919423431157,5.361739799118042,-0.22015169418305158
1772648329189769700,4.762769775390625,-0.6137962072268128,4.491339943623543,-0.04741078966818749
1772648329199809800,4.772809814453125,-0.6014060967311263,2.935581158208847,-0.39887700686976313
1772648329209851000,4.782850830078125,-0.3380056279301643,1.4126403542906045,-1.0876993751168251
1772648329219891700,4.7928916015625,-0.10014905796945095,0.14704992535412312,-1.4143946506120264
1772648329229931800,4.802931884765625,0.11178630427122116,-0.6918553062021732,-1.4723729384586215
1772648329239972900,4.812972900390625,0.3969435545891523,-1.0199304917484522,-1.597598716147989
1772648329250014000,4.823013916015625,1.0302712684988975,-1.3089163604438303,-1.692369003688544
1772648329260054800,4.8330546875,1.883801237735152,-1.672912169677019,-1.509891937252879
1772648329270094800,4.8430947265625,2.1559090368658302,-1.7574550777137279,-1.3158673486255108
1772648329280136000,4.853135986328125,2.489635964563489,-1.5233055455774067,-1.1733954717766493
1772648329290176800,4.8631767578125,2.606759538209438,-1.1347247456640004,-0.8909384203281253
1772648329300216800,4.873216796875,2.8265467829942703,-0.7262982585519552,-0.4909061059433967
1772648329310258000,4.8832578125,2.8804186584353446,-0.2689683320611715,-0.3092905517078936
1772648329320299000,4.893299072265625,2.827449284791946,0.3117769616961479,-0.21032719639167188
1772648329330338800,4.9033388671875,2.63609318472147,0.9312661198675632,-0.07293152682855725
1772648329340379600,4.913379638671875,2.447412149079144,1.2691928373426198,-0.08621069511845707
1772648329350420700,4.923420654296875,1.936402070327103,1.317124801340699,-0.2137783597588539
1772648329360461800,4.9334619140625,1.54996909609735,1.0126321514338255,-0.5859253998089582
1772648329370501600,4.943501708984375,1.2001672319114207,0.5477987174451351,-0.9010641660884022
1772648329380542700,4.953542724609375,0.8754524627089499,0.06545768381655216,-1.0920343355812132
1772648329390583800,4.963583740234375,0.7018547221690415,-0.32549802853465076,-1.2623273354873061
1772648329400623900,4.973623779296875,0.5749503437429666,-0.6409253294318914,-1.245333238327503
1772648329410664700,4.983664794921875,0.5326005637913942,-0.8466787881672382,-0.9885526260577142
1772648329420705800,4.993705810546875,0.41956864337325095,-0.924666283211112,-0.6175299869276583
1772648329430745900,5.003745849609375,0.5349059181243181,-0.9512976850271224,-0.27766989023722705
1772648329440787000,5.013786865234375,0.707521661889553,-0.9130009798586368,-0.03494754087105393
1772648329450827800,5.023827880859375,0.777561997321248,-0.826667681273818,0.2498322544366121
1772648329460868900,5.033868896484375,0.8294418221622705,-0.681775226214528,0.4723838493682444
1772648329470909000,5.043908935546875,0.8905503708586097,-0.5672732332438231,0.6279698401384055
1772648329480949800,5.05394970703125,0.8941314442157745,-0.5279483540713786,0.6857433991931379
1772648329490990800,5.063990966796875,0.897351283045113,-0.5007300922781228,0.6171811734899878
1772648329501031000,5.074031005859375,0.9131678608581423,-0.5129430926412344,0.5397856529898941
1772648329511072000,5.084072021484375,0.9246770968660711,-0.5030003752976656,0.4296306031823158
1772648329521112800,5.09411279296875,0.7604989265784621,-0.44485622936487196,0.4003698757760227
1772648329531154000,5.10415380859375,0.4974351423859596,-0.32961189359426496,0.4610808034569025
1772648329541193700,5.11419384765625,0.32421967916190625,-0.27726737385094163,0.40605771215409037
1772648329551234800,5.12423486328125,0.23156097694784403,-0.31157530164420605,0.261663123614341
1772648329561275600,5.134275634765625,0.25729221505373717,-0.38972120212018485,0.06432049648016691
1772648329571315700,5.144315673828125,0.24062720371782778,-0.4527005131244659,-0.09019581923186779
1772648329581356800,5.154356689453125,0.2693821735590696,-0.4361258104205131,-0.12970233858153224
1772648329591398000,5.16439794921875,0.19066314937025308,-0.42468320990800856,-0.020398937167227266
1772648329601438700,5.174438720703125,0.12498480854034423,-0.4013222080647945,0.20970584962293504
1772648329611478800,5.184478759765625,0.12641513360440731,-0.4434276578664779,0.43182533674761653
1772648329621520000,5.194519775390625,0.08455050682127475,-0.4424368932634592,0.7194638824872672
1772648329631560700,5.204560791015625,0.15228957957327366,-0.46456280035376546,0.9272663827069103
1772648329641600800,5.214600830078125,0.21729045953303575,-0.5660802240669727,1.1061406023450195
1772648329651641900,5.224641845703125,0.28384704450219866,-0.6829904472231865,1.2675066378213464
1772648329661683000,5.234682861328125,0.30888796225637194,-0.6879834332048893,1.3111426581911743
1772648329671723000,5.244722900390625,0.2287733920559287,-0.579022707748413,1.3114420795291661
1772648329681763800,5.254763916015625,0.19073036938756704,-0.3988748149126768,1.2736515703171492
1772648329691805000,5.264804931640625,0.11480272948294877,-0.22999825767576693,1.1553965814884752
1772648329701845800,5.274845703125,0.05360299537181854,-0.02652443431019783,0.9434355002846568
1772648329711885600,5.284885498046875,-0.1490980900555849,0.16513386357724666,0.751265891874209
1772648329721926700,5.2949267578125,-0.30599311759769915,0.2716121245682239,0.5720824601564556
1772648329731967700,5.3049677734375,-0.3584031037926674,0.2864572270005941,0.5090011500824243
1772648329742007800,5.3150078125,-0.3261901024520397,0.25326865862607956,0.6010566257063299
1772648329760833800,5.333833740234375,0.0459013349533081,0.06410217755436896,1.1134663421232254
1772648329770874600,5.34387451171875,-0.018374883993715046,0.24733576144576072,1.5569117548421025
1772648329780915700,5.353915771484375,-0.1570310750119388,0.26934944033324715,1.8397057831600307
1772648329790956800,5.363956787109375,-0.24318667894229293,0.21433365555405615,1.9808204732462762
1772648329800996900,5.373996826171875,-0.32011502032205463,0.14141162720620631,2.0630352305963635
1772648329811037700,5.38403759765625,-0.1532856048732996,0.2068938609421253,2.1250427739590405
1772648329821078800,5.394078857421875,-0.1780608574286103,0.6221481482475996,1.8192010475307703
1772648329831118800,5.404118896484375,-0.6411670292332768,1.2199573895305393,0.9693180564947426
1772648329841160000,5.414159912109375,-0.6685280604980885,1.4664397490173577,1.029081985649094
1772648329851200800,5.42420068359375,-0.7956029731854796,1.4344254851192235,1.2238503783810883
1772648329861240800,5.43424072265625,-0.766899733531475,1.4717758493483066,1.038474448698759
1772648329871282000,5.444281982421875,-0.3051582742087543,1.3395914846926926,1.2488858162425458
1772648329881322800,5.45432275390625,0.23083543915227053,1.1872317624926567,1.7055496800400316
1772648329891363800,5.46436376953125,0.5517682055979967,1.1821253792643547,1.8431383879572152
1772648329901404000,5.47440380859375,0.9260577375695109,1.2504022121548652,1.4977140082031488
1772648329911445000,5.484445068359375,1.0007996748208998,1.3739338992774486,0.9532453119635581
1772648329921485800,5.49448583984375,0.9307447263419628,1.45729724214077,0.0845414467319846
1772648329931525600,5.504525634765625,0.9475970769435167,1.3255986151754855,-0.9149673114955424
1772648329941566700,5.514566650390625,1.1120879664421082,0.945552419373393,-1.828548721590638
1772648329951607800,5.52460791015625,1.3822124828010798,0.41438218064606186,-2.646539175412059
1772648329961648600,5.534648681640625,1.2740078364089131,0.008040683114528656,-3.225010679018497
1772648329971688700,5.544688720703125,0.9685749830424785,-0.14849544798731804,-3.6506025282040238
1772648329981729800,5.554729736328125,0.7132900161579251,-0.1803957301169634,-3.936223888902366
1772648329991770600,5.5647705078125,0.3888755450762808,-0.20756430754959582,-3.9928462320953604
1772648330001810200,5.57481005859375,0.23903861935213208,-0.29887948620021343,-3.8655709745302795
1772648330011851000,5.58485107421875,0.17085720966011284,-0.3149450703382492,-3.5798452766746283
1772648330021892000,5.59489208984375,0.14812690693587063,-0.06671615944504737,-3.055331573227048
1772648330031932200,5.60493212890625,0.18705401896238327,0.20167174237966537,-2.3255710453920067
1772648330041973000,5.614972900390625,0.24803192701637744,0.3642962534844875,-1.4946755172900854
1772648330052014000,5.62501416015625,0.2462678399533033,0.4954577048331499,-0.8111842809379101
1772648330062055200,5.63505517578125,0.1757324144810438,0.6313339097440243,-0.3671003511197865
1772648330072095200,5.64509521484375,0.008368892155587672,0.7098691017985344,-0.07826865007281303
1772648330082136000,5.655135986328125,-0.1266650167122483,0.7910001555651426,-0.04822013328969478
1772648330092177200,5.66517724609375,-0.28880466690957546,0.8550438809305428,-0.1951829648822546
1772648330102217200,5.67521728515625,-0.46344227189123627,0.8835650420159101,-0.389335856064409
1772648330112258300,5.68525830078125,-0.4404042183920741,0.8352011163413524,-0.49073447570353745
1772648330122299100,5.695299072265625,-0.17745704631656406,0.547806316229701,-0.6862998640321195
1772648330132340200,5.70534033203125,-0.26856618100106716,0.2556622757643461,-0.6954726199164987
1772648330142380300,5.71538037109375,-0.30963176636099815,-0.002897475007176399,-0.5812003440484405
1772648330152421000,5.725421142578125,-0.2751771235734224,-0.2045107651978731,-0.48786827261745924
1772648330162462200,5.735462158203125,-0.15622341189086436,-0.45150516586005685,-0.396483535861969
1772648330172502300,5.745502197265625,-0.036166122880578036,-0.7313853525578975,-0.0855276812903583
1772648330182543400,5.75554345703125,-0.01704027438908815,-1.0049228922307492,-0.014220686923712492
1772648330192584200,5.765584228515625,0.005312427194416523,-1.0305343033492564,0.02022796451449394
1772648330202625300,5.775625244140625,-0.03342120808660984,-0.8834300174593925,0.21383125898987054
1772648330212665000,5.7856650390625,-0.11099456937164068,-0.8445937985867261,0.3098826723821461
1772648330222706200,5.7957060546875,-0.17639672360867262,-0.9289946678042411,0.22459157632663845
1772648330232747000,5.8057470703125,-0.12825988468825816,-1.1530103439390658,0.05234802687466144
1772648330242787000,5.815787109375,-0.11807955919653176,-1.3791624475806952,-0.10486688027158379
1772648330252828200,5.825828125,-0.18343086002916095,-1.5485054532855749,-0.24873101519644258
1772648330262869000,5.835868896484375,-0.21252105317413805,-1.6149316898733377,-0.36732787626534696
1772648330272910000,5.84591015625,-0.21587094812393187,-1.5758885502517221,-0.42324689349457617
1772648330282950100,5.8559501953125,-0.15471856028586625,-1.552581908944249,-0.3967430635809898
1772648330292991200,5.8659912109375,-0.15725743111371993,-1.573735171610117,-0.34978535144254563
1772648330303032000,5.876031982421875,-0.1526274332255125,-1.5875643749982118,-0.2742002413652837
1772648330313072000,5.886072021484375,-0.18223609728664159,-1.531927243450284,-0.2196766240172088
1772648330323113200,5.89611328125,-0.19365297883599997,-1.474402690720558,-0.2956140546634793
1772648330333154300,5.906154296875,-0.3422802365094423,-1.3134089956879615,-0.38602892347350715
1772648330343194400,5.9161943359375,-0.5755237597167492,-1.0949351715892552,-0.4825158056735992
1772648330353235200,5.926235107421875,-0.8292489299386739,-0.830162537652254,-0.5076011470913887
1772648330363276300,5.9362763671875,-0.841319014699757,-0.44440380942225455,-0.4802499065682292
1772648330373317000,5.946317138671875,-0.7892273006737232,-0.13889467594921587,-0.22289061762765047
1772648330383357200,5.956357177734375,-0.7827525517016649,-0.019849194329977036,0.1456282219879329
1772648330393398300,5.966398193359375,-0.792828832297027,0.1505056187659502,0.4808582477249205
1772648330403439400,5.976439453125,-0.8317916001588106,0.4511977073460817,0.7608058005705476
1772648330413479200,5.986479248046875,-0.8856181751534342,0.7228004795640707,0.948182183355093
1772648330423520000,5.99652001953125,-1.0102651300415395,0.8213643141686916,0.9967471845597028
1772648330433561000,6.00656103515625,-1.123824581465125,0.7359352709472179,0.8427068157963454
1772648330443601200,6.01660107421875,-1.298471246536076,0.5348322683662176,0.7386753634355961
1772648330453642200,6.026642333984375,-1.388517428164184,0.1419575706511736,0.6801819656737148
1772648330463683000,6.03668310546875,-1.3003858479857444,-0.33528234044611455,0.6527367632567882
1772648330473724200,6.04672412109375,-1.3417825649961828,-0.7253185998648405,0.6905265418164431
1772648330483764200,6.05676416015625,-1.5991393697187304,-0.9288941300392151,0.6977459716759622
1772648330493805000,6.06680517578125,-1.8110227095112204,-0.5724047509133815,0.5492344493366778
1772648330503846100,6.07684619140625,-0.8104542130976915,0.5743523778498173,0.07763137508258224
1772648330513886200,6.08688623046875,-0.28729250878095625,2.0172820719420907,-0.4117065316960215
1772648330523927300,6.09692724609375,-1.2248878316700458,3.669637775802612,-0.5545911540642381
1772648330533968100,6.106968017578125,-1.1602528624132276,5.281873650720716,-0.5413555326551198
1772648330544009200,6.11700927734375,-0.809476015715301,5.673027515992522,-0.3924548648677766
1772648330554049300,6.12704931640625,-0.6159130532503128,4.58052921616137,-0.5514528560385108
1772648330564090400,6.13709033203125,-0.7322653502628207,2.840128149101138,-1.011876072369516
1772648330574131200,6.147131103515625,-0.3012269261091947,1.2580384061217307,-1.7649942410469055
1772648330584171300,6.157171142578125,0.19405337633043526,0.007960603615641593,-2.251653137874603
1772648330594212400,6.16721240234375,0.45195320188850163,-0.8710895913243293,-2.439064738103002
1772648330604253200,6.177253173828125,0.802135297563672,-1.5212538737446069,-2.4246887144871057
1772648330614293000,6.18729296875,1.0480220292448996,-1.9162287586092948,-2.1880577407985924
1772648330624334000,6.197333984375,1.4261249820247293,-1.8687328479409218,-1.813272534264624
1772648330634375200,6.207375244140625,1.8087161861345171,-1.525843539622426,-1.3787515286922454
1772648330644416000,6.217416015625,2.156135539098084,-1.0732973402768373,-0.9998917661957443
1772648330654456000,6.2274560546875,2.4196070273086425,-0.5843465331196784,-0.7343211137488483
1772648330664497200,6.2374970703125,2.429593876054883,-0.11256021125316619,-0.5514991793982684
1772648330674538200,6.247538330078125,2.606750770381093,0.22866320967972278,-0.3101508217990398
1772648330684578300,6.257578369140625,2.610235982148349,0.4020972840905189,-0.2273313765540719
1772648330694619100,6.267619140625,2.4136019416749477,0.5080658419936895,-0.27107363377735016
1772648330704660200,6.27766015625,2.157433469954133,0.5025093769103288,-0.4387396461807191
1772648330714700300,6.2877001953125,1.8725366241380572,0.48389118568003175,-0.8035669378019868
1772648330724741000,6.2977412109375,1.5820616859287022,0.48808337667286394,-1.1708465910114347
1772648330734782200,6.3077822265625,1.336970196278393,0.42794542657434936,-1.356102912902087
1772648330744823300,6.3178232421875,0.9530041966840624,0.33852935954332347,-1.3541716525785623
1772648330754863400,6.32786328125,0.6331912280485034,0.28577976613044737,-1.3171740473099052
1772648330764904200,6.337904296875,0.3953212140843272,0.22116145574748514,-1.2073308399304747
1772648330774945300,6.3479453125,0.2776107804611325,0.1281365505695343,-0.9439448380462825
1772648330784985000,6.357985107421875,0.466852080334723,-0.08876374060213565,-0.7040045936793089
1772648330795026200,6.368026123046875,0.6546662700146436,-0.2934557075858116,-0.49315088919550176
1772648330805067000,6.37806689453125,0.7416089326694607,-0.42686230751276016,-0.2472412150301039
1772648330815108400,6.3881083984375,0.8236731756329536,-0.5969149227917194,-0.008147796750813723
1772648330825148200,6.398148193359375,0.8800020888373256,-0.7302163087785244,0.12946502269431948
1772648330835189000,6.40818896484375,0.8367316869094967,-0.7585387324213981,0.21935133758559822
1772648330845230000,6.41822998046875,0.7590323611572385,-0.7086813533186912,0.239386556006968
1772648330855270100,6.428270263671875,0.7295499538242817,-0.6499328117519617,0.13580050932615995
1772648330865311200,6.438311279296875,0.6887433116614818,-0.6293611483663321,0.03870397079512477
1772648330875352000,6.44835205078125,0.6262050224229693,-0.5737590881317853,-0.049163990011066194
1772648330885392100,6.45839208984375,0.6696352910876274,-0.512160417830944,-0.11514803578928112
1772648330895433200,6.46843310546875,0.6505073967695236,-0.4674474158793688,-0.16279636054039
1772648330905474300,6.478474365234375,0.6175517603680492,-0.3728624217778444,-0.2450491118133068
1772648330915515100,6.48851513671875,0.6056073478132487,-0.2587748548269272,-0.26135157344713805
1772648330925555200,6.49855517578125,0.5121779534876346,-0.13256605744957922,-0.28628187043368813
1772648330935596300,6.50859619140625,0.41512803057730197,-0.03210428026914596,-0.21567761750891803
1772648330945637000,6.51863720703125,0.3346381973236799,-0.013703531181812285,-0.17701807037740944
1772648330955677200,6.52867724609375,0.2978337765395641,-0.01651449694931507,-0.10581541316807269
1772648330965718300,6.53871826171875,0.27789310453385113,-0.013951952984929085,-0.0312944251909852
1772648330975759400,6.54875927734375,0.15734335583150386,-0.010664017355442047,0.11608093272522091
1772648330985799200,6.558799072265625,0.03776303668320179,-0.06061316639482975,0.21799597745388746
1772648330995839700,6.56883984375,0.030374095475673674,-0.17242402058541773,0.319427914840728
1772648331005880800,6.578880859375,-0.03153846307992935,-0.25526012470424175,0.43684681817144155
1772648331015922000,6.588921875,-0.01939765117019415,-0.30235797596573827,0.5455585373029113
1772648331025962000,6.5989619140625,0.0011944704815745352,-0.3514139755576849,0.674578300447762
1772648331036002800,6.6090029296875,0.00914455270320177,-0.4119838873326778,0.81565572726354
1772648331046044000,6.6190439453125,0.0008349895194172858,-0.44717678126692767,0.9398885483928024
1772648331056084000,6.629083984375,0.034681145019829274,-0.454884286904335,1.0228181760139763
1772648331066124800,6.639124755859375,0.06546966651529074,-0.3913753990679979,1.0372010677620769
1772648331076166000,6.649165771484375,0.05540156922638416,-0.2811696419864893,1.010909857685864
1772648331086205700,6.659205810546875,-0.007881400899589061,-0.18163433200120924,0.9749817813448607
1772648331096246800,6.669246826171875,-0.0015714871004223823,-0.1311035836815834,0.903926423651725
1772648331106287600,6.67928759765625,-0.00104307931214571,-0.17427052523493766,0.8387814590461552
1772648331116328700,6.68932861328125,0.020109891092777252,-0.19450375044643878,0.7798879560507833
1772648331126368800,6.69936865234375,-0.04379413354098797,-0.19988661252856255,0.7810600685700774
1772648331136409900,6.709409912109375,-0.04681085101366043,-0.18776888923346996,0.8032698545515536
1772648331146450700,6.71945068359375,0.013979717774689197,-0.1872907503277063,0.8249649690091609
1772648331156490800,6.72949072265625,-0.012996844217181206,-0.14907529370188713,0.9071360333479941
1772648331166531800,6.73953173828125,-0.12059037297368048,-0.03583586801290512,1.0304936790779233
1772648331176572700,6.74957275390625,-0.1710579929292202,0.03377659739553928,1.1858426462218166
1772648331186612700,6.75961279296875,-0.24758506003171205,0.05394084902405739,1.347519062821567
1772648331196653800,6.76965380859375,-0.3418020976036787,0.03180442053973675,1.4427066989913582
1772648331206695000,6.77969482421875,-0.4059881540492177,-0.018455694144964216,1.5364301078274845
1772648331216735700,6.78973583984375,-0.4238444209963083,-0.11158639778494835,1.5900168827168641
1772648331226775800,6.79977587890625,-0.43094870004355906,-0.21515198619961737,1.686424269939959
1772648331236817000,6.80981689453125,-0.518210511650145,-0.33727672913372514,1.8513202331081031
1772648331246858000,6.81985791015625,-0.5446025517523289,-0.5057406139165163,1.934120243000239
1772648331256897800,6.829897705078125,-0.4371165750235319,-0.6369868209391832,1.9937996356762944
1772648331266939000,6.83993896484375,-0.33757103590518234,-0.5403741204023361,1.9979367354810236
1772648331276980000,6.84997998046875,-0.5635504133284092,-0.12968845618665217,1.7052761237956582
1772648331287019800,6.860019775390625,-0.6747700236275792,0.3382160558104515,1.3905128397651016
1772648331297060600,6.870060546875,-0.4975501470677554,0.7632838811218738,1.3087244911335407
1772648331307101700,6.880101806640625,-0.4228817134439945,1.1631699189037084,1.097818910332024
1772648331317142800,6.890142822265625,-0.30535511195510623,1.367051154026389,0.858444483154267
1772648331327182800,6.900182861328125,0.15398016300871967,1.4611533330470323,0.7881710696190595
1772648331337223700,6.9102236328125,0.5047708921015263,1.6656950779050588,0.704855803681165
1772648331347264800,6.9202646484375,0.7490934432059526,1.9015835626631974,0.3776559396646917
1772648331357304800,6.930304931640625,0.926569632614404,2.116900968557596,-0.17837986024990676
1772648331367346000,6.940345947265625,1.1285782057330012,2.148684346309304,-0.7114343052886426
1772648331377386800,6.95038671875,1.257291971668601,1.8745885882318019,-1.2269551394633949
1772648331387426800,6.9604267578125,1.3907912183150648,1.3524328460872173,-1.7649350582055747
1772648331397468000,6.970468017578125,1.4211505546130239,0.6964052245914936,-2.297609125624597
1772648331407508700,6.9805087890625,1.2362526907712221,0.10284487292468547,-2.7679496325969692
1772648331417549800,6.9905498046875,1.0157610971093176,-0.3792272806346416,-3.159140907269716
1772648331427590000,7.00058984375,0.7974152833044529,-0.7827695028364657,-3.391248119923472
1772648331437631000,7.010630859375,0.5175941333174705,-1.0303665455669164,-3.522591649840772
1772648331447671800,7.020671875,0.23114450510144233,-0.9518705164790153,-3.585558393624425
1772648331457711600,7.030711669921875,-0.0231947053655982,-0.5415221213936805,-3.479128940211236
1772648331467752700,7.040752685546875,-0.1453533505693078,-0.06870879456698895,-3.269986423559487
1772648331477793800,7.050793701171875,-0.14093524186611175,0.3931511765688658,-2.9656361047327517
1772648331487834600,7.060834716796875,0.013068155887722968,0.9759674313813448,-2.4657874714642762
1772648331497874700,7.070874755859375,0.09518237547278403,1.4141215327590704,-1.5794005038954317
1772648331507915800,7.080915771484375,0.03696750239133834,1.6270587655186652,-0.5301933565191924
1772648331517956600,7.09095654296875,0.05686345847249031,1.7032938639372586,0.30343101202473044
1772648331527996700,7.10099658203125,0.07492898425608872,1.6493489232599734,0.7635096527017653
1772648331538037800,7.111037841796875,0.03810410520583391,1.505052096006274,0.8908743421159684
1772648331548078800,7.121078857421875,0.2701043503537774,1.2478601264566183,0.7116574465200305
1772648331558119000,7.131118896484375,0.3023889556258917,0.8390273966312408,0.3923129721790552
1772648331568159700,7.14115966796875,0.11794511916190385,0.4623503850013017,0.1711560464762151
1772648331578200800,7.151200927734375,0.09831015210449695,0.0567547374010086,-0.1487605286642909
1772648331588241000,7.161240966796875,0.05752922890484333,-0.34914778419137,-0.432402552113682
1772648331598282000,7.171281982421875,0.06722820062041282,-0.7308867553859949,-0.580936432415247
1772648331608322800,7.18132275390625,0.022264146517217157,-1.0816676937371492,-0.7126834285669028
1772648331618364000,7.191364013671875,-0.0610834142550826,-1.3372422912180424,-0.7559918244175613
1772648331628404000,7.201404052734375,-0.002657528771460056,-1.5147697724223137,-0.6976597546972334
1772648331638444800,7.21144482421875,-0.07369915020018815,-1.6447013897150753,-0.5546716719545424
1772648331648486000,7.22148583984375,-0.12774755125194787,-1.4645020589530466,-0.33704905785769224
1772648331658525700,7.231525634765625,-0.23066315132528542,-1.090849363580346,0.047872488895803686
1772648331668566800,7.24156689453125,-0.38624505044221874,-0.8441852177858352,0.3154176562860608
1772648331678607600,7.251607666015625,-0.3463277583345771,-0.7369687056481837,0.3472137473888695
1772648331688648700,7.261648681640625,-0.2436430444076657,-0.6461597229540348,0.4522999694995582
1772648331698688800,7.271688720703125,-0.23635756357461213,-0.7130249354809522,0.45393896887823937
1772648331708729900,7.281729736328125,-0.36287148137837644,-0.904067147296667,0.368748118326813
1772648331718770700,7.291770751953125,-0.48143122530728577,-1.1021779823243618,0.30552462330311536
1772648331728810800,7.301810791015625,-0.5243424385339022,-1.2924328431546688,0.2012109930001199
1772648331738851800,7.311851806640625,-0.5754071475997566,-1.3915502199888228,0.1427244633704424
1772648331748892700,7.321892578125,-0.5230225881069899,-1.4623843361467121,0.13032909217774868
1772648331758932700,7.3319326171875,-0.3918628903239965,-1.6294471219599247,0.13879618401080368
1772648331768973800,7.341973876953125,-0.14094956265240907,-1.8708347886562346,0.10572875779792666
1772648331779015000,7.352014892578125,-0.044885728169977664,-2.1004870093733072,0.12320683908239007
1772648331789055700,7.3620556640625,-0.2333113277465105,-2.1086901895731684,0.07338876907676457
1772648331799095800,7.372095703125,-0.49294484522938725,-1.8795377350717781,-0.07351400289162993
1772648331809137000,7.382136962890625,-0.6678367172330617,-1.462308348301053,-0.25417116042375565
1772648331819178000,7.392177978515625,-0.7574187884807586,-0.9212760562509298,-0.37235783325657246
1772648331829217800,7.4022177734375,-0.8137474094241857,-0.46175358815193174,-0.3484128940455615
1772648331839259000,7.4122587890625,-0.7941396226346492,-0.1949205145537853,-0.2739754926986992
1772648331849300000,7.422300048828125,-0.8782526148214935,0.12565993132293224,-0.14633885447531939
1772648331859339800,7.43233984375,-1.0231748804971574,0.49066637890338893,0.14390782793611287
1772648331869380600,7.442380615234375,-1.1516945851653813,0.8231360000163316,0.4566306921802461
1772648331879421700,7.452421630859375,-1.2157517545342444,0.8734031289637089,0.6051007134653628
1772648331889462800,7.462462890625,-1.179030628119409,0.7732406269907951,0.5919499938607216
1772648331899502800,7.4725029296875,-1.2104583243012428,0.4420552004694938,0.5581142136238515
1772648331909543700,7.482543701171875,-1.3401719149291516,-0.020269465568661688,0.5747448842987418
1772648331919584800,7.492584716796875,-1.3436597570449114,-0.3895499372065067,0.6024909693583845
1772648331929624800,7.502624755859375,-1.262006725230813,-0.6730635119706392,0.6539648437470197
1772648331939666000,7.512666015625,-1.2846470115840434,-0.9473872335851192,0.7693209693290293
1772648331949706800,7.522706787109375,-1.3668360499709844,-1.1250690285682678,0.8887997277989983
1772648331959746800,7.532746826171875,-1.6104603896781802,-0.9674000940442085,0.8045664702333509
1772648331969788000,7.542787841796875,-1.4607313082426785,-0.1708615935742855,0.3196751676000654
1772648331979828700,7.552828857421875,-0.6947779156506061,1.1957084989368916,-0.47721477665603157
1772648331989869800,7.562869873046875,-0.8599959503799677,2.613089910274744,-0.9554422374859451
1772648331999910100,7.57291015625,-1.274090253995359,4.235688189253211,-0.8105700945623219
1772648332009951200,7.582951171875,-1.0751806698054074,5.239474770930409,-0.6761629392907023
1772648332019992000,7.592991943359375,-0.8471230248034,4.820326983317733,-0.5517809189490973
1772648332030032100,7.6030322265625,-0.5827855674132705,3.5225557017445563,-0.8056463744245469
1772648332040073200,7.6130732421875,-0.35312574791163204,2.2933692960977554,-1.3122444819532335
1772648332050114000,7.623114013671875,0.029788112281262873,1.2101309920430183,-1.5612851476207374
1772648332060153900,7.63315380859375,0.32179099071025846,0.40273616651594635,-1.6948675425060094
1772648332070195000,7.64319482421875,0.6004881051033735,-0.08411562253534793,-1.9645850854992866
1772648332080236000,7.653236083984375,0.9325508989810943,-0.44412031630575655,-2.221443146919459
1772648332090276900,7.66327685546875,1.3404048469021916,-0.6435691219389438,-2.1201564632222056
1772648332100317000,7.67331689453125,1.6470061595261096,-0.7585305491149426,-1.8637657270528376
1772648332110358000,7.68335791015625,1.8893918973490595,-0.8462269527465105,-1.6959752114869653
1772648332120399000,7.693399169921875,2.1025077015459535,-0.9272066153436899,-1.5060375999122857
1772648332130439200,7.703439208984375,2.4253365108713507,-0.9207359580248594,-1.304262104897201
1772648332140480000,7.71347998046875,2.4680513247430325,-0.7627250781953334,-1.1694210882529616
1772648332150521000,7.72352099609375,2.6549071907848116,-0.4509790961593389,-0.857903800406307
1772648332160561200,7.73356103515625,2.85828982873559,-0.21136428435444832,-0.5246593955285846
1772648332170602000,7.74360205078125,2.6786422866374253,-0.004503741160035133,-0.3367829542674124
1772648332180643000,7.75364306640625,2.24772398173213,0.3515139288008213,-0.36520576954483985
1772648332190684200,7.76368408203125,1.8896543476775287,0.7585124289363622,-0.6216098035871982
1772648332200724200,7.77372412109375,1.6272005120769142,1.0655500871509314,-0.9850690217256546
1772648332210765000,7.78376513671875,1.384751645889878,1.1967916179984808,-1.2605125411503015
1772648332220806100,7.79380615234375,0.9431360058814287,1.1242524514883756,-1.4099901320427655
1772648332230846200,7.80384619140625,0.5575538032621145,0.9247036926120519,-1.4341761865332723
1772648332240887000,7.813886962890625,0.24508242956101892,0.6173159057855606,-1.1710682709380984
1772648332250928000,7.82392822265625,0.07765987052470445,0.2873462847948074,-0.7929908909909427
1772648332260968000,7.833968017578125,0.07371727037876843,-0.0020984335839748383,-0.44484819218888877
1772648332271009000,7.844009033203125,0.22411825972646474,-0.27668986622393127,-0.1372868023611605
1772648332281049900,7.8540498046875,0.3497460423454642,-0.5274339748084544,0.1799286971271038
1772648332291091000,7.864091064453125,0.46199587247520685,-0.7488496975779533,0.49622372076958415
1772648332301131000,7.874131103515625,0.5918108776509762,-0.8438608081370592,0.7788903233155607
1772648332311172000,7.884172119140625,0.6936588484928011,-0.842173293441534,0.9780325472176075
1772648332321213000,7.894212890625,0.7164654313236475,-0.7891460521310567,1.111168805770576
1772648332331253000,7.9042529296875,0.7051864969402551,-0.7252882047265767,1.1744494378089905
1772648332341294000,7.914294189453125,0.7321858552858233,-0.6001350538820028,1.1800270918108522
1772648332351335200,7.924335205078125,0.6260030701100826,-0.4264987348973751,1.103892969548702
1772648332361375000,7.934375,0.44621173562705513,-0.2887666729867458,1.0793893735416233
1772648332371416000,7.944416015625,0.28771570262908935,-0.254172329467535,1.0045140191689133
1772648332381457200,7.95445703125,0.26717268081605433,-0.3215542593449354,0.7728755930706859
1772648332391497200,7.964497314453125,0.32828210629522797,-0.4498340177774429,0.504465479414165
1772648332401538000,7.9745380859375,0.28117198007404803,-0.5984475391864776,0.29897023322358723
1772648332411579100,7.9845791015625,0.19152794950604438,-0.682636811479926,0.14680296485573052
1772648332421620200,7.9946201171875,0.19562632473558186,-0.7311790163308381,0.09159677207097411
1772648332431660000,8.004659912109375,0.07618629084080457,-0.7359609899103641,0.12979206269159912
1772648332441701000,8.014701171875,-0.08468027068078518,-0.6239215876609087,0.22704101530537008
1772648332451742200,8.0247421875,-0.18158464764058588,-0.5032891291111707,0.3994764340676367
1772648332461782000,8.034781982421874,-0.37315292915701864,-0.43209728555679316,0.5268449228741229
1772648332471823000,8.044822998046875,-0.4228019262060523,-0.4041197298288345,0.5244293130997568
1772648332481864000,8.054864013671875,-0.31651158900260923,-0.471857633537054,0.4901873632147908
1772648332491904000,8.064904052734375,-0.20258242748379707,-0.656155631789565,0.5580876178778708
1772648332501945000,8.074945068359375,-0.16831570848375557,-0.7956061880558729,0.6907328049782663
1772648332511986000,8.08498583984375,-0.1259048459947109,-0.8334832065075636,0.8182850528538227
1772648332522027000,8.095027099609375,-0.12472031238526105,-0.7439537422299385,0.919313158680126
1772648332532067000,8.105067138671876,-0.0932668972402811,-0.6433984415471553,0.9817468185003846
1772648332542108200,8.115108154296875,0.014195114091038703,-0.5176823961228132,1.0550501743160188
1772648332552149000,8.12514892578125,0.09824322434812784,-0.4571370342671871,1.119482387542352
1772648332562189000,8.13518896484375,0.14096651378720998,-0.3743862703442573,1.1182697968821973
1772648332572230100,8.145230224609374,0.1288008596971631,-0.25044541789889335,1.0848008041311055
1772648332582271000,8.15527099609375,0.19373685772716998,-0.16515081471204757,1.0582719128414988
1772648332592311000,8.16531103515625,0.1901651367202401,-0.140893740811944,0.9549125145234167
1772648332602352000,8.17535205078125,0.18966361693888903,-0.13961013074219225,0.7999937554903328
1772648332612393200,8.185393310546875,0.17608868057280777,-0.2044634189248085,0.6534503183536231
1772648332622434000,8.19543408203125,0.13085370057374238,-0.30454584139883517,0.5564298407334834
1772648332632473900,8.205473876953125,0.15006488926112652,-0.35718729826211926,0.49673963440246877
1772648332642515000,8.215514892578126,0.13261223467886446,-0.3075631433933973,0.4595701796982437
1772648332652556000,8.22555615234375,0.07945698307454585,-0.12231646611392498,0.4591063615787774
1772648332662596000,8.23559619140625,-0.04540566039085388,0.05381225420832634,0.48620538090653714
1772648332672637000,8.245636962890625,-0.10798954233676195,0.2156733797252178,0.5207196449268608
1772648332682678000,8.255677978515624,-0.12411591675132512,0.33965748679041863,0.5675335646804421
1772648332692718000,8.265718017578125,-0.20490151808112858,0.44419864223897454,0.6321310514710843
1772648332702759000,8.275759033203125,-0.3513526007592678,0.5781693057894707,0.6651750968083738
1772648332712800000,8.285800048828126,-0.4312777858674526,0.6330448053151368,0.6973987656734884
1772648332722841000,8.295841064453125,-0.3599053250491619,0.7259399466335773,0.7288994540262967
1772648332732881200,8.305881103515626,-0.2529530168056488,0.9770219088703394,0.7287362993538379
1772648332742922000,8.315921875,-0.12755144415795802,1.160903143015504,0.5609053787123411
1772648332752963000,8.325963134765624,0.008622282394766806,1.1936492283195257,0.7082200194172561
1772648332763003100,8.336003173828125,0.07728285390585661,1.424064250102639,0.8226756159629672
1772648332773044200,8.346044189453124,0.14635668239295482,1.7740473160743713,0.8063429783865809
1772648332783085000,8.3560849609375,0.2716033567398786,1.9183026422739027,0.8694242153953761
1772648332793125000,8.366125,0.37233342946767806,1.8351561570316552,0.8940979072723537
1772648332803166200,8.376166259765625,0.3313803645715117,1.6522171721726655,0.8478001203473657
1772648332813207000,8.38620703125,0.24767244605422017,1.3721376635104416,0.6566686958782374
1772648332823246800,8.396246826171875,0.19119097263664006,1.009331940844655,0.29416100631095465
1772648332833288000,8.406287841796875,0.26302169861644503,0.6263479380249977,-0.20358101006709037
1772648332843329000,8.4163291015625,0.40500440370887514,0.3391249873489141,-0.6273861219663173
1772648332853369900,8.426369873046875,0.6312371713712811,0.1617635103613138,-1.0443366187304257
1772648332863410000,8.436409912109376,0.7952908384963869,-0.015300444984436034,-1.5201275000631809
1772648332873451000,8.446450927734375,0.9103276689961552,-0.07527531347572804,-1.9855591922059654
1772648332883492000,8.4564921875,0.9425786642596125,-0.0448731609493494,-2.3312895691692828
1772648332893532200,8.4665322265625,0.8607955763250589,0.011119359907507896,-2.594776839470863
1772648332903573000,8.476572998046874,0.9184662595272064,0.10553425813913345,-2.8004981495022774
1772648332913614000,8.486614013671876,0.7887158440202474,0.14220657697618005,-2.8750001405179497
1772648332923654100,8.496654052734375,0.7220908699899912,0.1982195560991764,-2.8335867646336554
1772648332933695000,8.506695068359376,0.728752958227694,0.2537485510975122,-2.675787481728196
1772648332943736000,8.516736083984375,0.7241010407686234,0.23579554577767847,-2.3331498100832104
1772648332953777200,8.526777099609374,0.6386275738835334,0.15787527075111865,-1.8839906228274106
1772648332963817200,8.536817138671875,0.4324269559025764,0.035817747834324835,-1.3203275429047643
1772648332973858000,8.546858154296874,0.1679459983885288,0.1505453662544489,-0.8287358658500015
1772648332983899100,8.556899169921875,-0.054663610340654846,0.3292395531505346,-0.3410534711934626
1772648332993939000,8.56693896484375,-0.20686229676008222,0.46542204753160477,0.07317293436899781
1772648333003980000,8.57697998046875,-0.31004911499023435,0.5192968455821275,0.31229017191529274
1772648333014020900,8.587020751953125,-0.46638095569163557,0.5429688130706548,0.407707963579148
1772648333024060700,8.597060791015625,-0.4797799509689212,0.6632376990050077,0.3582860532842576
1772648333034101800,8.607101806640625,-0.5410673633635044,0.7853215254068374,0.15876915085092186
1772648333044142800,8.617142822265626,-0.19452830036580562,0.7561351784110069,-0.07016440020278096
1772648333054182700,8.6271826171875,-0.049229602593183514,0.4686772499352693,-0.1670155856706202
1772648333064223700,8.6372236328125,-0.05053688579946756,0.1009440077394247,-0.2521208037652075
1772648333074264800,8.647264892578125,-0.014841010779142379,-0.2594359490841627,-0.37040348431840536
1772648333084305700,8.6573056640625,-0.07134265020191669,-0.5564607473284006,-0.4772738133668899
1772648333094345700,8.667345703125,-0.06742664580196142,-0.8252648287385702,-0.5155101666502654
1772648333104386800,8.67738671875,-0.137577748131752,-1.1201239733815191,-0.5415262130469084
1772648333114428000,8.687427978515625,-0.051018239575624465,-1.36464350836277,-0.586279547008872
1772648333124468000,8.697468017578124,0.010627484737336636,-1.5056255119800566,-0.4313352151431143
1772648333134508800,8.7075087890625,-0.08961918838769196,-1.4824439583569764,-0.25468597807809706
1772648333144550000,8.7175498046875,-0.17219576478749513,-1.3255968616098164,-0.13979527805075048
1772648333154590000,8.72758984375,-0.1844479281172156,-1.205327391153574,-0.09080737525895237
1772648333164630800,8.737630859375,-0.22706220422387122,-1.097557921308279,0.006818009451776743
1772648333174672000,8.747671875,-0.25290888540297746,-1.0427648393690585,0.05950863921903073
1772648333184713000,8.757712890625,-0.27846447468101976,-1.0358791715085507,0.033138518687710165
1772648333194752800,8.767752685546874,-0.24785130975246428,-1.0065946248352526,-0.00047390112206339833
1772648333204793600,8.777793701171875,-0.18908347896337507,-0.9633043491631745,-0.06009396482631564
1772648333214834700,8.787834716796874,0.024727614021301268,-0.9796177705824375,-0.13118227494098245
1772648333224874800,8.797874755859375,0.15919599796086548,-1.0955290458291769,-0.16652363743521273
1772648333234915800,8.807915771484375,0.10764438216090201,-1.2606927200227975,-0.15735015089847146
1772648333244956700,8.817956787109376,0.001341185475885868,-1.326972241616249,-0.19304931385442614
1772648333254996700,8.827996826171875,-0.1557774216890335,-1.3430962779432534,-0.2532305916380137
1772648333265037800,8.838037841796876,-0.3328367008596658,-1.309001116117835,-0.3941715325925499
1772648333275078700,8.84807861328125,-0.5484101273417472,-1.1419605421364307,-0.5095126067359
1772648333285119700,8.85811962890625,-0.8207949898481368,-0.9345791899383068,-0.5655250744022429
1772648333295159800,8.868159912109375,-1.0155886631518602,-0.6969973452657461,-0.6293719620212912
1772648333305201000,8.878200927734374,-1.0396253722995519,-0.41998716104626654,-0.6852433407165109
1772648333315241700,8.88824169921875,-1.0773086217448116,-0.11957272036373615,-0.6703552028600126
1772648333325281800,8.89828173828125,-1.1286579929709435,0.025061960542201993,-0.3927622503165155
1772648333335323000,8.908322998046875,-1.1503154057666658,0.013328268128633499,-0.05743439022824168
1772648333345364000,8.918364013671875,-1.037564348116517,0.07092179444134235,0.17448109924569724
1772648333355403800,8.92840380859375,-0.9709151164278388,0.14888006339073181,0.3581817891921848
1772648333365444900,8.93844482421875,-0.9966074838280677,0.1754454142332077,0.5220555697057396
1772648333375486000,8.94848583984375,-1.1151584599286317,0.046617958790063856,0.5878894664235412
1772648333385525800,8.95852587890625,-1.2321604530215262,-0.18116496092379092,0.5241494732450693
1772648333395566600,8.968566650390626,-1.2434580921053886,-0.40048751080632206,0.40924386790953576
1772648333405607700,8.978607666015625,-1.1947522211253643,-0.6098854635238647,0.3513438329309225
1772648333415648800,8.988648681640624,-1.1657958834931255,-0.7659370259791612,0.393721012346074
1772648333425688800,8.998688720703125,-1.2032891633242369,-0.8966255991190671,0.49028687806650995
1772648333435729700,9.008729736328124,-1.3542992244809866,-1.0571744729936123,0.6947012702178209
1772648333445770800,9.018770751953125,-1.5237199715971945,-1.1218582498282192,0.861040271801129
1772648333455810800,9.028810791015625,-1.7729893314540386,-1.0145113893091677,1.0886113753952085
1772648333465852000,9.038851806640626,-2.016235777759552,-0.7030746193528175,1.2111956255998462
1772648333475892700,9.048892822265625,-1.48202719424963,0.10639642792642116,0.501007082588598
1772648333485932800,9.058932861328126,-0.7159022444829344,1.2933973042726516,-0.5026921861313283
1772648333495974000,9.068973876953125,-1.311917880347371,2.6378654550909992,-0.48279827587679025
1772648333506014700,9.0790146484375,-1.6398147867172956,4.070363187018037,-0.06657733549624681
1772648333516054800,9.0890546875,-1.1185808355927467,4.809567104372382,-0.2419903818298131
1772648333526096000,9.099095947265624,-0.8509715169250964,4.554155003976821,-0.8899147763688117
1772648333536137000,9.109136962890625,-0.9883084420382976,3.823118610987067,-1.2619827598333357
1772648333546177800,9.119177734375,-0.7751902997538447,2.712018486538529,-1.529553938447684
1772648333556217900,9.1292177734375,-0.12960808442682026,1.3714187015861272,-1.792236322107166
1772648333566259000,9.139259033203125,0.5130155733555555,0.2398375146448612,-1.9015300789102911
1772648333576300000,9.149300048828126,1.0065110382050275,-0.5137053091853857,-1.8063918348401784
1772648333586339800,9.15933984375,1.3999866244226693,-1.0010323145329951,-1.5595798050075769
1772648333596380700,9.169380615234376,1.5769535491347313,-1.2819815917670725,-1.243916065005958
1772648333606421800,9.179421875,1.692489269067347,-1.2797498871922492,-0.9823756909884512
1772648333616461800,9.1894619140625,1.9104446222499012,-1.0467553703099488,-0.7710901709586382
1772648333626502700,9.199502685546875,2.1199831524819133,-0.689022713124752,-0.6394083489976823
1772648333636543700,9.209543701171874,2.1026479867994783,-0.4004226288765669,-0.4713930847652256
1772648333646584800,9.219584716796875,2.2021967407882213,-0.25076573589444157,-0.28088234947770835
1772648333656625000,9.229625,2.15210496840775,-0.12166647777259348,-0.27795740194171664
1772648333666665700,9.239665771484376,2.0819559119045734,0.04351999277472496,-0.4096143817223608
1772648333676706800,9.249706787109375,1.911867933051288,0.24004911156892775,-0.6019992403186857
1772648333686747000,9.259746826171876,1.6750529810979962,0.45511225044131276,-0.8459743662249296
1772648333696787700,9.26978759765625,1.5391694696635008,0.5466185677498578,-1.119478149758652
1772648333706828800,9.279828857421874,1.4004150789678096,0.394439462813735,-1.2624819415271282
1772648333716868900,9.289868896484375,1.4572697696119545,0.06693477063179015,-1.4855594600290059
1772648333726910000,9.299909912109374,1.4144421430155634,0.14543138424158095,-1.4679498613193631
1772648333736950800,9.30995068359375,1.0816741234779357,0.19009177922308443,-1.126334810720384
1772648333746991900,9.319991943359375,0.8044839065164328,-0.0229921685308218,-0.7908728759236633
1772648333757032000,9.330031982421875,0.7573015918418765,-0.2810603363931179,-0.6298948168516159
1772648333767073000,9.340072998046875,0.7811527152895927,-0.3627630525678396,-0.4414668791875243
1772648333777113900,9.35011376953125,0.8415551615431904,-0.27453941019177436,-0.2780076708242297
1772648333787153700,9.360153564453125,0.8813555492728948,-0.21849077523350716,-0.06658800302073359
1772648333797194800,9.37019482421875,0.8337573472738266,-0.22241759328842162,0.15080387106016277
1772648333807235800,9.38023583984375,0.8649696471393108,-0.40915012521147726,0.15634192370399833
1772648333817275600,9.390275634765626,0.9013757162556052,-0.4933604402929544,0.08522007664591073
