time,seconds_elapsed,z,y,x
1772648324490717000,0.063717041015625,0.027597302570939064,-0.05705960839986801,-0.029248002916574478
1772648324500756700,0.0737568359375,0.02291201613843441,-0.06806782633066177,-0.030597364529967308
1772648324510797800,0.0837978515625,0.016617635264992714,-0.06809739023447037,-0.03308209404349327
1772648324520838700,0.093838623046875,0.009711497463285923,-0.06608729064464569,-0.03762994706630707
1772648324530879700,0.103879638671875,0.0009374466608278453,-0.05896120145916939,-0.03871465474367142
1772648324540919800,0.113919921875,-0.00373003794811666,-0.049665018916130066,-0.03342233970761299
1772648324550961000,0.1239609375,-0.005507698282599449,-0.03375662490725517,-0.02721451409161091
1772648324561001700,0.134001708984375,-0.006936104968190193,-0.021200619637966156,-0.01755751296877861
1772648324571041800,0.144041748046875,-0.005836485885083675,-0.01147528924047947,-0.001174010569229722
1772648324581083000,0.154082763671875,-0.00002056302037090063,0.0011225868947803974,0.012829745188355446
1772648324591123700,0.164123779296875,0.004882316570729017,0.0104519072920084,0.027858497574925423
1772648324601164800,0.174164794921875,0.007241260260343552,0.02008674480021,0.04692952334880829
1772648324611204900,0.184204833984375,0.007019152864813805,0.032812658697366714,0.0554838627576828
1772648324621246000,0.194245849609375,0.0060152821242809296,0.05206715688109398,0.06015508249402046
1772648324631286800,0.204286865234375,0.0010910973651334643,0.06663385033607483,0.05904773995280266
1772648324641326800,0.214326904296875,-0.008542103692889214,0.07405372709035873,0.05540020763874054
1772648324651368000,0.224367919921875,-0.017320947721600533,0.05386217311024666,0.07785490900278091
1772648324661409000,0.234408935546875,-0.025977399200201035,0.012737376615405083,0.0922691598534584
1772648324671449900,0.244449951171875,-0.023629823699593544,0.01650388538837433,0.07547792792320251
1772648324681490000,0.254489990234375,-0.02677861601114273,0.038501013070344925,0.05456111207604408
1772648324691531000,0.264531005859375,-0.02924976497888565,0.06682027131319046,0.03136337921023369
1772648324701571800,0.27457177734375,-0.037933576852083206,0.07384062558412552,0.014579829759895802
1772648324711611600,0.284611572265625,-0.050685055553913116,0.05844062939286232,-0.010183307342231274
1772648324721652700,0.29465283203125,-0.058893606066703796,0.0468129999935627,-0.045562222599983215
1772648324731693800,0.30469384765625,-0.058575890958309174,0.07154018431901932,-0.07684823870658875
1772648324741734700,0.314734619140625,-0.05484127253293991,0.10847961902618408,-0.08958452939987183
1772648324751774700,0.324774658203125,-0.045163076370954514,0.11744993925094604,-0.08151008933782578
1772648324761815800,0.33481591796875,-0.0258902870118618,0.11579696834087372,-0.05119828134775162
1772648324771857000,0.34485693359375,-0.010315320454537868,0.08251384645700455,-0.016865605488419533
1772648324781896700,0.354896728515625,0.01931503787636757,0.059342265129089355,-0.003160469699651003
1772648324791937800,0.364937744140625,0.052137963473796844,0.056213315576314926,0.003734986763447523
1772648324801979000,0.374978759765625,0.0706096962094307,0.03602389618754387,0.030996207147836685
1772648324812019700,0.385019775390625,0.07702285051345825,-0.01514821033924818,0.0599098801612854
1772648324822059800,0.395059814453125,0.07778488099575043,-0.055948060005903244,0.08550797402858734
1772648324832100900,0.405100830078125,0.07707914710044861,-0.06944335997104645,0.12161191552877426
1772648324842142000,0.415141845703125,0.08101948350667953,-0.06476924568414688,0.1467302441596985
1772648324852182000,0.42518212890625,0.0850168913602829,-0.035050228238105774,0.16299337148666382
1772648324862222800,0.435222900390625,0.08718467503786087,0.012486346065998077,0.179560124874115
1772648324872264000,0.445263916015625,0.09377413988113403,0.07322905957698822,0.17772653698921204
1772648324882305000,0.455304931640625,0.10000476986169815,0.13869263231754303,0.15628941357135773
1772648324892344800,0.4653447265625,0.10683523863554001,0.2089255303144455,0.12477143853902817
1772648324902386000,0.475385986328125,0.12024779617786407,0.27504462003707886,0.09123299270868301
1772648324912427000,0.485427001953125,0.13796207308769226,0.34811243414878845,0.059818085283041
1772648324922466800,0.495466796875,0.15976238250732422,0.4146660268306732,0.02632814273238182
1772648324932507600,0.505507568359375,0.18409062922000885,0.47433120012283325,-0.000982572790235281
1772648324942548700,0.515548828125,0.2056966871023178,0.4962436556816101,-0.022550305351614952
1772648324952589800,0.52558984375,0.21433119475841522,0.4854855537414551,-0.035323090851306915
1772648324962630000,0.5356298828125,0.2122432440519333,0.46514713764190674,-0.043801452964544296
1772648324972670700,0.545670654296875,0.19753247499465942,0.45044514536857605,-0.054924678057432175
1772648324982711800,0.5557119140625,0.16781318187713623,0.4419015944004059,-0.07606204599142075
1772648324992753000,0.5657529296875,0.13554419577121735,0.4512980282306671,-0.10064195841550827
1772648325002793700,0.575793701171875,0.10109146684408188,0.4858323931694031,-0.11986230313777924
1772648325012834800,0.585834716796875,0.06396140903234482,0.5258921980857849,-0.13570384681224823
1772648325022876000,0.5958759765625,0.03165972977876663,0.5491454601287842,-0.1530490517616272
1772648325032915700,0.605915771484375,0.003684820607304573,0.5668618679046631,-0.1614087074995041
1772648325042956800,0.615956787109375,-0.024156272411346436,0.5869725942611694,-0.15174466371536255
1772648325052998000,0.625997802734375,-0.04597342386841774,0.6002780199050903,-0.12502437829971313
1772648325063038000,0.636037841796875,-0.06136384233832359,0.6121320724487305,-0.08729730546474457
1772648325073078800,0.646078857421875,-0.07072644680738449,0.6191670894622803,-0.04603082686662674
1772648325083119900,0.656119873046875,-0.07713323086500168,0.6226407885551453,0.00008243159390985966
1772648325093160000,0.666159912109375,-0.08174929022789001,0.6169013977050781,0.04017259553074837
1772648325103201000,0.676200927734375,-0.08881856501102448,0.5985062718391418,0.0736985132098198
1772648325113241900,0.686241943359375,-0.09421173483133316,0.5806186199188232,0.09875060617923737
1772648325123283000,0.696282958984375,-0.09924245625734329,0.5664481520652771,0.10922650992870331
1772648325133322800,0.70632275390625,-0.10366197675466537,0.5691179633140564,0.09669367223978043
1772648325143363800,0.71636376953125,-0.1044871062040329,0.5896016955375671,0.07928024232387543
1772648325153404700,0.72640478515625,-0.10696704685688019,0.587897539138794,0.06142987683415413
1772648325163444700,0.73644482421875,-0.12252098321914673,0.5456713438034058,0.03893430158495903
1772648325173485800,0.74648583984375,-0.1452193707227707,0.47563180327415466,0.010777231305837631
1772648325183526700,0.756526611328125,-0.16438397765159607,0.4000674784183502,-0.010581224225461483
1772648325193567700,0.766567626953125,-0.18122580647468567,0.3335441052913666,-0.03291688859462738
1772648325203607800,0.77660791015625,-0.18882371485233307,0.27973881363868713,-0.055672068148851395
1772648325213649000,0.78664892578125,-0.19883452355861664,0.22325342893600464,-0.06484799087047577
1772648325223689700,0.796689697265625,-0.20579612255096436,0.16963931918144226,-0.07144084572792053
1772648325233729800,0.806729736328125,-0.20694607496261597,0.12098443508148193,-0.07449202984571457
1772648325243771000,0.81677099609375,-0.1993664801120758,0.09271838515996933,-0.07273538410663605
1772648325253811700,0.826811767578125,-0.19167686998844147,0.09031115472316742,-0.08075655996799469
1772648325263852800,0.836852783203125,-0.18071851134300232,0.10183928906917572,-0.08480548858642578
1772648325273892900,0.846892822265625,-0.1718009114265442,0.09466154128313065,-0.08512293547391891
1772648325283934000,0.856933837890625,-0.16760724782943726,0.06209518015384674,-0.08644504845142365
1772648325293974800,0.866974853515625,-0.16298826038837433,0.03465503454208374,-0.09376447647809982
1772648325304014800,0.877014892578125,-0.1548023819923401,0.04523337259888649,-0.10470782220363617
1772648325314056000,0.887055908203125,-0.1533629447221756,0.09059899300336838,-0.11595755070447922
1772648325324097000,0.897096923828125,-0.16538527607917786,0.14693331718444824,-0.12376032769680023
1772648325334137900,0.907137939453125,-0.18561145663261414,0.2154066562652588,-0.12476140260696411
1772648325344177700,0.917177734375,-0.19598878920078278,0.27935153245925903,-0.13506920635700226
1772648325354218800,0.92721875,-0.20676659047603607,0.32381248474121094,-0.13636377453804016
1772648325364259800,0.937259765625,-0.21936382353305817,0.3476569950580597,-0.13278725743293762
1772648325374299600,0.947299560546875,-0.23864802718162537,0.3589211106300354,-0.12970039248466492
1772648325384340700,0.9573408203125,-0.258293092250824,0.36326950788497925,-0.11985281109809875
1772648325394381800,0.9673818359375,-0.27794989943504333,0.36179119348526,-0.11603064090013504
1772648325404422700,0.977422607421875,-0.29287436604499817,0.359692245721817,-0.10943238437175751
1772648325414462700,0.987462646484375,-0.306074321269989,0.35590389370918274,-0.0971301794052124
1772648325424503800,0.99750390625,-0.31737226247787476,0.3605934977531433,-0.09355948120355606
1772648325434545000,1.007544921875,-0.32637134194374084,0.3549257814884186,-0.09741120785474777
1772648325444585000,1.0175849609375,-0.33401763439178467,0.33434852957725525,-0.1038595661520958
1772648325454625800,1.027625732421875,-0.3377561867237091,0.3044297695159912,-0.11939884722232819
1772648325464667000,1.0376669921875,-0.32230278849601746,0.26821351051330566,-0.16254942119121552
1772648325474707000,1.04770703125,-0.29074856638908386,0.22247985005378723,-0.20240096747875214
1772648325484747800,1.057747802734375,-0.26309308409690857,0.13619615137577057,-0.20843850076198578
1772648325494788900,1.067788818359375,-0.2223544418811798,0.03989890217781067,-0.21733824908733368
1772648325504830000,1.077829833984375,-0.15439507365226746,-0.0475306510925293,-0.23929481208324432
1772648325514869800,1.087869873046875,-0.07200033962726593,-0.12759752571582794,-0.2595071494579315
1772648325524910600,1.09791064453125,-0.0059398869052529335,-0.20779019594192505,-0.27483224868774414
1772648325534951700,1.10795166015625,0.04850764200091362,-0.264060914516449,-0.2866516411304474
1772648325544991700,1.11799169921875,0.08507870882749557,-0.30492687225341797,-0.28406384587287903
1772648325555032800,1.12803271484375,0.0975944995880127,-0.33914127945899963,-0.2644299566745758
1772648325565073700,1.13807373046875,0.09468372911214828,-0.3543325364589691,-0.22502762079238892
1772648325575114800,1.14811474609375,0.10059993714094162,-0.3341851830482483,-0.1596033275127411
1772648325585154800,1.15815478515625,0.12101476639509201,-0.28714725375175476,-0.08626174181699753
1772648325595195600,1.168195556640625,0.14943468570709229,-0.22774863243103027,-0.011482315137982368
1772648325605236700,1.17823681640625,0.18847215175628662,-0.15687419474124908,0.07087491452693939
1772648325615276800,1.18827685546875,0.22165673971176147,-0.0946425050497055,0.1519830822944641
1772648325625318000,1.19831787109375,0.24200785160064697,-0.06185855343937874,0.21495288610458374
1772648325635358700,1.208358642578125,0.23901845514774323,-0.056301336735486984,0.2538352906703949
1772648325645399800,1.21839990234375,0.22759419679641724,-0.06591711938381195,0.27152809500694275
1772648325655440000,1.22843994140625,0.21690267324447632,-0.0833863914012909,0.27358245849609375
1772648325665481000,1.23848095703125,0.2077266126871109,-0.1098201796412468,0.2726379930973053
1772648325675521800,1.248521728515625,0.1970321536064148,-0.14179329574108124,0.27030453085899353
1772648325685561900,1.258561767578125,0.20772160589694977,-0.15472058951854706,0.2690998315811157
1772648325695603000,1.26860302734375,0.22252744436264038,-0.16415511071681976,0.2841503918170929
1772648325705643800,1.278643798828125,0.22040215134620667,-0.17555807530879974,0.3159589469432831
1772648325715684900,1.288684814453125,0.21258923411369324,-0.1839374452829361,0.3370157480239868
1772648325725724700,1.298724609375,0.19022542238235474,-0.1981920748949051,0.34753644466400146
1772648325735765800,1.308765869140625,0.1537209451198578,-0.2200148105621338,0.34115418791770935
1772648325745806600,1.318806640625,0.10750067234039307,-0.23551061749458313,0.31361061334609985
1772648325755846700,1.3288466796875,0.07155252248048782,-0.24347586929798126,0.2814641296863556
1772648325765887700,1.3388876953125,0.052750520408153534,-0.25538867712020874,0.2906239330768585
1772648325775928800,1.3489287109375,0.04189680889248848,-0.2675718367099762,0.3218340575695038
1772648325785969700,1.3589697265625,0.03835776075720787,-0.2770422399044037,0.3567672371864319
1772648325796009700,1.369009765625,0.03877560794353485,-0.2772741913795471,0.39173269271850586
1772648325806050800,1.37905078125,0.023085275664925575,-0.29676470160484314,0.4218563437461853
1772648325816091600,1.389091552734375,0.006887663155794144,-0.32801079750061035,0.4394683539867401
1772648325826131700,1.399131591796875,-0.004497335758060217,-0.3542520999908447,0.4478185474872589
1772648325836172800,1.4091728515625,-0.011488400399684906,-0.36619263887405396,0.4481562376022339
1772648325846214000,1.4192138671875,-0.018796857446432114,-0.3686201572418213,0.4577258825302124
1772648325856254000,1.42925390625,-0.02569551020860672,-0.37252381443977356,0.4738084375858307
1772648325866294800,1.439294677734375,-0.020100921392440796,-0.387338250875473,0.48792943358421326
1772648325876335900,1.4493359375,-0.0057709855027496815,-0.416782408952713,0.49379533529281616
1772648325886377000,1.459376953125,0.012185053899884224,-0.4214231073856354,0.48045647144317627
1772648325896417000,1.4694169921875,0.036683205515146255,-0.39998573064804077,0.45745980739593506
1772648325906457900,1.479457763671875,0.05801989510655403,-0.3920131027698517,0.43034300208091736
1772648325916499000,1.4894990234375,0.07328007370233536,-0.4019243121147156,0.3973189890384674
1772648325926538800,1.499538818359375,0.08724720776081085,-0.41547659039497375,0.36112284660339355
1772648325936579600,1.50957958984375,0.0984274223446846,-0.4089268147945404,0.31703394651412964
1772648325946620700,1.51962060546875,0.10795649141073227,-0.36658236384391785,0.2645185887813568
1772648325956661800,1.529661865234375,0.11333926767110825,-0.3111342787742615,0.21514810621738434
1772648325966701800,1.539701904296875,0.10917194187641144,-0.25641366839408875,0.1700476109981537
1772648325976742700,1.54974267578125,0.0973629504442215,-0.20738565921783447,0.13116306066513062
1772648325986783500,1.559783447265625,0.10001624375581741,-0.15377378463745117,0.10159339755773544
1772648325996823600,1.569823486328125,0.10776045173406601,-0.09988019615411758,0.08203647285699844
1772648326006864600,1.57986474609375,0.1178135797381401,-0.06086323410272598,0.07361040264368057
1772648326016905500,1.589905517578125,0.13343460857868195,-0.03966979682445526,0.07583653926849365
1772648326026946600,1.599946533203125,0.1596190184354782,-0.02549581788480282,0.08303996175527573
1772648326036986600,1.609986572265625,0.19924499094486237,-0.015682069584727287,0.10569893568754196
1772648326047027700,1.62002783203125,0.23270028829574585,-0.021811818704009056,0.14307275414466858
1772648326057068500,1.630068603515625,0.25395339727401733,-0.029950439929962158,0.18003690242767334
1772648326067108400,1.6401083984375,0.27118822932243347,-0.024186601862311363,0.19518736004829407
1772648326077149400,1.6501494140625,0.2855890095233917,-0.020639536902308464,0.17837029695510864
1772648326087190300,1.660190185546875,0.26462075114250183,-0.026889018714427948,0.12547774612903595
1772648326097230300,1.670230224609375,0.23108115792274475,-0.05637234076857567,0.05773625150322914
1772648326107271400,1.680271484375,0.1890297532081604,-0.12112753093242645,-0.010608654469251633
1772648326117312500,1.6903125,0.1340589076280594,-0.21606896817684174,-0.07052444666624069
1772648326127353300,1.700353271484375,0.08235109597444534,-0.28256967663764954,-0.10253473371267319
1772648326137393400,1.710393310546875,0.03708401322364807,-0.3175167441368103,-0.09331407397985458
1772648326147434500,1.7204345703125,-0.0038912291638553143,-0.35500046610832214,-0.08669888973236084
1772648326157475600,1.7304755859375,-0.02517414651811123,-0.34858438372612,-0.0869164764881134
1772648326167515400,1.740515380859375,-0.022474078461527824,-0.3093639612197876,-0.08705698698759079
1772648326177556500,1.750556396484375,-0.00758674181997776,-0.2832713723182678,-0.10109344869852066
1772648326187597600,1.76059765625,0.010154800489544868,-0.2756882607936859,-0.12498489022254944
1772648326197638400,1.770638427734375,0.03357623890042305,-0.25728580355644226,-0.14541825652122498
1772648326207678500,1.780678466796875,0.05246012285351753,-0.24643704295158386,-0.16389702260494232
1772648326217719600,1.790719482421875,0.06076332926750183,-0.2422492355108261,-0.17110779881477356
1772648326227760600,1.8007607421875,0.046541810035705566,-0.29025691747665405,-0.1472187340259552
1772648326237800400,1.810800537109375,0.020647630095481873,-0.37274062633514404,-0.1265515387058258
1772648326247841300,1.82084130859375,0.0005970105994492769,-0.3741963803768158,-0.06505978852510452
1772648326257882400,1.83088232421875,-0.05390910804271698,-0.36760905385017395,0.021981369704008102
1772648326267923500,1.84092333984375,-0.11326530575752258,-0.3817823529243469,0.10153666138648987
1772648326277963500,1.850963623046875,-0.09438163042068481,-0.2633446455001831,0.1984003633260727
1772648326288004400,1.86100439453125,-0.0554930716753006,-0.0767468586564064,0.3099873960018158
1772648326298045400,1.87104541015625,-0.05273963138461113,0.061640314757823944,0.36559128761291504
1772648326308085500,1.88108544921875,-0.058266669511795044,0.15924452245235443,0.36784130334854126
1772648326318126300,1.891126220703125,-0.04264030605554581,0.2571151554584503,0.3370319902896881
1772648326328167400,1.90116748046875,-0.017456993460655212,0.35239535570144653,0.2734321653842926
1772648326338208500,1.91120849609375,-0.004739067517220974,0.4284070134162903,0.20434685051441193
1772648326348248600,1.92124853515625,0.00457804324105382,0.48070186376571655,0.14572571218013763
1772648326358289400,1.931289306640625,0.00883590430021286,0.4978235960006714,0.06813318282365799
1772648326368330500,1.94133056640625,0.006323633249849081,0.4831506311893463,-0.013611861504614353
1772648326378370600,1.95137060546875,-0.011790655553340912,0.42706766724586487,-0.05759263411164284
1772648326388411600,1.96141162109375,-0.04937684163451195,0.31598567962646484,-0.06374611705541611
1772648326398452500,1.971452392578125,-0.10306563228368759,0.1634741723537445,-0.04482462629675865
1772648326408493600,1.98149365234375,-0.15145143866539001,0.007299734279513359,-0.03617749363183975
1772648326418533600,1.99153369140625,-0.1816636621952057,-0.13199105858802795,-0.04856598749756813
1772648326428574500,2.001574462890625,-0.20499174296855927,-0.22964249551296234,-0.05943792313337326
1772648326438615600,2.011615478515625,-0.2180050164461136,-0.26452723145484924,-0.07347624003887177
1772648326448655400,2.0216552734375,-0.22109097242355347,-0.22311951220035553,-0.10228845477104187
1772648326458696400,2.031696533203125,-0.2132471650838852,-0.12436524778604507,-0.13824059069156647
1772648326468737300,2.0417373046875,-0.19704602658748627,0.009149570018053055,-0.16888649761676788
1772648326478777300,2.05177734375,-0.15314222872257233,0.16477005183696747,-0.1966363787651062
1772648326488818400,2.061818359375,-0.08784105628728867,0.34072983264923096,-0.19420650601387024
1772648326498859500,2.071859619140625,-0.02440190128982067,0.5033445954322815,-0.17150892317295074
1772648326508900400,2.081900390625,0.025805385783314705,0.6194003224372864,-0.16575001180171967
1772648326518940400,2.0919404296875,0.06502202898263931,0.694595456123352,-0.16896843910217285
1772648326528981500,2.1019814453125,0.0940055102109909,0.7152904868125916,-0.17903660237789154
1772648326539022300,2.112022216796875,0.10107406973838806,0.6803183555603027,-0.18883837759494781
1772648326549062400,2.1220625,0.08547034859657288,0.6160213351249695,-0.20279806852340698
1772648326559103500,2.132103515625,0.05479711666703224,0.5477160811424255,-0.22001594305038452
1772648326569144600,2.14214453125,0.012964366003870964,0.48746979236602783,-0.24787327647209167
1772648326579185400,2.152185302734375,-0.038648493587970734,0.44633594155311584,-0.26503655314445496
1772648326589225500,2.1622255859375,-0.08276873081922531,0.43981868028640747,-0.2720746695995331
1772648326599266600,2.1722666015625,-0.11873685568571091,0.45969438552856445,-0.26511049270629883
1772648326609307600,2.1823076171875,-0.15068119764328003,0.4862733483314514,-0.2558598220348358
1772648326619347500,2.192347412109375,-0.1741955727338791,0.5088990330696106,-0.2594718635082245
1772648326629388500,2.202388427734375,-0.18776710331439972,0.5288106203079224,-0.26028650999069214
1772648326639429600,2.2124296875,-0.20042084157466888,0.5452726483345032,-0.2574515640735626
1772648326649469400,2.222469482421875,-0.20549573004245758,0.5483331680297852,-0.24714142084121704
1772648326659510300,2.23251025390625,-0.21086786687374115,0.5370498895645142,-0.24117141962051392
1772648326669551400,2.24255126953125,-0.21780811250209808,0.5229369401931763,-0.23663891851902008
1772648326679592400,2.252592529296875,-0.22597256302833557,0.4930562674999237,-0.23291581869125366
1772648326689632500,2.262632568359375,-0.23124295473098755,0.44315728545188904,-0.23140037059783936
1772648326699673300,2.27267333984375,-0.21966858208179474,0.39280757308006287,-0.21260084211826324
1772648326709714400,2.28271435546875,-0.19057805836200714,0.3417772650718689,-0.1831492930650711
1772648326719754500,2.29275439453125,-0.1517084240913391,0.30095234513282776,-0.14135870337486267
1772648326729795300,2.30279541015625,-0.1163240596652031,0.2696404457092285,-0.09562685340642929
1772648326739836400,2.31283642578125,-0.09225814044475555,0.2474943846464157,-0.05212518200278282
1772648326749877500,2.32287744140625,-0.09535696357488632,0.22866488993167877,-0.025638258084654808
1772648326759917600,2.33291748046875,-0.11195538192987442,0.21915580332279205,-0.02106294594705105
1772648326769958400,2.34295849609375,-0.14050348103046417,0.21245607733726501,-0.030208591371774673
1772648326779999500,2.35299951171875,-0.17366783320903778,0.19924600422382355,-0.04661605879664421
1772648326790039600,2.36303955078125,-0.2184055894613266,0.1786869913339615,-0.06441918760538101
1772648326800080600,2.37308056640625,-0.27265816926956177,0.15194912254810333,-0.09277493506669998
1772648326810121500,2.38312158203125,-0.3259480595588684,0.11930893361568451,-0.12213847786188126
1772648326820161500,2.39316162109375,-0.3507780432701111,0.1185600534081459,-0.13938617706298828
1772648326830202600,2.40320263671875,-0.3450605571269989,0.14630034565925598,-0.14082355797290802
1772648326840243500,2.413243408203125,-0.3217693269252777,0.2029700130224228,-0.13350892066955566
1772648326850284500,2.423284423828125,-0.28511837124824524,0.2764590084552765,-0.11733276396989822
1772648326860324400,2.433324462890625,-0.23355799913406372,0.33717721700668335,-0.09894629567861557
1772648326870365400,2.443365478515625,-0.17942509055137634,0.36756306886672974,-0.0903153121471405
1772648326880406300,2.45340625,-0.12605400383472443,0.3834829032421112,-0.08596290647983551
1772648326890446300,2.4634462890625,-0.08001565933227539,0.3914586901664734,-0.08247644454240799
1772648326900487400,2.4734873046875,-0.05672231689095497,0.39801353216171265,-0.08700834214687347
1772648326910528500,2.483528564453125,-0.044600337743759155,0.419604629278183,-0.09033701568841934
1772648326920569300,2.4935693359375,-0.039003971964120865,0.45842820405960083,-0.08993460983037949
1772648326930609400,2.503609375,-0.0405128039419651,0.4975018799304962,-0.09122538566589355
1772648326940650500,2.513650390625,-0.04430514574050903,0.5257116556167603,-0.08933641016483307
1772648326950691600,2.523691650390625,-0.0523538775742054,0.5369374752044678,-0.1041640043258667
1772648326960731400,2.5337314453125,-0.03786575049161911,0.5449895858764648,-0.1416543871164322
1772648326970772500,2.5437724609375,-0.030004028230905533,0.5106683969497681,-0.1408969610929489
1772648326980813600,2.5538134765625,-0.004839286673814058,0.42222854495048523,-0.1511101871728897
1772648326990854400,2.5638544921875,0.05705748498439789,0.32553768157958984,-0.15709179639816284
1772648327000894500,2.57389453125,0.15701842308044434,0.2093338519334793,-0.12666811048984528
1772648327010935600,2.583935546875,0.2720276713371277,0.09606662392616272,-0.09840252250432968
1772648327020976600,2.5939765625,0.39470377564430237,0.011026295833289623,-0.09389405697584152
1772648327031016700,2.6040166015625,0.4921330213546753,-0.061285343021154404,-0.08854559063911438
1772648327041057500,2.6140576171875,0.5460508465766907,-0.14152398705482483,-0.05468030273914337
1772648327051098600,2.6240986328125,0.5648056864738464,-0.21029320359230042,0.01370388362556696
1772648327061138400,2.634138427734375,0.570663332939148,-0.25553205609321594,0.11512424796819687
1772648327071179300,2.64417919921875,0.5574594140052795,-0.31048765778541565,0.18747995793819427
1772648327081220400,2.654220458984375,0.5362398624420166,-0.3544172942638397,0.25518283247947693
1772648327091261400,2.664261474609375,0.5210541486740112,-0.38136380910873413,0.34671592712402344
1772648327101301500,2.674301513671875,0.48741471767425537,-0.39228811860084534,0.3913278877735138
1772648327111342300,2.68434228515625,0.4288654923439026,-0.3773818612098694,0.38311347365379333
1772648327121383400,2.694383544921875,0.3674812316894531,-0.3148052990436554,0.36229315400123596
1772648327131423500,2.704423583984375,0.3186366558074951,-0.20424270629882812,0.3444942533969879
1772648327141464600,2.714464599609375,0.28204482793807983,-0.07173021137714386,0.3365370035171509
1772648327151505400,2.72450537109375,0.25887802243232727,0.06751854717731476,0.31748393177986145
1772648327161546500,2.73454638671875,0.23176144063472748,0.21033349633216858,0.2469000518321991
1772648327171586600,2.744586669921875,0.20847316086292267,0.30902332067489624,0.17259998619556427
1772648327181627400,2.75462744140625,0.18310575187206268,0.37778240442276,0.1289055049419403
1772648327191668500,2.76466845703125,0.14925381541252136,0.42605161666870117,0.09117498993873596
1772648327201708500,2.77470849609375,0.09890969097614288,0.40177077054977417,0.061995796859264374
1772648327211749600,2.78474951171875,0.04048451781272888,0.3033394515514374,0.03775986284017563
1772648327221790500,2.79479052734375,-0.023319760337471962,0.17060615122318268,0.029435621574521065
1772648327231831600,2.80483154296875,-0.08113498985767365,0.039783645421266556,0.05550575256347656
1772648327241871400,2.814871337890625,-0.1089453175663948,-0.08683208376169205,0.10934580862522125
1772648327251912400,2.824912353515625,-0.1155814602971077,-0.2022697925567627,0.18281495571136475
1772648327261953300,2.834953369140625,-0.1051035150885582,-0.3178906738758087,0.26873892545700073
1772648327271993300,2.844993408203125,-0.09646007418632507,-0.4211590588092804,0.33367177844047546
1772648327282034400,2.855034423828125,-0.09572690725326538,-0.5019417405128479,0.3624839782714844
1772648327292075500,2.865075439453125,-0.08930724114179611,-0.5673205256462097,0.36949166655540466
1772648327302116400,2.875116455078125,-0.08576497435569763,-0.6190681457519531,0.3565841317176819
1772648327312156400,2.885156494140625,-0.07690582424402237,-0.6568814516067505,0.3227479159832001
1772648327322197500,2.895197509765625,-0.08691371977329254,-0.6778556704521179,0.2747449576854706
1772648327332238300,2.90523828125,-0.10966131836175919,-0.6839094161987305,0.22163157165050507
1772648327342278400,2.9152783203125,-0.13264572620391846,-0.6921671032905579,0.18308870494365692
1772648327352319500,2.925319580078125,-0.1534593403339386,-0.706072211265564,0.1466403603553772
1772648327362360600,2.935360595703125,-0.1512393355369568,-0.7063574194908142,0.11658792942762375
1772648327372400600,2.945400634765625,-0.1311788558959961,-0.7111958861351013,0.10018477588891983
1772648327382441500,2.95544140625,-0.11116787046194077,-0.684238851070404,0.09402861446142197
1772648327392482600,2.965482666015625,-0.100819893181324,-0.6247454285621643,0.09682333469390869
1772648327402523400,2.9755234375,-0.09143783897161484,-0.543779194355011,0.09364298731088638
1772648327412563500,2.9855634765625,-0.07547306269407272,-0.4373556673526764,0.07719581574201584
1772648327422604500,2.9956044921875,-0.052622340619564056,-0.33080071210861206,0.06202805042266846
1772648327432645600,3.005645751953125,-0.017155846580863,-0.2531549334526062,0.04539245739579201
1772648327442685400,3.015685546875,-0.01315444614738226,-0.18557614088058472,0.03134135529398918
1772648327452726300,3.025726318359375,0.006682024337351322,-0.12914130091667175,0.015017902478575706
1772648327462767400,3.035767333984375,0.020074795931577682,-0.09926516562700272,0.0021164854988455772
1772648327472808400,3.045808349609375,0.0352848544716835,-0.0895429253578186,-0.017268825322389603
1772648327482848500,3.0558486328125,0.060877032577991486,-0.08428717404603958,-0.0337924063205719
1772648327492889300,3.065889404296875,0.08166131377220154,-0.09632774442434311,-0.04581677168607712
1772648327502930400,3.075930419921875,0.10224515199661255,-0.11096394807100296,-0.05041338875889778
1772648327512970500,3.085970458984375,0.11166968196630478,-0.12980805337429047,-0.04905813932418823
1772648327523011300,3.09601123046875,0.11245983839035034,-0.13759061694145203,-0.04135121777653694
1772648327533052400,3.106052490234375,0.10937164723873138,-0.12990802526474,-0.027279751375317574
1772648327543092500,3.116092529296875,0.11195118725299835,-0.12127379328012466,-0.0033800124656409025
1772648327553133600,3.126133544921875,0.1210319921374321,-0.12149504572153091,0.02413620427250862
1772648327563174400,3.13617431640625,0.11050452291965485,-0.13575361669063568,0.05060642585158348
1772648327573215500,3.146215576171875,0.12139115482568741,-0.16826878488063812,0.06173871457576752
1772648327583255600,3.156255615234375,0.12549881637096405,-0.21405836939811707,0.07750675827264786
1772648327593296600,3.166296630859375,0.12390537559986115,-0.27253663539886475,0.08898469805717468
1772648327603337500,3.17633740234375,0.1320141702890396,-0.3238922357559204,0.09815289825201035
1772648327613377500,3.18637744140625,0.15514087677001953,-0.3535471260547638,0.10506074875593185
1772648327623418600,3.196418701171875,0.17255555093288422,-0.3809278905391693,0.10653693974018097
1772648327633459500,3.20645947265625,0.18449710309505463,-0.4110185205936432,0.08481410145759583
1772648327643500500,3.21650048828125,0.19594523310661316,-0.4367523789405823,0.05915401503443718
1772648327653540400,3.226540283203125,0.19164657592773438,-0.46914806962013245,0.03660493344068527
1772648327663581400,3.23658154296875,0.1754702627658844,-0.4953698217868805,0.015062620863318443
1772648327673622300,3.246622314453125,0.1586063802242279,-0.5002375841140747,-0.011857369914650917
1772648327683662300,3.256662353515625,0.14096853137016296,-0.47725236415863037,-0.05766373872756958
1772648327693703400,3.266703369140625,0.12126116454601288,-0.45805037021636963,-0.10375216603279114
1772648327703744500,3.27674462890625,0.10718343406915665,-0.4260394275188446,-0.10841216892004013
1772648327713785300,3.286785400390625,0.08301393687725067,-0.4030221998691559,-0.07255783677101135
1772648327723825400,3.296825439453125,0.05893337354063988,-0.3768790066242218,-0.032261013984680176
1772648327733866500,3.306866455078125,0.03622284531593323,-0.28444838523864746,0.049788959324359894
1772648327743907300,3.3169072265625,0.005840171128511429,-0.15627843141555786,0.17074227333068848
1772648327753947400,3.326947509765625,-0.042114514857530594,-0.05369257181882858,0.2646183967590332
1772648327763988500,3.336988525390625,-0.08628702908754349,0.08382561057806015,0.3622229993343353
1772648327774029600,3.347029541015625,-0.10444453358650208,0.26692646741867065,0.47486209869384766
1772648327784069600,3.357069580078125,-0.13309694826602936,0.39725756645202637,0.5108954310417175
1772648327794110500,3.3671103515625,-0.17039854824543,0.46046239137649536,0.4942522943019867
1772648327804151600,3.377151611328125,-0.1995955854654312,0.4969969689846039,0.48156338930130005
1772648327814192600,3.387192626953125,-0.22202415764331818,0.5326371788978577,0.41422516107559204
1772648327824232700,3.397232666015625,-0.23271489143371582,0.584912896156311,0.2805691063404083
1772648327834273500,3.4072734375,-0.2319050133228302,0.6312931180000305,0.13779178261756897
1772648327844314600,3.417314697265625,-0.2275552749633789,0.645821213722229,0.030778516083955765
1772648327854354400,3.4273544921875,-0.2251913994550705,0.6029177904129028,-0.04115670919418335
1772648327864395300,3.437395263671875,-0.2323039025068283,0.4990966022014618,-0.07790034264326096
1772648327874436400,3.447436279296875,-0.24850298464298248,0.3500864803791046,-0.1251341998577118
1772648327884477400,3.4574775390625,-0.26927217841148376,0.18524454534053802,-0.17081965506076813
1772648327894517500,3.467517578125,-0.2954951226711273,0.03563694655895233,-0.18271401524543762
1772648327904558300,3.477558349609375,-0.3239259719848633,-0.07093317806720734,-0.18392522633075714
1772648327914599400,3.487599365234375,-0.3362914025783539,-0.11043062061071396,-0.17797251045703888
1772648327924639500,3.497639404296875,-0.33551642298698425,-0.08524111658334732,-0.1853417456150055
1772648327934680600,3.5076806640625,-0.32432806491851807,-0.0023621083237230778,-0.19100676476955414
1772648327944721400,3.517721435546875,-0.3038336932659149,0.11380071938037872,-0.19232608377933502
1772648327954762500,3.527762451171875,-0.2722023129463196,0.2652074098587036,-0.19794952869415283
1772648327964802600,3.537802490234375,-0.22619087994098663,0.43234631419181824,-0.19300003349781036
1772648327974843400,3.547843505859375,-0.16688577830791473,0.5976769328117371,-0.1912100911140442
1772648327984884500,3.557884521484375,-0.10899344086647034,0.7532971501350403,-0.1910625547170639
1772648327994924500,3.567924560546875,-0.0592193678021431,0.8745742440223694,-0.19501185417175293
1772648328004965600,3.577965576171875,-0.021103406324982643,0.9512479901313782,-0.20956255495548248
1772648328015006500,3.58800634765625,-0.004869603086262941,0.9658185839653015,-0.2248687893152237
1772648328025047600,3.598047607421875,0.005019778851419687,0.9366037249565125,-0.2386445254087448
1772648328035087600,3.608087646484375,-0.011040913872420788,0.8711636066436768,-0.24974358081817627
1772648328045128700,3.618128662109375,-0.0467645563185215,0.7917689085006714,-0.2743184268474579
1772648328055169500,3.62816943359375,-0.09367069602012634,0.7260163426399231,-0.2907900810241699
1772648328065209600,3.638209716796875,-0.13858303427696228,0.6722465753555298,-0.30051273107528687
1772648328075250700,3.648250732421875,-0.16345146298408508,0.6436035633087158,-0.2872924208641052
1772648328085291500,3.65829150390625,-0.18389680981636047,0.6282173991203308,-0.26686224341392517
1772648328095331600,3.66833154296875,-0.19451990723609924,0.6185222268104553,-0.2533518970012665
1772648328105372700,3.67837255859375,-0.1988305002450943,0.6173903942108154,-0.2446875423192978
1772648328115413800,3.688413818359375,-0.19762958586215973,0.6162043809890747,-0.2257426381111145
1772648328125454600,3.69845458984375,-0.19896915555000305,0.6028318405151367,-0.21471528708934784
1772648328135494400,3.708494384765625,-0.20116542279720306,0.5849846005439758,-0.20883865654468536
1772648328145535500,3.718535400390625,-0.20317557454109192,0.5595154762268066,-0.20469291508197784
1772648328155576600,3.72857666015625,-0.20901770889759064,0.5232672095298767,-0.19320909678936005
1772648328165616600,3.73861669921875,-0.2146953046321869,0.47744300961494446,-0.18101660907268524
1772648328175657500,3.748657470703125,-0.2132466435432434,0.43705305457115173,-0.1623256951570511
1772648328185698600,3.758698486328125,-0.20069649815559387,0.40975967049598694,-0.13902276754379272
1772648328195739400,3.768739501953125,-0.18729320168495178,0.37665534019470215,-0.11631795763969421
1772648328205779500,3.778779541015625,-0.1708439141511917,0.345990926027298,-0.09352076798677444
1772648328215820500,3.788820556640625,-0.1616690754890442,0.3250473439693451,-0.07761190831661224
1772648328225861600,3.798861572265625,-0.1595238894224167,0.3211516737937927,-0.056495700031518936
1772648328235901700,3.808901611328125,-0.16637969017028809,0.31465476751327515,-0.045897822827100754
1772648328245942500,3.818942626953125,-0.18635419011116028,0.31105712056159973,-0.04274171218276024
1772648328255983600,3.828983642578125,-0.21683461964130402,0.3020680546760559,-0.046865809708833694
1772648328266023700,3.839023681640625,-0.25534021854400635,0.29549217224121094,-0.05406433343887329
1772648328276064500,3.849064453125,-0.2921222150325775,0.3036862015724182,-0.06743180751800537
1772648328286105600,3.859105712890625,-0.32382792234420776,0.30194607377052307,-0.07955531030893326
1772648328296146700,3.869146728515625,-0.35191890597343445,0.29884517192840576,-0.09342726320028305
1772648328306186500,3.8791865234375,-0.3636208474636078,0.3069872558116913,-0.1027323454618454
1772648328316227600,3.8892275390625,-0.35391274094581604,0.32032716274261475,-0.11051438003778458
1772648328326268700,3.8992685546875,-0.32641106843948364,0.34371688961982727,-0.11320337653160095
1772648328336308500,3.90930859375,-0.29059770703315735,0.3639313876628876,-0.11488576233386993
1772648328346349600,3.919349609375,-0.25306496024131775,0.37416619062423706,-0.12291918694972992
1772648328356390400,3.929390380859375,-0.21706393361091614,0.3820740282535553,-0.13568474352359772
1772648328366431500,3.939431396484375,-0.18830472230911255,0.4011888802051544,-0.14442390203475952
1772648328376471600,3.949471435546875,-0.16783171892166138,0.43747326731681824,-0.14001096785068512
1772648328386512600,3.9595126953125,-0.15649756789207458,0.4790619909763336,-0.12586373090744019
1772648328396553500,3.969553466796875,-0.15049898624420166,0.49837395548820496,-0.10429184138774872
1772648328406593500,3.979593505859375,-0.15959873795509338,0.5046132206916809,-0.0884590819478035
1772648328416634600,3.989634521484375,-0.17005030810832977,0.5132524371147156,-0.08305199444293976
1772648328426675500,3.999675537109375,-0.18094156682491302,0.5181366801261902,-0.09136319160461426
1772648328436715500,4.009715576171875,-0.18137815594673157,0.5088610649108887,-0.11011870950460434
1772648328446756600,4.019756591796875,-0.14989453554153442,0.4945979118347168,-0.14254029095172882
1772648328456797700,4.029797607421875,-0.10274939239025116,0.45285817980766296,-0.14447107911109924
1772648328466838500,4.039838623046875,-0.05545778200030327,0.3869854211807251,-0.13660410046577454
1772648328476878600,4.049878662109375,0.007775602396577597,0.32536277174949646,-0.12611404061317444
1772648328486919700,4.059919677734375,0.09564048051834106,0.28179851174354553,-0.10244120657444
1772648328496960500,4.06996044921875,0.21365293860435486,0.24281750619411469,-0.08738009631633759
1772648328507000300,4.080000244140625,0.3206039071083069,0.1551009714603424,-0.05936950445175171
1772648328517041400,4.09004150390625,0.404715359210968,0.053822338581085205,-0.01040833629667759
1772648328527082500,4.10008251953125,0.4689404368400574,-0.046791356056928635,0.038853488862514496
1772648328537123300,4.110123291015625,0.5071792602539062,-0.1258794218301773,0.07137037068605423
1772648328547163400,4.120163330078125,0.5114368200302124,-0.20075473189353943,0.12497314065694809
1772648328557204500,4.13020458984375,0.4938911497592926,-0.2682674527168274,0.22554394602775574
1772648328567245600,4.14024560546875,0.46739932894706726,-0.33317694067955017,0.33992141485214233
1772648328577285600,4.15028564453125,0.44848179817199707,-0.36785921454429626,0.4278338551521301
1772648328587326500,4.160326416015625,0.42741698026657104,-0.33532819151878357,0.488629013299942
1772648328597367600,4.170367431640625,0.3945956826210022,-0.27430012822151184,0.4991859793663025
1772648328607408600,4.18040869140625,0.3579396903514862,-0.18684379756450653,0.49020659923553467
1772648328617448400,4.190448486328125,0.32119661569595337,-0.087840735912323,0.44864368438720703
1772648328627489500,4.200489501953125,0.2837464213371277,0.000276608276180923,0.3973352015018463
1772648328637530600,4.210530517578125,0.23835653066635132,0.05903738737106323,0.34489086270332336
1772648328647570700,4.22057080078125,0.19199807941913605,0.08575182408094406,0.28696417808532715
1772648328657611500,4.230611572265625,0.15183323621749878,0.06625908613204956,0.21296682953834534
1772648328667652600,4.240652587890625,0.11257293075323105,-0.010757935233414173,0.13705874979496002
1772648328677692700,4.250692626953125,0.07417090982198715,-0.15010735392570496,0.08208846300840378
1772648328687733800,4.260733642578125,0.04450569674372673,-0.3127775192260742,0.058842793107032776
1772648328697774600,4.270774658203125,0.038331691175699234,-0.4733980894088745,0.09248331189155579
1772648328707815700,4.280815673828125,0.04382339492440224,-0.6211414337158203,0.18076524138450623
1772648328717855500,4.29085546875,0.056942492723464966,-0.7476089596748352,0.26345425844192505
1772648328727896600,4.300896484375,0.09067249298095703,-0.863143801689148,0.3460676372051239
1772648328737937400,4.3109375,0.10701082646846771,-0.975565493106842,0.4337952136993408
1772648328747977500,4.3209775390625,0.09981576353311539,-1.0405117273330688,0.4825931191444397
1772648328758018600,4.3310185546875,0.09117133915424347,-1.062226414680481,0.4936278760433197
1772648328768059400,4.341059326171875,0.08432035893201828,-1.0353420972824097,0.47441956400871277
1772648328778100500,4.3511005859375,0.07302261143922806,-0.9668548107147217,0.43369919061660767
1772648328788140500,4.361140625,0.04916601628065109,-0.9037722945213318,0.3666732907295227
1772648328798181600,4.371181640625,0.03624029830098152,-0.8403746485710144,0.2993468940258026
1772648328808222500,4.381222412109375,0.02383502572774887,-0.7717186212539673,0.21377527713775635
1772648328818262500,4.391262451171875,-0.008521555922925472,-0.7058665752410889,0.11063127964735031
1772648328828303600,4.4013037109375,-0.038950033485889435,-0.6669583320617676,0.026162732392549515
1772648328838344400,4.411344482421875,-0.0620739683508873,-0.6814383864402771,-0.0019445607904344797
1772648328848384500,4.421384521484375,-0.08674975484609604,-0.7015673518180847,-0.03612276911735535
1772648328858425600,4.431425537109375,-0.09311065822839737,-0.6633217930793762,-0.0677175521850586
1772648328868466700,4.441466796875,-0.08048274368047714,-0.6123145222663879,-0.07650305330753326
1772648328878507500,4.451507568359375,-0.061056122183799744,-0.5725259184837341,-0.07177755981683731
1772648328888547600,4.461547607421875,-0.042045678943395615,-0.5552414655685425,-0.07543434947729111
1772648328898588700,4.471588623046875,-0.01814383640885353,-0.5429326295852661,-0.0945369079709053
1772648328908629800,4.481629638671875,0.017199240624904633,-0.5138362646102905,-0.11651784181594849
1772648328918669600,4.491669677734375,0.057484738528728485,-0.464558869600296,-0.13636428117752075
1772648328928710400,4.50171044921875,0.10564827173948288,-0.41198965907096863,-0.15872551500797272
1772648328938751500,4.51175146484375,0.14627425372600555,-0.36480048298835754,-0.1748574674129486
1772648328948792600,4.52179248046875,0.18002235889434814,-0.3187869191169739,-0.18613861501216888
1772648328958832400,4.531832275390625,0.19968165457248688,-0.2671196162700653,-0.18097741901874542
1772648328968873500,4.54187353515625,0.1856052428483963,-0.2281181663274765,-0.17162680625915527
1772648328978914600,4.55191455078125,0.1506277322769165,-0.19099418818950653,-0.17858417332172394
1772648328988955000,4.561954833984375,0.11268407851457596,-0.16461797058582306,-0.1952451765537262
1772648328998995700,4.57199560546875,0.08660691976547241,-0.16331157088279724,-0.2117805927991867
1772648329009036800,4.582036865234375,0.07459180802106857,-0.17678450047969818,-0.2159377932548523
1772648329019078000,4.592077880859375,0.07196427881717682,-0.2084469348192215,-0.20056010782718658
1772648329029117700,4.60211767578125,0.06135397404432297,-0.24972274899482727,-0.1700376272201538
1772648329039158800,4.61215869140625,0.054188065230846405,-0.2751823961734772,-0.12547418475151062
1772648329049199900,4.622199951171875,0.05669862776994705,-0.2909909188747406,-0.08013999462127686
1772648329059240000,4.632239990234375,0.06805291771888733,-0.28278475999832153,-0.030890949070453644
1772648329069280800,4.64228076171875,0.07920064777135849,-0.2613849341869354,0.0004256952088326216
1772648329079321900,4.65232177734375,0.09002562612295151,-0.25374001264572144,0.0038757948204874992
1772648329089362000,4.66236181640625,0.09608431160449982,-0.2714093029499054,-0.021507592871785164
1772648329099403000,4.672403076171875,0.09052513539791107,-0.3270747661590576,-0.0759817436337471
1772648329109443800,4.68244384765625,0.07703223079442978,-0.37759414315223694,-0.1501302719116211
1772648329119485000,4.69248486328125,0.05792053043842316,-0.41003507375717163,-0.16274049878120422
1772648329129524700,4.702524658203125,0.017757130786776543,-0.4823782444000244,-0.13999417424201965
1772648329139565800,4.71256591796875,-0.02972486801445484,-0.5544477701187134,-0.11515472829341888
1772648329149606700,4.722606689453125,-0.07723778486251831,-0.524216890335083,-0.03854117915034294
1772648329159646700,4.732646728515625,-0.133072167634964,-0.48660042881965637,0.08833076059818268
1772648329169687800,4.742687744140625,-0.1643531322479248,-0.39641648530960083,0.23747657239437103
1772648329179728600,4.752728759765625,-0.1247115209698677,-0.2382693886756897,0.4067133665084839
1772648329189769700,4.762769775390625,-0.04887322708964348,-0.09022905677556992,0.5430922508239746
1772648329199809800,4.772809814453125,0.0048939501866698265,0.011556105688214302,0.5861298441886902
1772648329209851000,4.782850830078125,0.041195500642061234,0.09709097445011139,0.5644077658653259
1772648329219891700,4.7928916015625,0.06877156347036362,0.16249731183052063,0.5162304043769836
1772648329229931800,4.802931884765625,0.07541455328464508,0.19738125801086426,0.4564163088798523
1772648329239972900,4.812972900390625,0.06842958927154541,0.22642186284065247,0.35744985938072205
1772648329250014000,4.823013916015625,0.08134032785892487,0.2795388698577881,0.21088331937789917
1772648329260054800,4.8330546875,0.07968852669000626,0.3196934759616852,0.09817743301391602
1772648329270094800,4.8430947265625,0.05658319965004921,0.31140437722206116,-0.004066910594701767
1772648329280136000,4.853135986328125,0.020718274638056755,0.26694607734680176,-0.06541024893522263
1772648329290176800,4.8631767578125,-0.014760889112949371,0.1981465071439743,-0.11964499205350876
1772648329300216800,4.873216796875,-0.07151756435632706,0.09479256719350815,-0.14322124421596527
1772648329310258000,4.8832578125,-0.13205069303512573,-0.03722592070698738,-0.13797160983085632
1772648329320299000,4.893299072265625,-0.1804848462343216,-0.15503661334514618,-0.11467896401882172
1772648329330338800,4.9033388671875,-0.21040493249893188,-0.23786358535289764,-0.10123612731695175
1772648329340379600,4.913379638671875,-0.21489430963993073,-0.23716257512569427,-0.08796200901269913
1772648329350420700,4.923420654296875,-0.20202778279781342,-0.1681278496980667,-0.09133969992399216
1772648329360461800,4.9334619140625,-0.16223739087581635,-0.06322843581438065,-0.09821843355894089
1772648329370501600,4.943501708984375,-0.09434915333986282,0.07387802004814148,-0.10856720805168152
1772648329380542700,4.953542724609375,-0.02882159687578678,0.21966703236103058,-0.1343875229358673
1772648329390583800,4.963583740234375,0.0443335697054863,0.3571186065673828,-0.1673515886068344
1772648329400623900,4.973623779296875,0.11995778232812881,0.47404342889785767,-0.21416200697422028
1772648329410664700,4.983664794921875,0.17638671398162842,0.5516146421432495,-0.2548004984855652
1772648329420705800,4.993705810546875,0.20894967019557953,0.578100323677063,-0.30241891741752625
1772648329430745900,5.003745849609375,0.20802448689937592,0.5364463329315186,-0.3558264970779419
1772648329440787000,5.013786865234375,0.18846876919269562,0.47945505380630493,-0.39032748341560364
1772648329450827800,5.023827880859375,0.15285217761993408,0.39902493357658386,-0.40611574053764343
1772648329460868900,5.033868896484375,0.10437621921300888,0.3188614547252655,-0.40577176213264465
1772648329470909000,5.043908935546875,0.056560494005680084,0.2637486457824707,-0.3959164619445801
1772648329480949800,5.05394970703125,0.007091128267347813,0.22463461756706238,-0.38034456968307495
1772648329490990800,5.063990966796875,-0.03132523596286774,0.1977958083152771,-0.36683541536331177
1772648329501031000,5.074031005859375,-0.05942685902118683,0.1755973994731903,-0.3632740080356598
1772648329511072000,5.084072021484375,-0.07712036371231079,0.16615834832191467,-0.35160085558891296
1772648329521112800,5.09411279296875,-0.07629168778657913,0.18675920367240906,-0.32506194710731506
1772648329531154000,5.10415380859375,-0.07045057415962219,0.21272128820419312,-0.2892528176307678
1772648329541193700,5.11419384765625,-0.06650300323963165,0.23126929998397827,-0.2504718005657196
1772648329551234800,5.12423486328125,-0.0770544484257698,0.2402808964252472,-0.22504286468029022
1772648329561275600,5.134275634765625,-0.09759396314620972,0.23777732253074646,-0.20721668004989624
1772648329571315700,5.144315673828125,-0.12560749053955078,0.24231533706188202,-0.19880081713199615
1772648329581356800,5.154356689453125,-0.1478791981935501,0.2600809633731842,-0.1885683238506317
1772648329591398000,5.16439794921875,-0.15855102241039276,0.28163230419158936,-0.17455583810806274
1772648329601438700,5.174438720703125,-0.16577886044979095,0.30187278985977173,-0.16753673553466797
1772648329611478800,5.184478759765625,-0.16664358973503113,0.31945285201072693,-0.14765490591526031
1772648329621520000,5.194519775390625,-0.1706196814775467,0.3157036602497101,-0.12292346358299255
1772648329631560700,5.204560791015625,-0.17644242942333221,0.2942601442337036,-0.10655035078525543
1772648329641600800,5.214600830078125,-0.18748262524604797,0.2584976553916931,-0.10191656649112701
1772648329651641900,5.224641845703125,-0.1999712586402893,0.21094106137752533,-0.1039847731590271
1772648329661683000,5.234682861328125,-0.21218465268611908,0.17277424037456512,-0.10989153385162354
1772648329671723000,5.244722900390625,-0.23325636982917786,0.15688449144363403,-0.11635209619998932
1772648329681763800,5.254763916015625,-0.26249852776527405,0.16492708027362823,-0.11904850602149963
1772648329691805000,5.264804931640625,-0.2981364130973816,0.18315349519252777,-0.11574964970350266
1772648329701845800,5.274845703125,-0.3287849426269531,0.2106831669807434,-0.10259959101676941
1772648329711885600,5.284885498046875,-0.3495432138442993,0.25920090079307556,-0.09089472889900208
1772648329721926700,5.2949267578125,-0.34555795788764954,0.328376442193985,-0.09160272777080536
1772648329731967700,5.3049677734375,-0.316420316696167,0.38285937905311584,-0.09272205829620361
1772648329742007800,5.3150078125,-0.2805372178554535,0.41612064838409424,-0.1054844781756401
1772648329760833800,5.333833740234375,-0.20547470450401306,0.40079841017723083,-0.12067887932062149
1772648329770874600,5.34387451171875,-0.15869776904582977,0.39406177401542664,-0.12432102113962173
1772648329780915700,5.353915771484375,-0.11810693144798279,0.3939525783061981,-0.12730242311954498
1772648329790956800,5.363956787109375,-0.07892650365829468,0.4133472740650177,-0.11993633955717087
1772648329800996900,5.373996826171875,-0.030960844829678535,0.4415986239910126,-0.11664626747369766
1772648329811037700,5.38403759765625,0.046161551028490067,0.47433483600616455,-0.1487058699131012
1772648329821078800,5.394078857421875,0.09829745441675186,0.4586719870567322,-0.13921356201171875
1772648329831118800,5.404118896484375,0.1682390570640564,0.39931368827819824,-0.11070313304662704
1772648329841160000,5.414159912109375,0.2774493992328644,0.3672018051147461,-0.09939082711935043
1772648329851200800,5.42420068359375,0.41176438331604004,0.3132964074611664,-0.09918402135372162
1772648329861240800,5.43424072265625,0.5549407005310059,0.24792753159999847,-0.12785321474075317
1772648329871282000,5.444281982421875,0.6773132681846619,0.16012267768383026,-0.18675577640533447
1772648329881322800,5.45432275390625,0.7383657097816467,0.01118938997387886,-0.2174559086561203
1772648329891363800,5.46436376953125,0.7268865704536438,-0.21358421444892883,-0.22741471230983734
1772648329901404000,5.47440380859375,0.6817523837089539,-0.4548969864845276,-0.2133508324623108
1772648329911445000,5.484445068359375,0.6183212995529175,-0.6523008942604065,-0.16187505424022675
1772648329921485800,5.49448583984375,0.5376120805740356,-0.792585551738739,-0.06028451398015022
1772648329931525600,5.504525634765625,0.4566679298877716,-0.8583322167396545,0.06834844499826431
1772648329941566700,5.514566650390625,0.3977090120315552,-0.8547353744506836,0.17710474133491516
1772648329951607800,5.52460791015625,0.3625029921531677,-0.7849065065383911,0.26186221837997437
1772648329961648600,5.534648681640625,0.34905484318733215,-0.6478826403617859,0.33371296525001526
1772648329971688700,5.544688720703125,0.3383297920227051,-0.46225589513778687,0.36595064401626587
1772648329981729800,5.554729736328125,0.3272608816623688,-0.23784220218658447,0.3700266182422638
1772648329991770600,5.5647705078125,0.31823477149009705,-0.002427890198305249,0.3440019190311432
1772648330001810200,5.57481005859375,0.3052143156528473,0.2114897221326828,0.2909104526042938
1772648330011851000,5.58485107421875,0.2907000482082367,0.37247124314308167,0.22501438856124878
1772648330021892000,5.59489208984375,0.274796724319458,0.4591353237628937,0.1577325463294983
1772648330031932200,5.60493212890625,0.24774909019470215,0.468375027179718,0.08724301308393478
1772648330041973000,5.614972900390625,0.20804882049560547,0.3957197368144989,0.024859795346856117
1772648330052014000,5.62501416015625,0.15716969966888428,0.25934603810310364,-0.0051469141617417336
1772648330062055200,5.63505517578125,0.10827991366386414,0.09061934053897858,0.014141029678285122
1772648330072095200,5.64509521484375,0.0675167590379715,-0.0753234475851059,0.07992152124643326
1772648330082136000,5.655135986328125,0.038433972746133804,-0.2237832248210907,0.16810837388038635
1772648330092177200,5.66517724609375,0.025878826156258583,-0.34422796964645386,0.2731316089630127
1772648330102217200,5.67521728515625,0.04437900707125664,-0.43667080998420715,0.3781978487968445
1772648330112258300,5.68525830078125,0.06011137738823891,-0.5191066861152649,0.438045859336853
1772648330122299100,5.695299072265625,0.06446990370750427,-0.5641871094703674,0.4646175503730774
1772648330132340200,5.70534033203125,0.07480967044830322,-0.5624400973320007,0.48206400871276855
1772648330142380300,5.71538037109375,0.0789135992527008,-0.5462957620620728,0.48112764954566956
1772648330152421000,5.725421142578125,0.06517419964075089,-0.5320407152175903,0.46041321754455566
1772648330162462200,5.735462158203125,0.054150037467479706,-0.5047340393066406,0.41398125886917114
1772648330172502300,5.745502197265625,0.06092135235667229,-0.48033666610717773,0.3654159605503082
1772648330182543400,5.75554345703125,0.036188043653964996,-0.4901794195175171,0.3242003619670868
1772648330192584200,5.765584228515625,0.012054195627570152,-0.5195143818855286,0.27948713302612305
1772648330202625300,5.775625244140625,0.0063321273773908615,-0.5542156100273132,0.2403717041015625
1772648330212665000,5.7856650390625,0.0011352215660735965,-0.5996416211128235,0.21555277705192566
1772648330222706200,5.7957060546875,-0.009874818846583366,-0.64676433801651,0.19715699553489685
1772648330232747000,5.8057470703125,-0.011525849811732769,-0.6608054041862488,0.17111626267433167
1772648330242787000,5.815787109375,-0.002396001247689128,-0.6386223435401917,0.14144624769687653
1772648330252828200,5.825828125,0.003718980588018894,-0.5938457250595093,0.1066427230834961
1772648330262869000,5.835868896484375,0.0054718730971217155,-0.5491666197776794,0.06805165112018585
1772648330272910000,5.84591015625,0.007071364670991898,-0.5008939504623413,0.017796523869037628
1772648330282950100,5.8559501953125,0.017646243795752525,-0.43374717235565186,-0.030943583697080612
1772648330292991200,5.8659912109375,0.022845827043056488,-0.36537525057792664,-0.07562878727912903
1772648330303032000,5.876031982421875,0.030937310308218002,-0.28469425439834595,-0.11324061453342438
1772648330313072000,5.886072021484375,0.04599614068865776,-0.22345130145549774,-0.1258704960346222
1772648330323113200,5.89611328125,0.0580325610935688,-0.1621658354997635,-0.1476423740386963
1772648330333154300,5.906154296875,0.06928855925798416,-0.11855167150497437,-0.15144135057926178
1772648330343194400,5.9161943359375,0.0812339037656784,-0.08025248348712921,-0.13351668417453766
1772648330353235200,5.926235107421875,0.0781192034482956,-0.051867663860321045,-0.11254259943962097
1772648330363276300,5.9362763671875,0.0661725252866745,-0.03552304580807686,-0.11250025033950806
1772648330373317000,5.946317138671875,0.05584342032670975,-0.03279478847980499,-0.11925789713859558
1772648330383357200,5.956357177734375,0.05301328003406525,-0.0464906245470047,-0.12359272688627243
1772648330393398300,5.966398193359375,0.055261898785829544,-0.08609502762556076,-0.12040481716394424
1772648330403439400,5.976439453125,0.056534890085458755,-0.14290717244148254,-0.10935536026954651
1772648330413479200,5.986479248046875,0.0651351809501648,-0.20630814135074615,-0.10126570612192154
1772648330423520000,5.99652001953125,0.0700409859418869,-0.2817307412624359,-0.07182339578866959
1772648330433561000,6.00656103515625,0.07756821066141129,-0.33391064405441284,-0.04879066348075867
1772648330443601200,6.01660107421875,0.0940297469496727,-0.34177228808403015,-0.036742523312568665
1772648330453642200,6.026642333984375,0.10945680737495422,-0.3338957726955414,-0.045568812638521194
1772648330463683000,6.03668310546875,0.11082087457180023,-0.3434503972530365,-0.0799422338604927
1772648330473724200,6.04672412109375,0.0961846113204956,-0.378567099571228,-0.11633812636137009
1772648330483764200,6.05676416015625,0.06722006946802139,-0.4278787076473236,-0.13796325027942657
1772648330493805000,6.06680517578125,0.023718591779470444,-0.4913807809352875,-0.14328239858150482
1772648330503846100,6.07684619140625,-0.021111462265253067,-0.6007192730903625,-0.16172799468040466
1772648330513886200,6.08688623046875,-0.0642676055431366,-0.6221449375152588,-0.07993421703577042
1772648330523927300,6.09692724609375,-0.12061396986246109,-0.603383481502533,0.08339612185955048
1772648330533968100,6.106968017578125,-0.15257200598716736,-0.5391018390655518,0.24217645823955536
1772648330544009200,6.11700927734375,-0.14818738400936127,-0.39416247606277466,0.3855847418308258
1772648330554049300,6.12704931640625,-0.1099395900964737,-0.18990974128246307,0.5319347977638245
1772648330564090400,6.13709033203125,-0.0636162981390953,-0.012435880489647388,0.6230396628379822
1772648330574131200,6.147131103515625,-0.03491554781794548,0.11042927205562592,0.6099176406860352
1772648330584171300,6.157171142578125,-0.005905203055590391,0.18788596987724304,0.5466307997703552
1772648330594212400,6.16721240234375,0.012621745467185974,0.2480766624212265,0.44839006662368774
1772648330604253200,6.177253173828125,0.028676878660917282,0.30110710859298706,0.3408825099468231
1772648330614293000,6.18729296875,0.045699961483478546,0.3579498827457428,0.23941731452941895
1772648330624334000,6.197333984375,0.05481090024113655,0.38426831364631653,0.15131594240665436
1772648330634375200,6.207375244140625,0.05181014537811279,0.3714383542537689,0.09070190787315369
1772648330644416000,6.217416015625,0.022617105394601822,0.3017207682132721,0.042557280510663986
1772648330654456000,6.2274560546875,-0.03454013168811798,0.15981945395469666,0.032482173293828964
1772648330664497200,6.2374970703125,-0.09460187703371048,-0.011106220073997974,0.0326819121837616
1772648330674538200,6.247538330078125,-0.14870238304138184,-0.17016547918319702,0.012131482362747192
1772648330684578300,6.257578369140625,-0.1907086819410324,-0.28360363841056824,-0.012553890235722065
1772648330694619100,6.267619140625,-0.2132541537284851,-0.3312133252620697,-0.04029826819896698
1772648330704660200,6.27766015625,-0.22727541625499725,-0.3021577000617981,-0.06838610023260117
1772648330714700300,6.2877001953125,-0.22621768712997437,-0.2226743996143341,-0.09267894178628922
1772648330724741000,6.2977412109375,-0.22821453213691711,-0.12480402737855911,-0.1243540421128273
1772648330734782200,6.3077822265625,-0.20239809155464172,0.0010554224718362093,-0.16110862791538239
1772648330744823300,6.3178232421875,-0.16203121840953827,0.16062937676906586,-0.18673142790794373
1772648330754863400,6.32786328125,-0.1203412339091301,0.33246687054634094,-0.2058487981557846
1772648330764904200,6.337904296875,-0.0693206638097763,0.4737243950366974,-0.20464426279067993
1772648330774945300,6.3479453125,-0.014113281853497028,0.5892137289047241,-0.21183854341506958
1772648330784985000,6.357985107421875,0.0264583770185709,0.6448512077331543,-0.23563814163208008
1772648330795026200,6.368026123046875,0.05156343802809715,0.6379868388175964,-0.2574603259563446
1772648330805067000,6.37806689453125,0.07343678176403046,0.588623046875,-0.2779219150543213
1772648330815108400,6.3881083984375,0.07529537379741669,0.5201192498207092,-0.3025311231613159
1772648330825148200,6.398148193359375,0.057874035090208054,0.4567621052265167,-0.32359379529953003
1772648330835189000,6.40818896484375,0.03156859055161476,0.41140496730804443,-0.32439565658569336
1772648330845230000,6.41822998046875,-0.004774767905473709,0.38101136684417725,-0.3152213394641876
1772648330855270100,6.428270263671875,-0.048860568553209305,0.36444321274757385,-0.30607497692108154
1772648330865311200,6.438311279296875,-0.09098698198795319,0.3721775710582733,-0.2969467341899872
1772648330875352000,6.44835205078125,-0.12577849626541138,0.4090406596660614,-0.2925252318382263
1772648330885392100,6.45839208984375,-0.15052379667758942,0.44620800018310547,-0.2993437349796295
1772648330895433200,6.46843310546875,-0.17928436398506165,0.47893422842025757,-0.2929859161376953
1772648330905474300,6.478474365234375,-0.20314761996269226,0.5027580261230469,-0.28218895196914673
1772648330915515100,6.48851513671875,-0.22852212190628052,0.5245079398155212,-0.2719978392124176
1772648330925555200,6.49855517578125,-0.24587954580783844,0.5431702733039856,-0.253216415643692
1772648330935596300,6.50859619140625,-0.25716927647590637,0.5518450140953064,-0.2319023609161377
1772648330945637000,6.51863720703125,-0.26069238781929016,0.543281614780426,-0.20347124338150024
1772648330955677200,6.52867724609375,-0.2526731491088867,0.5263429284095764,-0.17230099439620972
1772648330965718300,6.53871826171875,-0.23492930829524994,0.5111669301986694,-0.13743382692337036
1772648330975759400,6.54875927734375,-0.20122888684272766,0.502159595489502,-0.08854173123836517
1772648330985799200,6.558799072265625,-0.16428497433662415,0.4817746877670288,-0.04640306159853935
1772648330995839700,6.56883984375,-0.13015510141849518,0.46382901072502136,-0.010923811234533787
1772648331005880800,6.578880859375,-0.10539941489696503,0.442037433385849,0.015969054773449898
1772648331015922000,6.588921875,-0.08747775107622147,0.4220280647277832,0.028895970433950424
1772648331025962000,6.5989619140625,-0.07492121309041977,0.405079185962677,0.029491186141967773
1772648331036002800,6.6090029296875,-0.0618923120200634,0.3942587971687317,0.029521141201257706
1772648331046044000,6.6190439453125,-0.05358271673321724,0.38544318079948425,0.022957783192396164
1772648331056084000,6.629083984375,-0.05262554809451103,0.3724462389945984,0.009839557111263275
1772648331066124800,6.639124755859375,-0.06292319297790527,0.354809433221817,-0.004477863200008869
1772648331076166000,6.649165771484375,-0.07417367398738861,0.3468055725097656,-0.011104562319815159
1772648331086205700,6.659205810546875,-0.08757629990577698,0.33975911140441895,-0.013458529487252235
1772648331096246800,6.669246826171875,-0.10069876909255981,0.33503639698028564,-0.013310045003890991
1772648331106287600,6.67928759765625,-0.11419886350631714,0.3269704580307007,-0.012790994718670845
1772648331116328700,6.68932861328125,-0.12329156696796417,0.32829853892326355,-0.00917023979127407
1772648331126368800,6.69936865234375,-0.12203002721071243,0.339623361825943,-0.00614142743870616
1772648331136409900,6.709409912109375,-0.12261246889829636,0.3402600586414337,-0.010549183003604412
1772648331146450700,6.71945068359375,-0.12461303174495697,0.34066832065582275,-0.024916138499975204
1772648331156490800,6.72949072265625,-0.12926378846168518,0.34679684042930603,-0.0378698892891407
1772648331166531800,6.73953173828125,-0.13537122309207916,0.3539098799228668,-0.04804076999425888
1772648331176572700,6.74957275390625,-0.14708536863327026,0.36857521533966064,-0.05730145052075386
1772648331186612700,6.75961279296875,-0.16326114535331726,0.3928118646144867,-0.06121949478983879
1772648331196653800,6.76965380859375,-0.18060846626758575,0.4220559298992157,-0.05898156762123108
1772648331206695000,6.77969482421875,-0.19477063417434692,0.4478425085544586,-0.05579030141234398
1772648331216735700,6.78973583984375,-0.2122879922389984,0.4526469111442566,-0.058498404920101166
1772648331226775800,6.79977587890625,-0.22946351766586304,0.45118215680122375,-0.06841601431369781
1772648331236817000,6.80981689453125,-0.24339714646339417,0.43116894364356995,-0.07994896173477173
1772648331246858000,6.81985791015625,-0.2540263533592224,0.3900904655456543,-0.10208195447921753
1772648331256897800,6.829897705078125,-0.2515929043292999,0.33513113856315613,-0.1430588960647583
1772648331266939000,6.83993896484375,-0.2217670977115631,0.291242778301239,-0.1957428902387619
1772648331276980000,6.84997998046875,-0.19385841488838196,0.2211599349975586,-0.2219017893075943
1772648331287019800,6.860019775390625,-0.15414747595787048,0.11864261329174042,-0.23602746427059174
1772648331297060600,6.870060546875,-0.08583987504243851,0.0020923514384776354,-0.24363704025745392
1772648331307101700,6.880101806640625,0.023861320689320564,-0.08989030122756958,-0.2522798180580139
1772648331317142800,6.890142822265625,0.15755175054073334,-0.16727808117866516,-0.2711373269557953
1772648331327182800,6.900182861328125,0.27716124057769775,-0.2519735097885132,-0.2792740762233734
1772648331337223700,6.9102236328125,0.3513680696487427,-0.3373444676399231,-0.2693220376968384
1772648331347264800,6.9202646484375,0.3921612799167633,-0.42513608932495117,-0.23837609589099884
1772648331357304800,6.930304931640625,0.41835880279541016,-0.4985468089580536,-0.18739771842956543
1772648331367346000,6.940345947265625,0.43624913692474365,-0.5347650647163391,-0.11575149744749069
1772648331377386800,6.95038671875,0.4383540749549866,-0.5483490824699402,-0.015135283581912518
1772648331387426800,6.9604267578125,0.43884891271591187,-0.5395628213882446,0.097041055560112
1772648331397468000,6.970468017578125,0.44016656279563904,-0.49548521637916565,0.2094096839427948
1772648331407508700,6.9805087890625,0.4412107765674591,-0.41244253516197205,0.30166396498680115
1772648331417549800,6.9905498046875,0.4334302544593811,-0.2992623746395111,0.36121878027915955
1772648331427590000,7.00058984375,0.42074084281921387,-0.1653679609298706,0.39026933908462524
1772648331437631000,7.010630859375,0.3968832790851593,-0.016558246687054634,0.3981492221355438
1772648331447671800,7.020671875,0.37492606043815613,0.14242660999298096,0.38192126154899597
1772648331457711600,7.030711669921875,0.36478888988494873,0.2917063534259796,0.35023412108421326
1772648331467752700,7.040752685546875,0.35953208804130554,0.401100218296051,0.3062695860862732
1772648331477793800,7.050793701171875,0.32993432879447937,0.451067715883255,0.24928580224514008
1772648331487834600,7.060834716796875,0.2806386947631836,0.4532826542854309,0.17112788558006287
1772648331497874700,7.070874755859375,0.22985097765922546,0.41309452056884766,0.09107543528079987
1772648331507915800,7.080915771484375,0.17189979553222656,0.30179065465927124,0.026172861456871033
1772648331517956600,7.09095654296875,0.10081425309181213,0.11730337142944336,0.0035786957014352083
1772648331527996700,7.10099658203125,0.046289220452308655,-0.09888565540313721,0.04858744889497757
1772648331538037800,7.111037841796875,0.004607508424669504,-0.32553693652153015,0.12982793152332306
1772648331548078800,7.121078857421875,-0.01853802427649498,-0.5139105319976807,0.1855095624923706
1772648331558119000,7.131118896484375,-0.009736712090671062,-0.6475675702095032,0.26259180903434753
1772648331568159700,7.14115966796875,0.006372482981532812,-0.7418160438537598,0.3274770677089691
1772648331578200800,7.151200927734375,0.0025204867124557495,-0.814201295375824,0.3655405640602112
1772648331588241000,7.161240966796875,-0.012367915362119675,-0.8374080657958984,0.36765140295028687
1772648331598282000,7.171281982421875,-0.025178875774145126,-0.8231096267700195,0.3470659554004669
1772648331608322800,7.18132275390625,-0.038465920835733414,-0.779214084148407,0.32133686542510986
1772648331618364000,7.191364013671875,-0.060049209743738174,-0.7251219153404236,0.28116509318351746
1772648331628404000,7.201404052734375,-0.06505728513002396,-0.6762741804122925,0.2341773360967636
1772648331638444800,7.21144482421875,-0.09053969383239746,-0.6294563412666321,0.17949308454990387
1772648331648486000,7.22148583984375,-0.10264162719249725,-0.5931769013404846,0.11438999325037003
1772648331658525700,7.231525634765625,-0.08192849904298782,-0.5827067494392395,0.06790390610694885
1772648331668566800,7.24156689453125,-0.07859183102846146,-0.6151866912841797,0.04938587546348572
1772648331678607600,7.251607666015625,-0.09209216386079788,-0.6703644394874573,0.03340288624167442
1772648331688648700,7.261648681640625,-0.08293062448501587,-0.7011939883232117,0.01580631360411644
1772648331698688800,7.271688720703125,-0.07972793281078339,-0.6971409320831299,0.009485064074397087
1772648331708729900,7.281729736328125,-0.06612903624773026,-0.6603163480758667,0.016466274857521057
1772648331718770700,7.291770751953125,-0.045990951359272,-0.6196848750114441,0.03247367963194847
1772648331728810800,7.301810791015625,-0.02721167355775833,-0.5826848149299622,0.049645476043224335
1772648331738851800,7.311851806640625,0.0009931506356224418,-0.5362300276756287,0.055754370987415314
1772648331748892700,7.321892578125,0.03714609518647194,-0.4595426917076111,0.05387657880783081
1772648331758932700,7.3319326171875,0.08194518089294434,-0.38115936517715454,0.04230230301618576
1772648331768973800,7.341973876953125,0.12774915993213654,-0.29863759875297546,0.01473192684352398
1772648331779015000,7.352014892578125,0.1711874157190323,-0.21663056313991547,-0.003961944952607155
1772648331789055700,7.3620556640625,0.20793664455413818,-0.1517879217863083,-0.0016311469953507185
1772648331799095800,7.372095703125,0.2159292846918106,-0.11306282877922058,0.0031235716305673122
1772648331809137000,7.382136962890625,0.19627408683300018,-0.08125562965869904,0.00028757122345268726
1772648331819178000,7.392177978515625,0.16522973775863647,-0.040046315640211105,0.002214910229668021
1772648331829217800,7.4022177734375,0.1375911831855774,0.007934792898595333,0.0039052185602486134
1772648331839259000,7.4122587890625,0.12028202414512634,0.038622401654720306,0.009329322725534439
1772648331849300000,7.422300048828125,0.11819756776094437,0.05262157320976257,0.02334287390112877
1772648331859339800,7.43233984375,0.12810996174812317,0.05051511898636818,0.03964274376630783
1772648331869380600,7.442380615234375,0.13584297895431519,0.023905079811811447,0.06639286875724792
1772648331879421700,7.452421630859375,0.139646515250206,-0.022565530613064766,0.08690913766622543
1772648331889462800,7.462462890625,0.13585975766181946,-0.10219670832157135,0.10205826163291931
1772648331899502800,7.4725029296875,0.14214833080768585,-0.16871853172779083,0.12290077656507492
1772648331909543700,7.482543701171875,0.15141239762306213,-0.2222624570131302,0.13835802674293518
1772648331919584800,7.492584716796875,0.157691091299057,-0.28276392817497253,0.14039702713489532
1772648331929624800,7.502624755859375,0.15916328132152557,-0.34326961636543274,0.12378955632448196
1772648331939666000,7.512666015625,0.15465083718299866,-0.40517333149909973,0.0889962762594223
1772648331949706800,7.522706787109375,0.1426927149295807,-0.4569510221481323,0.04415076971054077
1772648331959746800,7.532746826171875,0.10325388610363007,-0.5126968622207642,0.027442611753940582
1772648331969788000,7.542787841796875,0.03906824067234993,-0.6303247213363647,0.03408852964639664
1772648331979828700,7.552828857421875,-0.0376480370759964,-0.7130893468856812,0.0361839234828949
1772648331989869800,7.562869873046875,-0.08607335388660431,-0.6456021666526794,0.08823620527982712
1772648331999910100,7.57291015625,-0.11115814000368118,-0.5442355871200562,0.1739831417798996
1772648332009951200,7.582951171875,-0.12087628245353699,-0.40978938341140747,0.267412394285202
1772648332019992000,7.592991943359375,-0.0959262028336525,-0.2471388280391693,0.34507912397384644
1772648332030032100,7.6030322265625,-0.06561170518398285,-0.13205698132514954,0.40124037861824036
1772648332040073200,7.6130732421875,-0.02846670337021351,-0.02217724174261093,0.41034725308418274
1772648332050114000,7.623114013671875,0.005773024633526802,0.07010848075151443,0.3866935968399048
1772648332060153900,7.63315380859375,0.029988083988428116,0.1238396167755127,0.3534456193447113
1772648332070195000,7.64319482421875,0.02634993940591812,0.1344406008720398,0.3278699517250061
1772648332080236000,7.653236083984375,0.010894828476011753,0.1457674503326416,0.3008959889411926
1772648332090276900,7.66327685546875,0.008342721499502659,0.18880945444107056,0.2568715214729309
1772648332100317000,7.67331689453125,-0.003981313668191433,0.2368532419204712,0.21142594516277313
1772648332110358000,7.68335791015625,-0.03342388942837715,0.2702474296092987,0.16936717927455902
1772648332120399000,7.693399169921875,-0.09255316853523254,0.2709912359714508,0.11934004724025726
1772648332130439200,7.703439208984375,-0.18221887946128845,0.2124219536781311,0.05939069017767906
1772648332140480000,7.71347998046875,-0.28882327675819397,0.09829936921596527,0.013304218649864197
1772648332150521000,7.72352099609375,-0.3751693665981293,-0.02879280596971512,-0.06087973341345787
1772648332160561200,7.73356103515625,-0.43925032019615173,-0.137699693441391,-0.13021713495254517
1772648332170602000,7.74360205078125,-0.47753751277923584,-0.18413136899471283,-0.17005003988742828
1772648332180643000,7.75364306640625,-0.49303555488586426,-0.1882181018590927,-0.17492356896400452
1772648332190684200,7.76368408203125,-0.4819179177284241,-0.15401911735534668,-0.17219702899456024
1772648332200724200,7.77372412109375,-0.4446963369846344,-0.08647341281175613,-0.17594358325004578
1772648332210765000,7.78376513671875,-0.3802984654903412,0.03599657863378525,-0.17439308762550354
1772648332220806100,7.79380615234375,-0.3003273010253906,0.2079441100358963,-0.15567277371883392
1772648332230846200,7.80384619140625,-0.19866910576820374,0.4099581837654114,-0.13142362236976624
1772648332240887000,7.813886962890625,-0.08538994938135147,0.605972945690155,-0.11491096764802933
1772648332250928000,7.82392822265625,0.007640920579433441,0.738815188407898,-0.10019753128290176
1772648332260968000,7.833968017578125,0.06284874677658081,0.8012864589691162,-0.10883142054080963
1772648332271009000,7.844009033203125,0.0862925574183464,0.7991910576820374,-0.1366119235754013
1772648332281049900,7.8540498046875,0.09232152253389359,0.7581055164337158,-0.16928412020206451
1772648332291091000,7.864091064453125,0.07392147183418274,0.6904399394989014,-0.20264846086502075
1772648332301131000,7.874131103515625,0.043583571910858154,0.6078663468360901,-0.2259272336959839
1772648332311172000,7.884172119140625,-0.0009569978574290872,0.510746955871582,-0.24567990005016327
1772648332321213000,7.894212890625,-0.04738328233361244,0.4115285575389862,-0.26854339241981506
1772648332331253000,7.9042529296875,-0.09517024457454681,0.3233363926410675,-0.30374133586883545
1772648332341294000,7.914294189453125,-0.1384573131799698,0.23243433237075806,-0.3314961791038513
1772648332351335200,7.924335205078125,-0.17808328568935394,0.15632012486457825,-0.3354877531528473
1772648332361375000,7.934375,-0.203969344496727,0.11028343439102173,-0.31372296810150146
1772648332371416000,7.944416015625,-0.22471003234386444,0.07425139844417572,-0.28878113627433777
1772648332381457200,7.95445703125,-0.25138479471206665,0.0350310243666172,-0.27973997592926025
1772648332391497200,7.964497314453125,-0.2781437039375305,0.010487065650522709,-0.2784677743911743
1772648332401538000,7.9745380859375,-0.2985076904296875,0.00037595053436234593,-0.26652079820632935
1772648332411579100,7.9845791015625,-0.3078090250492096,-0.009013556875288486,-0.25576910376548767
1772648332421620200,7.9946201171875,-0.3092045187950134,-0.0058521246537566185,-0.25786739587783813
1772648332431660000,8.004659912109375,-0.30071088671684265,0.006478843744844198,-0.25075197219848633
1772648332441701000,8.014701171875,-0.28266990184783936,0.010350978001952171,-0.23395293951034546
1772648332451742200,8.0247421875,-0.2528986930847168,0.014020014554262161,-0.21334059536457062
1772648332461782000,8.034781982421874,-0.22344854474067688,0.015783457085490227,-0.18223945796489716
1772648332471823000,8.044822998046875,-0.19228823482990265,0.005197657272219658,-0.14984290301799774
1772648332481864000,8.054864013671875,-0.15983417630195618,-0.012101920321583748,-0.1315646469593048
1772648332491904000,8.064904052734375,-0.13033327460289001,-0.01625964790582657,-0.1256801187992096
1772648332501945000,8.074945068359375,-0.10584059357643127,-0.0239296592772007,-0.1352028250694275
1772648332511986000,8.08498583984375,-0.08928904682397842,-0.03404274955391884,-0.14639689028263092
1772648332522027000,8.095027099609375,-0.08250723034143448,-0.046791184693574905,-0.1528252512216568
1772648332532067000,8.105067138671876,-0.0883808359503746,-0.06835480034351349,-0.1609516143798828
1772648332542108200,8.115108154296875,-0.0954759269952774,-0.10084179788827896,-0.1704292893409729
1772648332552149000,8.12514892578125,-0.1129036545753479,-0.13759902119636536,-0.17902891337871552
1772648332562189000,8.13518896484375,-0.12756329774856567,-0.17376719415187836,-0.17513559758663177
1772648332572230100,8.145230224609374,-0.12800166010856628,-0.2033676952123642,-0.16515566408634186
1772648332582271000,8.15527099609375,-0.12190082669258118,-0.21567107737064362,-0.15362800657749176
1772648332592311000,8.16531103515625,-0.11409936100244522,-0.22368159890174866,-0.14043603837490082
1772648332602352000,8.17535205078125,-0.10501683503389359,-0.22094854712486267,-0.13742506504058838
1772648332612393200,8.185393310546875,-0.09795279800891876,-0.2045261710882187,-0.14755652844905853
1772648332622434000,8.19543408203125,-0.09891735017299652,-0.16780638694763184,-0.16865922510623932
1772648332632473900,8.205473876953125,-0.10977053642272949,-0.11700260639190674,-0.19647061824798584
1772648332642515000,8.215514892578126,-0.12385617196559906,-0.05383993685245514,-0.22252018749713898
1772648332652556000,8.22555615234375,-0.14196592569351196,0.014308224432170391,-0.2296942174434662
1772648332662596000,8.23559619140625,-0.15061317384243011,0.07214713096618652,-0.23083916306495667
1772648332672637000,8.245636962890625,-0.1568462997674942,0.12568439543247223,-0.23339180648326874
1772648332682678000,8.255677978515624,-0.15621574223041534,0.18343880772590637,-0.23420287668704987
1772648332692718000,8.265718017578125,-0.15471692383289337,0.25075235962867737,-0.22792740166187286
1772648332702759000,8.275759033203125,-0.1489873230457306,0.31191813945770264,-0.21168087422847748
1772648332712800000,8.285800048828126,-0.1393035352230072,0.3570166230201721,-0.20172278583049774
1772648332722841000,8.295841064453125,-0.0998869463801384,0.4001116156578064,-0.21871860325336456
1772648332732881200,8.305881103515626,-0.04881709814071655,0.3798345625400543,-0.23033104836940765
1772648332742922000,8.315921875,0.004749221261590719,0.3033050298690796,-0.22315309941768646
1772648332752963000,8.325963134765624,0.0743567943572998,0.25164130330085754,-0.19690418243408203
1772648332763003100,8.336003173828125,0.1638588309288025,0.2015141099691391,-0.16636815667152405
1772648332773044200,8.346044189453124,0.25727158784866333,0.14428171515464783,-0.13619375228881836
1772648332783085000,8.3560849609375,0.3320213258266449,0.05271249637007713,-0.09171176701784134
1772648332793125000,8.366125,0.3782045245170593,-0.021235231310129166,-0.04442654550075531
1772648332803166200,8.376166259765625,0.40121716260910034,-0.04648902267217636,-0.007482799701392651
1772648332813207000,8.38620703125,0.41040292382240295,-0.03867797181010246,0.04171963408589363
1772648332823246800,8.396246826171875,0.4011209309101105,-0.0404776856303215,0.11463497579097748
1772648332833288000,8.406287841796875,0.377695769071579,-0.0514507070183754,0.20317843556404114
1772648332843329000,8.4163291015625,0.3589766025543213,-0.05323135107755661,0.2871111035346985
1772648332853369900,8.426369873046875,0.35062867403030396,-0.05467025563120842,0.34713611006736755
1772648332863410000,8.436409912109376,0.3343997895717621,-0.07246491312980652,0.3984500467777252
1772648332873451000,8.446450927734375,0.32106614112854004,-0.10231974720954895,0.4397926926612854
1772648332883492000,8.4564921875,0.3112095892429352,-0.10643593221902847,0.471413254737854
1772648332893532200,8.4665322265625,0.297593891620636,-0.09749890118837357,0.4966791868209839
1772648332903573000,8.476572998046874,0.2838927209377289,-0.07243556529283524,0.5249826312065125
1772648332913614000,8.486614013671876,0.26695528626441956,-0.032225027680397034,0.5402228236198425
1772648332923654100,8.496654052734375,0.24703174829483032,0.024695876985788345,0.5216579437255859
1772648332933695000,8.506695068359376,0.22506733238697052,0.07172463089227676,0.4649627208709717
1772648332943736000,8.516736083984375,0.19948294758796692,0.11611805111169815,0.38379061222076416
1772648332953777200,8.526777099609374,0.1852952241897583,0.1592748463153839,0.2961164116859436
1772648332963817200,8.536817138671875,0.1763409525156021,0.18768081068992615,0.22545067965984344
1772648332973858000,8.546858154296874,0.1632312834262848,0.18444666266441345,0.18655948340892792
1772648332983899100,8.556899169921875,0.14998191595077515,0.15029029548168182,0.17727477848529816
1772648332993939000,8.56693896484375,0.1192551702260971,0.08016979694366455,0.18119682371616364
1772648333003980000,8.57697998046875,0.08301366865634918,-0.0024727266281843185,0.2012229561805725
1772648333014020900,8.587020751953125,0.037050168961286545,-0.10171036422252655,0.24182283878326416
1772648333024060700,8.597060791015625,-0.005301353987306356,-0.23872420191764832,0.32102257013320923
1772648333034101800,8.607101806640625,-0.04884776845574379,-0.4034697413444519,0.4003541171550751
1772648333044142800,8.617142822265626,-0.07826653867959976,-0.5216119289398193,0.42763474583625793
1772648333054182700,8.6271826171875,-0.07580365240573883,-0.5944126844406128,0.44819462299346924
1772648333064223700,8.6372236328125,-0.07090073078870773,-0.6532848477363586,0.44926902651786804
1772648333074264800,8.647264892578125,-0.06451420485973358,-0.6783068180084229,0.43474280834198
1772648333084305700,8.6573056640625,-0.0702974796295166,-0.6671335101127625,0.3962191939353943
1772648333094345700,8.667345703125,-0.07247062027454376,-0.6332895159721375,0.3492511510848999
1772648333104386800,8.67738671875,-0.0759226381778717,-0.6101435422897339,0.3102787137031555
1772648333114428000,8.687427978515625,-0.08975216746330261,-0.5578281879425049,0.22741074860095978
1772648333124468000,8.697468017578124,-0.11054066568613052,-0.5057079195976257,0.14802652597427368
1772648333134508800,8.7075087890625,-0.12691670656204224,-0.4825011193752289,0.08982686698436737
1772648333144550000,8.7175498046875,-0.1412862092256546,-0.47617000341415405,0.04316413402557373
1772648333154590000,8.72758984375,-0.15133805572986603,-0.4689142107963562,0.008037036284804344
1772648333164630800,8.737630859375,-0.1486443132162094,-0.4511358439922333,-0.010690787807106972
1772648333174672000,8.747671875,-0.1361096203327179,-0.4105186462402344,-0.018812362104654312
1772648333184713000,8.757712890625,-0.12025454640388489,-0.35751762986183167,-0.025088269263505936
1772648333194752800,8.767752685546874,-0.09883713722229004,-0.30579158663749695,-0.03303647041320801
1772648333204793600,8.777793701171875,-0.08465471863746643,-0.272676557302475,-0.050639357417821884
1772648333214834700,8.787834716796874,-0.07114982604980469,-0.2517659366130829,-0.07174544036388397
1772648333224874800,8.797874755859375,-0.05304830148816109,-0.22150367498397827,-0.0884208157658577
1772648333234915800,8.807915771484375,-0.03946405276656151,-0.18450064957141876,-0.10075977444648743
1772648333244956700,8.817956787109376,-0.028257645666599274,-0.1423710286617279,-0.11364777386188507
1772648333254996700,8.827996826171875,-0.019198104739189148,-0.09352439641952515,-0.11536071449518204
1772648333265037800,8.838037841796876,-0.00901346281170845,-0.03790874779224396,-0.10480409115552902
1772648333275078700,8.84807861328125,0.008581776171922684,0.02827559970319271,-0.08727303147315979
1772648333285119700,8.85811962890625,0.02848713845014572,0.09688778966665268,-0.06865781545639038
1772648333295159800,8.868159912109375,0.046258680522441864,0.14817920327186584,-0.05067268759012222
1772648333305201000,8.878200927734374,0.04633772373199463,0.16880954802036285,-0.03709449991583824
1772648333315241700,8.88824169921875,0.05272158607840538,0.1837775707244873,-0.029451491311192513
1772648333325281800,8.89828173828125,0.07561211287975311,0.1924641728401184,-0.02002554014325142
1772648333335323000,8.908322998046875,0.09767027199268341,0.18059685826301575,-0.0020971414633095264
1772648333345364000,8.918364013671875,0.10084038972854614,0.14172077178955078,0.00447973283007741
1772648333355403800,8.92840380859375,0.0952024757862091,0.0857512503862381,0.000456229317933321
1772648333365444900,8.93844482421875,0.07641183584928513,0.030007662251591682,-0.008290399797260761
1772648333375486000,8.94848583984375,0.056195251643657684,-0.021545011550188065,-0.0059654600918293
1772648333385525800,8.95852587890625,0.034791216254234314,-0.05850100517272949,-0.0018579005263745785
1772648333395566600,8.968566650390626,0.019985374063253403,-0.09329494088888168,-0.014190733432769775
1772648333405607700,8.978607666015625,0.024842193350195885,-0.1110207736492157,-0.04960586130619049
1772648333415648800,8.988648681640624,0.04522363096475601,-0.12180843949317932,-0.09192322194576263
1772648333425688800,8.998688720703125,0.07661044597625732,-0.1394469290971756,-0.13192448019981384
1772648333435729700,9.008729736328124,0.11003577709197998,-0.17863242328166962,-0.16060112416744232
1772648333445770800,9.018770751953125,0.13825079798698425,-0.2270469218492508,-0.1725054532289505
1772648333455810800,9.028810791015625,0.1792381852865219,-0.23758532106876373,-0.15120282769203186
1772648333465852000,9.038851806640626,0.17871615290641785,-0.2732755243778229,-0.08850210160017014
1772648333475892700,9.048892822265625,0.10142801702022552,-0.42521631717681885,-0.025180384516716003
1772648333485932800,9.058932861328126,0.04138926789164543,-0.5009401440620422,0.05376170575618744
1772648333495974000,9.068973876953125,0.03433135896921158,-0.41615280508995056,0.1827353984117508
1772648333506014700,9.0790146484375,0.033743273466825485,-0.2911495864391327,0.2682725489139557
1772648333516054800,9.0890546875,0.015280642546713352,-0.2034839242696762,0.3456032872200012
1772648333526096000,9.099095947265624,0.0006861926522105932,-0.10446007549762726,0.43707796931266785
1772648333536137000,9.109136962890625,0.0162824634462595,0.033579021692276,0.5179629325866699
1772648333546177800,9.119177734375,0.019153539091348648,0.17194584012031555,0.5324530005455017
1772648333556217900,9.1292177734375,0.012504691258072853,0.2593664824962616,0.5070608258247375
1772648333566259000,9.139259033203125,0.006483971606940031,0.31057000160217285,0.4496120810508728
1772648333576300000,9.149300048828126,0.008444058708846569,0.358445405960083,0.35250362753868103
1772648333586339800,9.15933984375,0.019823219627141953,0.417787104845047,0.24034667015075684
1772648333596380700,9.169380615234376,0.02462889440357685,0.47600966691970825,0.15779080986976624
1772648333606421800,9.179421875,0.015417066402733326,0.4965575933456421,0.10687169432640076
1772648333616461800,9.1894619140625,-0.014308338053524494,0.46400177478790283,0.06210315600037575
1772648333626502700,9.199502685546875,-0.04916590452194214,0.3876342177391052,0.03870150074362755
1772648333636543700,9.209543701171874,-0.06996039301156998,0.2913396656513214,0.020802393555641174
1772648333646584800,9.219584716796875,-0.07396310567855835,0.1967260241508484,0.004397934768348932
1772648333656625000,9.229625,-0.08157016336917877,0.10230418294668198,-0.004995833151042461
1772648333666665700,9.239665771484376,-0.08625075966119766,0.033435896039009094,-0.0196361280977726
1772648333676706800,9.249706787109375,-0.08633331954479218,0.0038465787656605244,-0.03223101422190666
1772648333686747000,9.259746826171876,-0.09285026043653488,0.0045928508043289185,-0.04360908269882202
1772648333696787700,9.26978759765625,-0.07870595157146454,0.05483977496623993,-0.013173416256904602
1772648333706828800,9.279828857421874,-0.07934831827878952,0.14966759085655212,0.07745970040559769
1772648333716868900,9.289868896484375,-0.0780540183186531,0.2440718561410904,0.055726971477270126
1772648333726910000,9.299909912109374,-0.061461567878723145,0.341036856174469,-0.02125617302954197
1772648333736950800,9.30995068359375,-0.009403692558407784,0.44171926379203796,-0.09078331291675568
1772648333746991900,9.319991943359375,0.04169619083404541,0.5215244889259338,-0.1338694840669632
1772648333757032000,9.330031982421875,0.0787905603647232,0.5606215596199036,-0.16961415112018585
1772648333767073000,9.340072998046875,0.09217336773872375,0.5676147937774658,-0.21502463519573212
1772648333777113900,9.35011376953125,0.09298616647720337,0.5387884974479675,-0.2711890935897827
1772648333787153700,9.360153564453125,0.09001457691192627,0.49677908420562744,-0.32278749346733093
1772648333797194800,9.37019482421875,0.07245528697967529,0.4344818890094757,-0.3485051095485687
1772648333807235800,9.38023583984375,0.041670061647892,0.3454263210296631,-0.3020687997341156
1772648333817275600,9.390275634765626,0.0165825504809618,0.25755345821380615,-0.23945654928684235
