time,seconds_elapsed,z,y,x
1772643982933516000,0.06051611328125,0.09669745621085167,0.0035702049032784997,0.01005463501913473
1772643982943557000,0.07055712890625,0.10298106652498244,0.0038775903520174323,0.0009960709657985717
1772643982953598000,0.080597900390625,0.09550035538077353,0.014585245919786393,-0.01255205959174782
1772643982963639000,0.09063916015625,0.09221008166372775,0.017681732364092023,-0.0025351810334250328
1772643982973679000,0.10067919921875,0.09729600662589073,0.009059851828124374,-0.0029678733622655273
1772643982983719700,0.1107197265625,0.09564414776563644,0.006717416887823492,0.006118775141239166
1772643982993760500,0.120760498046875,0.07573942385613917,0.0007671849802136421,-0.004532885056128725
1772643983003801600,0.130801513671875,0.095641225156188,0.0015093085844069718,0.0029534703775774686
1772643983013841700,0.140841552734375,0.10477145707309246,-0.005453844959102571,0.005052771611232311
1772643983023882800,0.1508828125,0.0871142198294401,-0.008905081391520797,0.0013474599530454725
1772643983033923600,0.160923583984375,0.08082944047152996,-0.004573883786797523,0.010936157960863783
1772643983043964700,0.170964599609375,0.0966916109919548,-0.0017204488507471978,0.0015916531056165695
1772643983054005500,0.181005615234375,0.09489595974683761,-0.005620799023844302,0.0026573552415240552
1772643983064045600,0.191045654296875,0.09175298554599284,0.0038456060448661443,0.007110462192865088
1772643983074086700,0.201086669921875,0.09564239419996738,0.0010356083917431533,0.002763893489073962
1772643983084127700,0.211127685546875,0.09788695825636386,0.013321929719392209,0.006059729297226295
1772643983094168600,0.22116845703125,0.09205342979729175,0.02132396132396534,-0.0048632221221923825
1772643983104209700,0.231209716796875,0.0896592281371355,0.01473671015445143,0.005912475446797907
1772643983114249700,0.241249755859375,0.09848784675896168,0.010405676946509628,0.0084119458460249
1772643983124290800,0.251290771484375,0.10791501579582691,0.0030915545408613976,-0.01048791186986491
1772643983134331600,0.26133154296875,0.10342530316114425,0.00043676571575924754,-0.010503219036851077
1772643983144372700,0.271372802734375,0.10746318037509918,-0.010266451138909906,-0.004836964302929118
1772643983154412800,0.281412841796875,0.09294541020095348,-0.0038962037209421393,-0.008557217801921068
1772643983164453600,0.29145361328125,0.09474106144607067,-0.004038023344427347,0.001601270317332819
1772643983174494700,0.30149462890625,0.09115034347772598,0.008806991311907767,0.0037029735706280917
1772643983184535800,0.311535888671875,0.10057634347081183,0.0045211672188714145,0.0050260662673972546
1772643983194576600,0.32157666015625,0.094887776440382,0.014014496827125548,0.009996054966002702
1772643983204616400,0.331616455078125,0.08171908278763294,0.013420038065314293,0.013299681354966014
1772643983214657500,0.341657470703125,0.08501169459223747,0.013260646252520382,-0.004681143553555011
1772643983224698600,0.35169873046875,0.0917459712833166,0.011914748068898915,0.007406668660463765
1772643983234739500,0.361739501953125,0.09668225864171981,0.020196802191250026,0.0023382610886823383
1772643983244779500,0.371779541015625,0.10132160888016223,-0.00045811903104186054,-0.005625301669025793
1772643983254820600,0.381820556640625,0.09369067561030388,-0.004245967006683349,0.0005579444100148976
1772643983264861700,0.39186181640625,0.08890227228999137,-0.012338416841067373,0.00719131800988689
1772643983274902500,0.401902587890625,0.09264555047154426,-0.002233019749075174,0.008656595656322316
1772643983284943600,0.411943603515625,0.09219839122593403,-0.0073773603675886985,-0.004631176065141335
1772643983294983700,0.421983642578125,0.09563888706862926,0.005068718099035322,-0.0034355091403238474
1772643983305024500,0.4320244140625,0.09070259971022605,0.015967274862714112,0.005778300273651257
1772643983315065600,0.442065673828125,0.10297288321852684,-0.00005205898080021143,-0.006783111668331548
1772643983325106700,0.452106689453125,0.10013269135653972,0.016748031710553914,-0.005230493665160611
1772643983335147500,0.4621474609375,0.10462181946933269,0.01254166606189683,0.001979602110432461
1772643983345187600,0.4721875,0.09234978239536284,0.007521846872195601,0.0015020020607858895
1772643983355228700,0.482228759765625,0.08920680819451808,0.017894133005756884,0.0007048786000348628
1772643983365269800,0.492269775390625,0.09459200836420059,0.014960308043565601,0.0036802046163938937
1772643983375310600,0.502310546875,0.08127367710769176,0.000013991992734372614,0.0035230778259225186
1772643983385350700,0.5123505859375,0.09758300687372684,-0.009684249070473015,-0.001835809725569561
1772643983395391700,0.522391845703125,0.09548749589920043,-0.0003720116501674056,0.010530974693456664
1772643983405432600,0.5324326171875,0.07843056263625621,-0.009799472947977483,-0.0010842424395959825
1772643983415473700,0.5424736328125,0.08875555729568003,-0.0001844531888142228,-0.002963882173737511
1772643983425514800,0.5525146484375,0.10536825392246246,0.00048559155985713,-0.0010558200627099723
1772643983435554800,0.562554931640625,0.10147767622470855,0.017389307022467253,0.006401574137993156
1772643983445595600,0.572595703125,0.09564180967807769,0.013061726146936415,-0.0006634414779487996
1772643983455636700,0.58263671875,0.0948918680936098,0.016385865600965915,0.005239718151232227
1772643983465677800,0.592677734375,0.0881605140119791,0.008371723433490841,-0.008944043428730218
1772643983475717600,0.602717529296875,0.09579495441317558,0.008123685222864151,-0.007289800815144553
1772643983485758500,0.612758544921875,0.101627898350358,-0.005272186515573412,0.004712753401370719
1772643983495799600,0.622799560546875,0.10042904395461082,-0.007773337415233254,0.007618493913393467
1772643983505840600,0.632840576171875,0.09788578921258449,-0.006153736856766044,0.00148316949615255
1772643983515881500,0.642881591796875,0.09728957688510417,-0.013228077423479407,-0.007404166176123544
1772643983525921500,0.652921630859375,0.09609247605502605,-0.004115015837084502,-0.001224098434858024
1772643983535962600,0.662962646484375,0.09160393246412277,-0.005195815077424049,0.004034717142488807
1772643983546003500,0.67300341796875,0.0978852046906948,0.0009933766852132976,-0.0013756905336864292
1772643983556044500,0.68304443359375,0.08950608340203761,-0.008028791747335343,0.00853966387892142
1772643983566085600,0.693085693359375,0.09249883547723292,0.01109190564500168,-0.0018462215217296032
1772643983576125700,0.703125732421875,0.11344634643793106,0.015611812488548456,0.011219294884335249
1772643983586166500,0.71316650390625,0.08696282866001129,-0.0003100340635515749,0.0035796120524406432
1772643983596207600,0.72320751953125,0.08875789538323879,0.007932656162790954,0.01075453604995273
1772643983606248700,0.733248779296875,0.10132686957716941,0.019036873300094157,0.0037195959118660536
1772643983616288800,0.743288818359375,0.09878069222569465,0.008646010330226273,0.0029227921115234493
1772643983626329600,0.75332958984375,0.10416706143915652,-0.012723050510790198,-0.006222957034921274
1772643983636370700,0.76337060546875,0.09474164596796035,-0.009910550373326986,0.0060051221663132304
1772643983646411800,0.773411865234375,0.09863280818760395,0.004896740799304098,-0.0019595183036290108
1772643983656452600,0.78345263671875,0.08935644579827785,-0.010546619787160306,-0.006613088863668963
1772643983666492700,0.79349267578125,0.09070669136345386,0.005077321530599147,-0.003956811334379017
1772643983676533800,0.80353369140625,0.08636720085442065,0.00895748743219301,0.008451044880552218
1772643983686574600,0.81357470703125,0.08681786723136901,0.008589786630962043,0.002974604497151449
1772643983696615700,0.82361572265625,0.10821779813468456,0.010021920059621334,0.0029599457841366526
1772643983706655700,0.83365576171875,0.09474866023063659,0.012206132230907678,0.015337023268314078
1772643983716696800,0.84369677734375,0.09938742594718933,0.0059125850446522235,0.002319510722439736
1772643983726737700,0.853737548828125,0.09684241763949393,-0.0010608158982358873,0.0061757660254836075
1772643983736778800,0.86377880859375,0.09624211365878581,0.0004904869306832551,0.011832768873870372
1772643983746819800,0.87381982421875,0.1001332758784294,-0.0007317666069604456,0.009490333933569491
1772643983756859600,0.883859619140625,0.0965431424319744,-0.005120777079835534,0.004575756083475426
1772643983766900500,0.893900390625,0.09310264658927916,-0.0023052447350695726,0.008293379233963788
1772643983776941600,0.903941650390625,0.08891104011833667,0.010312737966049462,0.001395226351218298
1772643983786982700,0.913982666015625,0.09235445857048034,0.01596672687344253,0.005415805370500311
1772643983797023500,0.9240234375,0.09923837286531925,0.007841543813236058,0.0020044899565167724
1772643983807063600,0.9340634765625,0.07874094375967979,0.0023916078442707657,-0.005981321165617555
1772643983817104600,0.944104736328125,0.08143617419302462,0.008198631888907402,-0.003784541773702949
1772643983827145500,0.9541455078125,0.08921557602286338,0.009901508550345897,0.0051751010829582805
1772643983837186600,0.9641865234375,0.08966448883414269,0.010213533641584217,0.0020047822174616156
1772643983847226600,0.9742265625,0.09266074804067612,0.0007036364910192787,0.008357092119939624
1772643983857267700,0.984267822265625,0.08892156151235103,0.00309838614044711,0.008546632475825025
1772643983867308500,0.99430859375,0.0887701703429222,0.010182864508684724,0.0058304049202241
1772643983877349600,1.004349609375,0.09774784204661846,-0.004154544129874557,-0.0004596168683841824
1772643983887390700,1.014390625,0.09894494287669658,-0.009813665870111435,-0.013092413546144962
1772643983897430800,1.0244306640625,0.08862170178294182,0.0016745638824068008,0.005556492482824251
1772643983907471600,1.0344716796875,0.08862345534861087,-0.006899312793370336,-0.007194934739079326
1772643983917512700,1.0445126953125,0.08877426199615002,0.003101034755259752,0.0031111086247023194
1772643983927553500,1.054553466796875,0.08787585185170173,0.006857355081476271,0.004898503498127683
1772643983937593600,1.064593505859375,0.095807229372859,0.014486242524720727,0.0009870930748991668
1772643983947634700,1.074634765625,0.09341361223459244,0.017299455048236996,0.008929923571832478
1772643983957675800,1.08467578125,0.10702888061106204,0.012115403473842889,0.008523744790581985
1772643983967716600,1.094716552734375,0.09191489810943602,0.009589793986361473,-0.0067665349928662175
1772643983977757700,1.1047578125,0.09520867895781994,-0.005417202743142843,0.004290061876736581
1772643983987797800,1.1147978515625,0.09580547580718994,0.004500307093933224,0.004628536583483219
1772643983997838800,1.1248388671875,0.09745148944854735,-0.008516648329515009,-0.000019910276867449283
1772643984007879700,1.134879638671875,0.09071662823557854,0.00843718988513574,0.01012337114010006
1772643984017920800,1.144920654296875,0.09071896632313728,0.0046373226781375705,-0.014595146259292958
1772643984027961900,1.1549619140625,0.10463760156035423,0.003971022522822022,0.004108092905953526
1772643984038001700,1.165001708984375,0.09895137261748313,0.01861293053328991,0.005805909799784422
1772643984048042800,1.175042724609375,0.0872802240461111,0.014540639593079685,-0.00211147572863847
1772643984058083800,1.185083740234375,0.0836900905996561,0.016610596001241356,-0.004844325625477358
1772643984068124700,1.195124755859375,0.09610884266793727,0.012918262555636465,0.0018945998412556945
1772643984078164700,1.205164794921875,0.08623217629790306,-0.006370978070329874,0.005030550646269694
1772643984088205800,1.215205810546875,0.0965565864354372,0.011463040512334554,0.01174610437056981
1772643984098247000,1.225246826171875,0.09820084651112555,0.005838533427752554,-0.0024860994610004126
1772643984108287700,1.235287841796875,0.10313947195708752,-0.00376287793116644,-0.0011254420996643603
1772643984118328800,1.245328857421875,0.0920686273664236,-0.007719579667691141,0.01381225225329399
1772643984128369000,1.255368896484375,0.08653378959298133,-0.0011951463350094854,0.003941020110202953
1772643984138409700,1.26540966796875,0.09326981984972953,-0.0004973733291961253,-0.0010437734318897128
1772643984148450800,1.275450927734375,0.10464227773547172,-0.011267718869633972,-0.005253454415639862
1772643984158492000,1.285491943359375,0.10808277357816695,0.010455069046188144,-0.01088820889960043
1772643984168532700,1.29553271484375,0.09147066147327422,0.009615038025472313,-0.0024980364939663556
1772643984178572800,1.30557275390625,0.09356091175079345,0.01183991100070998,0.0007123677867464721
1772643984188614000,1.31561376953125,0.09221183522939681,0.01225623671663925,-0.004463272152328864
1772643984198655000,1.325655029296875,0.08188567152619361,0.014369922668673098,-0.0030977102870121597
1772643984208695800,1.33569580078125,0.10358137050569056,0.0067539860385470085,-0.000007315656775608658
1772643984218735900,1.34573583984375,0.0962514660090208,-0.002752075187116861,-0.0038646304057445373
1772643984228777000,1.35577685546875,0.08428221127390861,-0.0010099807601422072,-0.004923016884876415
1772643984238818000,1.365818115234375,0.1004430724799633,0.002134071152936667,-0.006572437192872167
1772643984248859000,1.37585888671875,0.08174187914133071,-0.006791011846996844,-0.004516372312745079
1772643984258900000,1.38589990234375,0.0898246478319168,0.0001572729209437966,0.0007535035147331655
1772643984268939800,1.395939697265625,0.09536123917102814,0.009410236168373375,-0.002213931456115097
1772643984278980600,1.405980712890625,0.0992535704344511,0.01220114552853629,0.0006244794407393783
1772643984289021700,1.416021728515625,0.09491466444730758,0.013681246284767985,-0.005044615704240277
1772643984299062800,1.426062744140625,0.07561024451851844,0.012948146237246692,0.0008462872315663844
1772643984309102800,1.436102783203125,0.08144552654325962,0.009925857540313153,0.0033254180956631897
1772643984319143700,1.446143798828125,0.10074936195015907,0.00946569268265739,0.009596543387556448
1772643984329184800,1.456184814453125,0.0944651671141386,-0.005960552372224629,0.002393818067666143
1772643984339225900,1.466225830078125,0.1013490814089775,0.001210069909505546,-0.009740545834973455
1772643984349266700,1.4762666015625,0.09640987144112587,-0.0036849355904385447,0.007606355951027944
1772643984359306800,1.486306640625,0.1130213990241289,0.003155979812890291,-0.013506245910888537
1772643984369347800,1.496347900390625,0.0875812528192997,0.008296137446630745,0.0025036168513819573
1772643984379389000,1.506388916015625,0.10149404283761977,0.0020867796787992117,-0.004579062285413965
1772643984389429800,1.5164296875,0.09760288061797619,-0.0009171148449182509,-0.0034916506411973385
1772643984399469800,1.5264697265625,0.1026911436676979,0.007618329516611993,0.002620000639511272
1772643984409511000,1.536510986328125,0.10538637410104273,0.0063868697592057285,0.0016764270459301768
1772643984419551700,1.5465517578125,0.10000058940947056,0.002725954365171492,0.0003658193713985383
1772643984429592800,1.5565927734375,0.09431494498848915,0.008108067528624087,0.0048499059828929604
1772643984439634000,1.566634033203125,0.09401566978096962,0.003879343917686492,0.009889498452143743
1772643984449674000,1.576674072265625,0.10059738625884056,-0.0003932919002138078,0.0009009765608701854
1772643984459714800,1.58671484375,0.10015139605700969,-0.007656104243732988,0.0037118418636731803
1772643984469756000,1.596755859375,0.10284487292468547,0.011644187499210238,-0.005252979491604492
1772643984479797000,1.606796875,0.08608779939115047,0.00022354309018701314,0.015208565449900924
1772643984489837000,1.616837158203125,0.0916243907302618,-0.004403148596081883,0.0057293830980081105
1772643984499878000,1.6268779296875,0.095963881239295,0.013093253796361386,0.005908374660415575
1772643984509919000,1.6369189453125,0.09057809654772281,0.003329929873999208,-0.0008080284472554922
1772643984519959800,1.646959716796875,0.08968027092516422,-0.003712408119253814,0.0024862547246273605
1772643984530001000,1.6570009765625,0.08459083883166313,0.0038167452765628693,0.0017538213973864911
1772643984540040700,1.667040771484375,0.07845803516507148,0.000940020796470344,-0.0007354472682345658
1772643984550081800,1.677081787109375,0.08848200105130671,-0.001829882308281958,-0.0007547912895213813
1772643984560122600,1.68712255859375,0.08444061670601367,0.010486523630376905,0.0005384451251011341
1772643984570164000,1.6971640625,0.08399111937284469,-0.0029443098235875367,0.008153340575611219
1772643984580203800,1.707203857421875,0.09955284564197063,0.004705236815195531,-0.000979905282286927
1772643984590244900,1.717244873046875,0.08922843550443649,-0.007275434363074601,-0.004594725645426661
1772643984600285700,1.72728564453125,0.08758475995063782,-0.00777965755816549,0.0007480966872535646
1772643984610326800,1.737326904296875,0.08698562501370906,0.008219236285518855,0.007245769877173006
1772643984620368000,1.747367919921875,0.08219663717150688,-0.0036107378430664536,0.008359329742798582
1772643984630408000,1.757407958984375,0.10269698888659477,0.002211374172847718,0.0004862948127556592
1772643984640448800,1.76744873046875,0.08174772436022758,0.009820935861114412,0.007387808696366846
1772643984650489900,1.77748974609375,0.0916243907302618,0.006960121336206793,-0.002007924022618681
1772643984660530700,1.78753076171875,0.09431669855415821,0.01591839421968907,-0.0026504505767021326
1772643984670571800,1.79757177734375,0.0961123497992754,-0.0018755480809137224,-0.0011785057274624705
1772643984680611800,1.80761181640625,0.10733809269070625,-0.0016574666171334683,-0.010936687683826312
1772643984690653000,1.81765283203125,0.09357026410102844,0.01215451164152473,0.002538057977100834
1772643984700693800,1.82769384765625,0.09461948089301586,0.004027976874448359,0.0017444233813788742
1772643984710734800,1.83773486328125,0.08504384329617024,0.008038125831261277,-0.0035123555025085803
1772643984720775000,1.84777490234375,0.08459493048489093,-0.0014285532320849597,0.0043505324928555635
1772643984730816000,1.85781591796875,0.10015899484157562,-0.010014631802309304,-0.00848103816001676
1772643984740856800,1.86785693359375,0.09656769235134124,-0.004073277320899069,0.0005727766529656946
1772643984750898000,1.87789794921875,0.09087970984280108,-0.0011799304995685814,0.00718949137898162
1772643984760939000,1.88793896484375,0.08923428072333335,-0.003721906599961221,0.0012989172367379067
1772643984770978800,1.897978759765625,0.08623977508246898,0.005146422977745532,0.001922693424578756
1772643984781020000,1.90802001953125,0.09192775759100913,0.00729649541741237,0.007237257777154445
1772643984791061000,1.91806103515625,0.10569441713690757,0.004919062228966504,0.0048283060724381354
1772643984801101800,1.928101806640625,0.09851181215643882,0.013913027480337768,-0.009418255078047513
1772643984811143000,1.938142822265625,0.08145370984971523,0.01001892438493669,0.0027910554906353355
1772643984821183000,1.948182861328125,0.10060498504340648,-0.010381656750105321,0.005454228551592677
1772643984831224000,1.95822412109375,0.08713818522691726,0.0016076178597286342,0.004025054264999926
1772643984841265000,1.968264892578125,0.10150222614407539,0.0014843568062409757,-0.0021031188922468573
1772643984851306000,1.978305908203125,0.08788695776760577,0.0037098143033683297,-0.0005514781366102397
1772643984861345800,1.988345703125,0.10060732313096522,0.002660688842926174,0.00207120765033178
1772643984871387000,1.998386962890625,0.08653788124620913,0.008598097801581025,-0.01033199978894554
1772643984881427700,2.008427734375,0.10180325491726398,0.010607684058323501,0.003595266279298812
1772643984891468800,2.01846875,0.09656593878567218,0.013792908232007175,0.004128953030891717
1772643984901510000,2.028510009765625,0.09057985011339187,0.014262023581098765,0.007571631697518751
1772643984911549700,2.0385498046875,0.08519231185615062,-0.007241897419653832,0.00003196604084223509
1772643984921590800,2.0485908203125,0.08339607608914375,0.010596651207655667,0.0019406766058411447
1772643984931631900,2.0586318359375,0.09207388806343078,0.016474749460816382,-0.003026033290289342
1772643984941672700,2.068672607421875,0.09402151499986648,0.01073330146567896,-0.004547744698543101
1772643984951712800,2.078712646484375,0.09267302300035953,-0.003144106712006032,0.0007039013525005429
1772643984961753900,2.08875390625,0.0961123497992754,0.0006729673581197858,0.015832606499223037
1772643984971795000,2.098794921875,0.10509235959053038,0.013187398353219032,0.006406579106673598
1772643984981835800,2.108835693359375,0.10030629435777663,0.002681238440610468,-0.013748110109055413
1772643984991877000,2.118877197265625,0.08953180236518382,0.006285802271217107,0.0021078589994460344
1772643985001917200,2.128917236328125,0.10075403812527656,0.0038990897977724667,-0.002941652075620368
1772643985011958000,2.1389580078125,0.09521686226427555,0.0006314115050248801,0.0022956640559714287
1772643985021999000,2.1489990234375,0.08608896843492984,0.010345014534145594,-0.007717862634640187
1772643985032040200,2.159040283203125,0.09536533082425594,0.03132743241144344,-0.007397973897354677
1772643985042080300,2.169080322265625,0.09013093730211258,-0.00468349990742281,-0.008613295370712875
1772643985052121000,2.17912109375,0.0916290669053793,-0.0028850356507115066,0.009835192715330048
1772643985062162200,2.189162109375,0.08534194945991039,0.005526764064840972,0.0030211744520813226
1772643985072203300,2.199203369140625,0.09177695094346999,0.011369279547967017,0.0023881646450143305
1772643985082244000,2.209244140625,0.09985679702460765,-0.00026257819263264537,-0.006031179056176916
1772643985092284200,2.2192841796875,0.10644318967759608,0.010448054783511906,0.005912502846261486
1772643985102325200,2.2293251953125,0.07561842782497405,-0.008612162859551608,-0.00031076471591368315
1772643985112366000,2.239365966796875,0.08609539817571639,0.001810940145794302,0.0008272994033060967
1772643985122407200,2.2494072265625,0.09432429733872413,0.010859046737197786,-0.008195919342013075
1772643985132447000,2.259447021484375,0.09193009567856789,0.0019013035766780376,-0.0025657771010883152
1772643985142488000,2.269488037109375,0.09327449602484703,0.0013565291754901408,-0.0001362118666060269
1772643985152529000,2.27952880859375,0.09013210634589194,0.004073021592572331,-0.004831036885641515
1772643985162570000,2.289570068359375,0.08938274928331374,-0.0003807429458945989,-0.008126763095939531
1772643985172611000,2.299611083984375,0.09282616773545742,0.0052637840134091675,-0.010535376873938367
1772643985182651100,2.309651123046875,0.0946218189805746,0.0024108605340123174,0.014034799829637632
1772643985192692000,2.31969189453125,0.0830973854035139,-0.012794928436912595,0.0019235428079497068
1772643985202733000,2.329733154296875,0.08983107757270335,-0.010140833731554447,-0.009927017450938
1772643985212774100,2.339774169921875,0.0922258637547493,0.0028304193866439164,-0.0047965500941500065
1772643985222815000,2.34981494140625,0.09402151499986648,0.005661277164705097,-0.012062595574371516
1772643985232855000,2.35985498046875,0.10180150135159492,0.002241915441583842,0.0036450237051583825
1772643985242896100,2.369896240234375,0.08205109122097491,-0.005853804062120616,-0.0031534864617045965
1772643985252937000,2.37993701171875,0.08998305326402187,0.00655565045485273,-0.004897444052202627
1772643985262978000,2.38997802734375,0.08803717989325523,0.02513645055051893,-0.003985261110728606
1772643985273018000,2.40001806640625,0.09955810633897781,-0.003435162080451846,-0.007072203408554196
1772643985283059200,2.41005908203125,0.09850888954699039,0.0018626155341044067,-0.0028850630501750857
1772643985293100000,2.42010009765625,0.10254910484850406,-0.0033695677646435793,0.009057121014920995
1772643985303141000,2.43014111328125,0.09057809654772281,-0.0012624028849415481,-0.0033668004188220947
1772643985313182200,2.44018212890625,0.0944692587673664,-0.001892517482023686,0.001593297073431313
1772643985323222300,2.45022216796875,0.09566635959744453,-0.007727141919638961,-0.004087579840887338
1772643985333263000,2.46026318359375,0.08713467809557915,0.006706110042519867,-0.0030270014046691355
1772643985343304200,2.47030419921875,0.08862871604561805,0.0027233788155950605,-0.004771543517056853
1772643985353345300,2.48034521484375,0.08667933554351329,-0.007928564509563148,0.00557069453811273
1772643985363385000,2.490385009765625,0.09760288061797619,0.0008651289293542504,0.006232501181401312
1772643985373426200,2.50042626953125,0.11271452503204345,0.007479158507939428,-0.004774438727041706
1772643985383467300,2.51046728515625,0.1097194348692894,0.005901259933039546,0.001507061828393489
1772643985393508000,2.520508056640625,0.10073942507803439,0.009877671017032116,0.0005688859291374683
1772643985403549200,2.530549072265625,0.0884697260916233,-0.00887477758480236,-0.005675534018920734
1772643985413589000,2.540589111328125,0.08517886785268783,0.0038248737840913235,-0.003917009046953171
1772643985423630000,2.550630126953125,0.0851800368964672,0.0055897280321456485,0.0019116879733745008
1772643985433671000,2.5606708984375,0.09310732276439666,0.002109996157605201,0.005352147283451632
1772643985443712000,2.5707119140625,0.08787000663280486,-0.0026777678418904542,0.006835718638403341
1772643985453753000,2.580753173828125,0.09909399595856666,0.00027945626219734546,0.0033878340736962853
1772643985463793200,2.590793212890625,0.1004383963048458,-0.001140475272014737,0.004467427737638354
1772643985473834000,2.600833984375,0.09430091646313667,0.001109934003278613,0.007621389123378321
1772643985483875000,2.610875,0.08442366557121277,-0.010703509115613996,0.006018794498639181
1772643985493916200,2.620916259765625,0.09370002796053886,0.010888327630609273,0.015420217172894626
1772643985503956000,2.6309560546875,0.09549860181510447,0.004984638278465718,0.012837324540223925
1772643985513997000,2.6409970703125,0.09400222577750682,0.011707535059005021,0.00687145667206496
1772643985524038100,2.6510380859375,0.08412322131991386,0.010434738644212484,-0.0056325259942561386
1772643985534079000,2.661078857421875,0.09085925157666205,0.00796341662723571,0.007211657545017078
1772643985544120000,2.6711201171875,0.09983809232413768,0.0021267280966974795,-0.008508866881858557
1772643985554160000,2.68116015625,0.10103636219799518,-0.0016459405761212109,-0.005230648928787559
1772643985564201200,2.691201171875,0.10731938799023627,-0.0014459427583031355,-0.0018123649179004131
1772643985574242000,2.701241943359375,0.11255728864371776,0.013661281208973378,0.004903115741163492
1772643985584283100,2.711283203125,0.10133213027417659,-0.002300824288278818,0.0006488832296337932
1772643985594323200,2.7213232421875,0.09415069433748721,-0.007916179952025412,-0.004968947518989444
1772643985604364000,2.731364013671875,0.09804361012279987,0.00011558920368552207,-0.008167241236800328
1772643985614405000,2.741405029296875,0.08637304607331753,0.004146433888655155,-0.0023745562447700648
1772643985624446200,2.7514462890625,0.09265899447500706,0.0036402196658775208,-0.004875853274902329
1772643985634487000,2.761487060546875,0.08427519701123237,-0.00032150530563667415,-0.0005913078234996646
1772643985644527000,2.771527099609375,0.08951192862093447,0.0004344458945095539,0.00346880862172693
1772643985654568200,2.781568115234375,0.0953495487332344,0.00846115528261289,-0.002972193344356492
1772643985664609300,2.791609375,0.08891688533723353,0.002739197439234704,0.00539078966025263
1772643985674650000,2.801650146484375,0.10537935983836651,-0.008878814439103006,0.0016703443650156258
1772643985684690000,2.81168994140625,0.08517652976512909,0.004003116427827626,0.0047679085215553635
1772643985694731000,2.82173095703125,0.09325696036815642,0.004609886681940407,0.0013428203105460852
1772643985704772000,2.831772216796875,0.10313011960685252,0.0018178448106162249,0.005470905691757798
1772643985714813000,2.84181298828125,0.08966331979036331,0.0013618812040425837,0.012775831010797992
1772643985724854000,2.85185400390625,0.09415420146882533,0.00730796665949747,0.005702385493228212
1772643985734894000,2.86189404296875,0.09594868367016315,0.009624518239870667,0.006808246109588072
1772643985744935000,2.871934814453125,0.09160977768301963,0.006305986542720347,-0.0004887333650141954
1772643985754976000,2.88197607421875,0.10058978747427463,0.013887765174917875,0.00547004717523232
1772643985765017000,2.89201708984375,0.101187753367424,-0.004633450220618397,-0.001292661025887355
1772643985775058000,2.902057861328125,0.1016366661787033,-0.006602083412464708,0.008045167493401095
1772643985785098000,2.912097900390625,0.08727320978343486,0.008439619304239749,-0.0027254794411361214
1772643985795139000,2.92213916015625,0.1076233393728733,0.0024613851448521016,-0.0047710411935579025
1772643985805180200,2.93218017578125,0.09610182840526103,0.0015405987718142568,0.0015353654742706565
1772643985815221000,2.942220947265625,0.09565174655020237,0.012507873390149325,0.0055367648690473285
1772643985825261000,2.952260986328125,0.09400514838695526,0.00864073136691004,0.003295534414052963
1772643985835302100,2.96230224609375,0.10388123023509979,0.006842595903761684,0.009265987125784159
1772643985845343200,2.97234326171875,0.09190671480298042,0.002612721515353769,-0.0019169578035362063
1772643985855384000,2.982384033203125,0.09235445857048034,0.005925955982878804,-0.0032564627789892255
1772643985865425200,2.992425048828125,0.08846388087272644,0.010559314871951936,0.0054308750754687935
1772643985875465200,3.00246533203125,0.09759294374585151,0.0047161600680090485,0.009999397700559347
1772643985885506000,3.012506103515625,0.10597148051261901,0.00935370194185525,0.002454535278957337
1772643985895547100,3.022547119140625,0.08966215074658393,0.010980572491325438,0.008138188672251998
1772643985905588200,3.032588134765625,0.0965431424319744,0.007564352573361247,-0.0016442144099157302
1772643985915628300,3.042628173828125,0.08666764510571956,0.01799468903709203,0.0009577117167878895
1772643985925669000,3.052669189453125,0.08696750483512877,-0.005223141475766897,0.005904611800750717
1772643985935710200,3.062710205078125,0.0969961468964815,0.0003907528832554817,0.001375142544414848
1772643985945751300,3.072751220703125,0.10777005436718463,0.00009958791695535182,0.0020829346207436174
1772643985955792100,3.082792236328125,0.09086100514233111,0.009977825189568102,0.005678146101115271
1772643985965832000,3.09283203125,0.0727536860436201,-0.0009071779727935791,0.008367668312881141
1772643985975873000,3.102873046875,0.09355214392244815,0.0061271776434034106,-0.0051331342379096895
1772643985985913900,3.112913818359375,0.10283142892122268,0.0030370478746481236,0.0003364562795963138
1772643985995954700,3.12295458984375,0.09220832809805869,0.0025319844293408096,0.0056030898372177035
1772643986005995800,3.132995849609375,0.08771861546337605,0.0049479595298878845,-0.004420465057063848
1772643986016035800,3.143035888671875,0.09804361012279987,0.0027144465904682872,0.0028744959903880952
1772643986026076700,3.15307666015625,0.09983867684602737,0.006777841838169842,-0.005051063711335882
1772643986036117800,3.16311767578125,0.09085866705477237,-0.006042604632489383,-0.006108390744542703
1772643986046158800,3.173158935546875,0.08621873229444027,0.00687057988923043,-0.006717599550914019
1772643986056199000,3.183198974609375,0.10043488917350768,0.011658033361472189,-0.005091477920114993
1772643986066239700,3.19323974609375,0.0978939725190401,-0.008765837317612022,0.008928918924834578
1772643986076280800,3.20328076171875,0.08248305289745331,0.008088266849610955,0.0039904122098814694
1772643986086322000,3.213322021484375,0.09205869049429893,0.006625701750069856,-0.006505372439185157
1772643986096362800,3.22336279296875,0.08263385954499244,0.010040533428546041,0.0007255103961098939
1772643986106402600,3.233402587890625,0.09924421808421612,0.006738879800960421,-0.004224284897837788
1772643986116443600,3.243443603515625,0.09819850842356681,0.008922598781902342,0.004170170957269147
1772643986126484700,3.253484619140625,0.0952057563483715,0.0004210749562829733,-0.0033673940738663077
1772643986136525600,3.263525634765625,0.11046820740997791,-0.0007484620134346186,0.0096352040306665
1772643986146565600,3.273565673828125,0.1007435167312622,-0.0054704673003405325,-0.005275282654957846
1772643986156606700,3.283606689453125,0.09446107546091079,0.0013281615975312888,-0.0012329575947485863
1772643986166647600,3.2936474609375,0.09760521870553493,-0.002771967197675258,0.0025388251620810476
1772643986176688600,3.303688720703125,0.09640577978789806,-0.0072098400472663336,-0.005477253234153613
1772643986186729700,3.313729736328125,0.09311316798329353,-0.0021145444685593245,0.0071168462678790085
1772643986196769800,3.323769775390625,0.08967091857492923,-0.0038936281713657078,-0.005297430554684251
1772643986206810600,3.333810546875,0.09191431358754634,0.00794673948707059,-0.00182905119122006
1772643986216851700,3.343851806640625,0.08817512705922126,0.013600125606264918,0.005603738291189074
1772643986226892800,3.353892822265625,0.10718027178049087,0.0036834925520233806,0.004693729040492325
1772643986236932900,3.363932861328125,0.08772621424794197,0.0053508777749724686,0.0014330010783392935
1772643986246973700,3.3739736328125,0.10014788892567157,0.00963405325319618,0.00041650837901979683
1772643986257014800,3.384014892578125,0.09251812469959259,-0.004918660370167345,0.009930387584958225
1772643986267055900,3.394055908203125,0.1019458782583475,-0.01273068582797423,0.012208278522221372
1772643986277096700,3.4040966796875,0.08862813152372837,-0.010333926884550601,0.010396899985009804
1772643986287136800,3.41413671875,0.09102350222766399,-0.0010852744860574603,0.0003548139201942831
1772643986297177900,3.424177734375,0.09087386462390422,0.00024860446620732544,-0.0072196399220731105
1772643986307218700,3.43421875,0.08758242186307906,0.0007974157216958702,-0.001649201112287119
1772643986317259800,3.444259765625,0.09312076676785945,-0.00315144976824522,-0.0004444832313340157
1772643986327299800,3.4542998046875,0.09566635959744453,-0.005725282311625778,-0.0030516152561176567
1772643986337341000,3.4643408203125,0.09566635959744453,-0.0018102825586684048,0.005267382476292551
1772643986347381800,3.4743818359375,0.08833236344754695,-0.005786730175279081,0.000013535335008054971
1772643986357422800,3.4844228515625,0.09521569322049617,0.006534808596223593,0.0021784126181621103
1772643986367464000,3.4944638671875,0.07965221338570118,0.012099639649130403,0.000700951343588531
1772643986377503700,3.504503662109375,0.08608546130359172,0.00984974183049053,0.001992881717113778
1772643986387544600,3.514544677734375,0.09132219291329384,0.005992883739247918,-0.0007436123083811253
1772643986397585700,3.524585693359375,0.09895195713937283,0.001235094752907753,0.009923373322281985
1772643986407626800,3.534626708984375,0.09536182369291782,0.0019483393224887548,-0.0015758710145950317
1772643986417667600,3.54466748046875,0.10613339307606219,0.0006896992972120642,-0.007443310876423493
1772643986427707600,3.554707763671875,0.08398293606638908,0.00485834501767531,0.005730990533204749
1772643986437748700,3.564748779296875,0.08443126435577869,0.008489084469154477,0.00045252040731720626
1772643986447789600,3.57478955078125,0.09146598529815674,0.009484196453727781,0.004908833095896989
1772643986457830700,3.58483056640625,0.09431026881337165,0.002131897462159395,0.00816983505268581
1772643986467870700,3.59487060546875,0.1076280155479908,0.006894654884561896,0.005078307911287993
1772643986477911800,3.604911865234375,0.09700140759348869,0.011725271645095198,-0.0026428791915997863
1772643986487952600,3.61495263671875,0.08757131594717502,0.0026384039458818734,0.0030238322000484914
1772643986497993700,3.62499365234375,0.09355682009756565,0.003528393321856856,-0.006078278734069317
1772643986508034800,3.635034912109375,0.08457973291575908,0.012182020702958107,-0.004139985881559551
1772643986518074600,3.64507470703125,0.08607610895335674,0.010992792652081697,0.002994240779383108
1772643986528115700,3.65511572265625,0.08248539098501205,0.0007827661418356001,0.0018316267407964915
1772643986538156800,3.66515673828125,0.08981880261301994,0.003427837290521711,0.0009725896255113184
1772643986548197600,3.67519775390625,0.10059504817128181,-0.005064736043661832,-0.006426544182468206
1772643986558237700,3.68523779296875,0.08862403987050056,0.007681403081770986,0.003089536113711074
1772643986568278800,3.69527880859375,0.09236264187693595,0.0017698226841166614,0.0030972079635132104
1772643986578320000,3.70531982421875,0.09370821126699447,0.0025548355819657444,-0.005567570999264717
1772643986588360700,3.715360595703125,0.09056348350048064,-0.0018800050603225826,0.009260342836286873
1772643986598401800,3.72540185546875,0.09938976403474807,-0.000017444325145334005,0.014067341259215027
1772643986608441900,3.73544189453125,0.09998831444978713,0.007187664748076349,-0.00018444405565969644
1772643986618483000,3.74548291015625,0.09624795887768268,0.009709420044347643,-0.005101222995994612
1772643986628523800,3.755523681640625,0.0983382091552019,0.014749149510916321,0.010246951853996142
1772643986638564900,3.76556494140625,0.09938625690340995,0.007693130052182823,0.00577734129242599
1772643986648605700,3.775605712890625,0.09279986425042151,-0.0004793992810882628,0.003863580092974007
1772643986658645500,3.7856455078125,0.09698913263380526,0.003908314283844083,-0.0014331380756571889
1772643986668686600,3.7956865234375,0.09489420618116855,0.003944956499803811,0.006416104986844584
1772643986678727700,3.805727783203125,0.0853150614529848,-0.0003321180311962962,0.009287879297183827
1772643986688768500,3.8157685546875,0.09294657924473285,0.010128303043544291,-0.0009947192589286715
1772643986698808600,3.82580859375,0.09279752616286277,0.015210739140678196,0.0030104612618219104
1772643986708849700,3.835849609375,0.08546469905674457,0.003520392678491771,0.008639059999631717
1772643986718890800,3.845890869140625,0.0960901379674673,0.007986012051533908,0.0075471548433881245
1772643986728931600,3.855931640625,0.10476794994175434,0.004421981160715222,-0.000059813028993085024
1772643986738972700,3.86597265625,0.09638473699986934,0.0024564167087897655,0.008865352169331162
1772643986749012700,3.8760126953125,0.08486439507603645,0.000914009572379291,0.0003331592108123004
1772643986759053800,3.8860537109375,0.0915980872452259,-0.008807740230578929,0.0016846286186948417
1772643986769094700,3.8960947265625,0.08875438825190067,0.01184619461102411,0.007854248031182214
1772643986779135700,3.9061357421875,0.08531038527786731,-0.0006520159016363323,-0.0035176892647519704
1772643986789175800,3.91617578125,0.08486147246658801,0.003826682148687541,0.0003865059664007276
1772643986799216600,3.926216552734375,0.08785305549800396,-0.005454630410391837,-0.010591892834147437
1772643986809257700,3.9362578125,0.0915934110701084,0.007102196688018739,-0.0004910988520365208
1772643986819298800,3.946298828125,0.0911450827807188,-0.0014630765561945735,-0.0020960224311798808
1772643986829339600,3.956339599609375,0.08156886066198349,-0.006154704971145838,0.015935482351807875
1772643986839379700,3.966379638671875,0.0996761797606945,0.018506766745075582,0.000342465895274654
1772643986849420800,3.9764208984375,0.09294307211339473,0.0060632272954098876,-0.00038110827207565303
1772643986859462000,3.9864619140625,0.0921948840945959,-0.002329995583835989,0.003402995110210031
1772643986869502700,3.996502685546875,0.08112111689448356,0.008754987130034714,0.011469643783057109
1772643986879542800,4.006542724609375,0.08980068243443966,0.002903484622854739,0.0032312370061874387
1772643986889583900,4.016583984375,0.10132511601150035,0.01199079071348533,-0.002514741033595055
1772643986899624700,4.026624755859375,0.08336860356032848,0.018585384939238427,0.014387248262809588
1772643986909665800,4.036665771484375,0.09129705847203731,-0.00005151099152863025,-0.0031377409033011643
1772643986919707000,4.046706787109375,0.0863607711136341,-0.0012779109813272952,0.003858511192211881
1772643986929746700,4.05674658203125,0.09309738589227198,-0.001483406958170235,0.0035979696930386125
1772643986939787500,4.06678759765625,0.08636486276686191,0.01285261344090104,-0.0018136344263795761
1772643986949828600,4.07682861328125,0.10267653062045573,0.012657328330818562,-0.015089213386550546
1772643986959869700,4.08686962890625,0.09624036009311676,0.0028079152938909825,0.0005435596916358918
1772643986969910500,4.09691064453125,0.10162614478468894,0.012688581985607742,0.011079694617399945
1772643986979950600,4.10695068359375,0.08082944047152996,0.0042422954785637556,0.0019150946400128305
1772643986989992000,4.116991943359375,0.09309855493605136,0.006217340144887566,-0.0021357607865240425
1772643987000033000,4.127032958984375,0.09384498938918114,0.007900306529458612,-0.008205317358020693
1772643987010073900,4.137073974609375,0.0886094268232584,-0.004136570081766694,-0.001919926078757271
1772643987020114000,4.147114013671875,0.08501753981113433,0.013482947233691811,0.014369557342492043
1772643987030155000,4.157155029296875,0.0945961000174284,0.009653853932209312,-0.006025817894469946
1772643987040195800,4.16719580078125,0.09923428121209144,0.002031706757005304,0.003255576863000169
1772643987050237000,4.17723681640625,0.0917506474584341,0.004173431493435055,0.0014777444023638963
1772643987060278000,4.187278076171875,0.0907049377977848,0.0021771248433738945,0.01256701056570746
1772643987070318000,4.197318115234375,0.09579553893506526,0.0022443813933059574,-0.005874600254977122
1772643987080359000,4.20735888671875,0.0954933411180973,0.005142075596190988,0.004248679553577676
1772643987090400000,4.21739990234375,0.09399754960238933,0.011095741569902748,-0.008290356159815564
1772643987100441000,4.227441162109375,0.0932499461054802,0.014367219254933297,0.006348355246568098
1772643987110481000,4.23748095703125,0.09325053062736988,0.00685795786967501,0.005634352625161409
1772643987120522000,4.24752197265625,0.09339958370923995,-0.006430562770459801,0.003807109798537567
1772643987130563000,4.25756298828125,0.08846212730705738,0.006130374247487634,0.004541908612800761
1772643987140604000,4.26760400390625,0.09384791199862956,0.01558503407947719,0.011876854610769077
1772643987150645000,4.27764501953125,0.09609364509880543,-0.0013388839209452271,0.0009366780619136988
1772643987160685000,4.28768505859375,0.09849193841218948,0.00875584564656019,0.0005075019975658506
1772643987170726100,4.29772607421875,0.09430442359447479,-0.0006728577602654695,0.006932849736791103
1772643987180767000,4.30776708984375,0.0946048678457737,-0.00397310488205403,-0.001376667781220749
1772643987190808000,4.31780810546875,0.09221358879506587,-0.0010126841738820076,0.0017829196277074516
1772643987200848000,4.327847900390625,0.09640577978789806,0.0008786642643623054,0.011733966408204287
1772643987210889000,4.337888916015625,0.09505845683217048,0.0025545250547118485,0.0027483579932246357
1772643987220929800,4.3479296875,0.09506079491972923,0.005921243275143206,0.0010727985969744623
1772643987230971000,4.357970947265625,0.09521335513293742,-0.0030164069454185665,-0.00008505706810392439
1772643987241012000,4.368011962890625,0.09596329671740532,-0.0030677535401657224,0.005310774093447252
1772643987251051800,4.3780517578125,0.08982815496325493,0.007394439366552978,0.006818237780639901
1772643987261092900,4.3880927734375,0.09267126943469046,0.00006289090206846595,-0.004997945284610614
1772643987271134000,4.398134033203125,0.08593933083117007,0.0055638812048360705,-0.0034033969690091905
1772643987281174800,4.4081748046875,0.09701309803128241,0.004648629523441195,-0.0002668159763328731
1772643987291216000,4.4182158203125,0.09356851053535938,0.003530694876797497,0.011283363963337614
1772643987301256000,4.428255859375,0.08204583052396774,0.007740257129538804,0.005922430585231632
1772643987311297000,4.438297119140625,0.09311959772408009,0.013515059405006467,0.013031422340217976
1772643987321337900,4.448337890625,0.10090192216336727,0.004621303125098348,-0.0006767484840936958
1772643987331379000,4.45837890625,0.09626491001248359,0.006812091167643666,0.004703857708862051
1772643987341419000,4.4684189453125,0.08893442099392414,0.006781769094616174,-0.003260536165907979
1772643987351460000,4.478460205078125,0.10030746340155601,0.004506115780211985,0.009169230486731976
1772643987361501000,4.4885009765625,0.09970774394273757,0.004788786912802607,0.01138867836818099
1772643987371542000,4.4985419921875,0.09522153843939304,-0.0027812464826740325,0.005120384354190901
1772643987381582800,4.508582763671875,0.09043430416285991,-0.002376008416339755,-0.007737498916871846
1772643987391623000,4.518622802734375,0.0854980168044567,0.00012877747882157563,0.0007310724872164428
1772643987401664000,4.5286640625,0.09178045807480811,0.014263174358569084,0.007769912482285871
1772643987411705000,4.538705078125,0.09567278933823108,0.007949680362828076,0.004126249617151916
1772643987421746000,4.548745849609375,0.09582242694199085,0.008533088007662445,-0.004085177821246907
1772643987431786000,4.558785888671875,0.09911620779037475,-0.0007956073570996522,-0.005440830213902518
1772643987441827000,4.5688271484375,0.09118599931299685,0.0020694266851991414,0.011104390667239204
1772643987451868200,4.5788681640625,0.10405424871444702,0.013284246323816477,0.009354962317179888
1772643987461909000,4.588908935546875,0.09597498715519905,-0.005172288071364164,0.005208638026379049
1772643987471950000,4.5989501953125,0.09971242011785507,-0.003155157828982919,-0.0007019925232045352
1772643987481990000,4.608989990234375,0.08370119651556014,-0.0001496010711416602,0.014826169403037055
1772643987492031000,4.619031005859375,0.09312661198675631,0.010390059252269565,0.014513596322527154
1772643987502071800,4.62907177734375,0.09671849899888038,0.005436181438248604,0.00046369938845746214
1772643987512113000,4.63911279296875,0.09462474159002303,0.0013364545018412172,0.0069120718102436505
1772643987522153000,4.649153076171875,0.07621580919623375,0.00458330920226872,0.008594298409298063
1772643987532193800,4.65919384765625,0.08893325195014476,-0.0023724830186925825,0.0013770970394834875
1772643987542235000,4.66923486328125,0.09147942930161952,-0.0025818697193637488,0.002369176816754043
1772643987552276000,4.67927587890625,0.08938333380520343,0.0006081219609826802,0.011350191255006938
1772643987562316800,4.68931689453125,0.09447101233303547,0.006284249634947627,0.00012090469961985945
1772643987572356900,4.69935693359375,0.10674246488511561,0.008959076601080597,0.008911392401298507
1772643987582398000,4.70939794921875,0.09177987355291843,0.0029732984560541806,0.005075924157956615
1772643987592439000,4.71943896484375,0.08010755593776703,-0.0032812136277556416,0.006414744146820158
1772643987602479900,4.72947998046875,0.100160163885355,-0.005988024901039898,0.008447994406940416
1772643987612520000,4.73952001953125,0.09776654674708843,-0.002379771276004612,0.003570214036433026
1772643987622561000,4.74956103515625,0.10839198565781116,0.0023598062002100047,-0.000591316956654191
1772643987632601900,4.759601806640625,0.09103227005600929,0.007487086086068302,0.0026047117388341575
1772643987642643000,4.769642822265625,0.09237783944606781,-0.009828479846753179,0.0013893993986304849
1772643987652684000,4.77968408203125,0.10240472794175147,-0.0059616118181496855,-0.0038928244537673887
1772643987662724000,4.78972412109375,0.09312778103053569,0.009436503120791166,0.005676593464845791
1772643987672765000,4.799764892578125,0.09447627303004265,0.010732150688208639,0.003562596985558048
1772643987682806000,4.809805908203125,0.08564823893010616,-0.0009308511093258857,0.007689924314944073
1772643987692847000,4.81984716796875,0.10091244355738162,-0.014837247919477521,-0.002268337657628581
1772643987702887200,4.82988720703125,0.09896481662094593,0.002559694420173764,-0.0023552761555649337
1772643987712928000,4.839927978515625,0.08923720333278179,0.00331279607610777,0.002822409610124305
1772643987722969000,4.849968994140625,0.08729308352768421,0.0023774879873730242,0.00402356556081213
1772643987733010200,4.86001025390625,0.09836685072779655,-0.001669339718017727,0.008632748989854007
1772643987743051000,4.870051025390625,0.09672259065210818,-0.003060757543798536,-0.0003746054660528898
1772643987753090800,4.8800908203125,0.10106325020492077,-0.0030898923067376014,-0.003543837486160919
1772643987763132000,4.8901318359375,0.09896657018661499,-0.006349496890883892,-0.005126530967187136
1772643987773172700,4.9001728515625,0.09731938750147819,0.0041426527626812456,0.008373687061714008
1772643987783213800,4.9102138671875,0.10061199930608272,0.001714914159104228,0.004066080395132303
1772643987793254000,4.92025390625,0.08490005091130733,0.01683048582961783,-0.005039318474614992
1772643987803295000,4.930294921875,0.0962736778408289,0.003203216488100588,0.004745788021292537
1772643987813335800,4.940335693359375,0.09732055654525756,0.011023644448071718,0.0024783819454256444
1772643987823377000,4.950376953125,0.0910363617092371,0.003850556214619428,-0.006428727006400003
1772643987833418000,4.96041796875,0.09896715470850467,0.002820427715592086,-0.002121385201299563
1772643987843458000,4.9704580078125,0.08924012594223021,-0.0024241401406936347,0.008689876871416344
1772643987853499000,4.980498779296875,0.0926829598724842,0.01240273251524195,0.005150605962518602
1772643987863540000,4.9905400390625,0.08969137684106826,0.0017584245072677731,0.008995609219186008
1772643987873581000,5.0005810546875,0.09044073390364646,-0.002892396973259747,0.0023676881125662473
1772643987883620900,5.010620849609375,0.08221008117496967,0.0007071070897392928,0.0023952245734632015
1772643987893662000,5.020661865234375,0.08310790679752826,-0.003050564943347126,-0.008666386397974565
1772643987903703000,5.030703125,0.09298223508000374,0.007182641513086855,0.005711235519964247
1772643987913744000,5.040743896484375,0.09836801977157592,0.006014657179638743,-0.007902553285472095
1772643987923785000,5.050784912109375,0.09582418050765991,0.006893029183056205,-0.00845907292338088
1772643987933825000,5.060824951171875,0.09088555506169796,0.008402063772827387,0.00772599114216864
1772643987943866000,5.0708662109375,0.08894201977849006,0.01134460176443681,0.000528398655122146
1772643987953907000,5.080906982421875,0.08863923743963241,0.015793251736368984,-0.0033687823133543133
1772643987963948000,5.090947998046875,0.09941256038844584,0.003711239075474441,-0.00085543865240179
1772643987973988000,5.100988037109375,0.08938800998032093,0.008292319788038731,-0.005743238093424588
1772643987984029000,5.11102880859375,0.08220306691229343,0.0197473596570082,0.012650505864387377
1772643987994069200,5.1210693359375,0.09567045125067233,0.005509885995276272,0.005955629601934924
1772643988004110300,5.1311103515625,0.0968698901683092,0.002019705791957676,0.0027663229081779715
1772643988014151400,5.1411513671875,0.09627133975327014,-0.005465644994750618,0.0014007062439341097
1772643988024191500,5.15119140625,0.09836451264023781,0.004458879105001688,0.0026207586913369594
1772643988034232300,5.161232421875,0.10180442396104335,0.01602627504095435,-0.004374936281749979
1772643988044273400,5.1712734375,0.08444763096868992,0.00896895867427811,-0.016959637767774982
1772643988054314500,5.181314453125,0.08115969533920288,0.004931446786504238,0.0008674304842948913
1772643988064354300,5.191354248046875,0.07861527155339718,-0.005982344078924506,0.022753555735666304
1772643988074395400,5.2013955078125,0.10689560962021351,0.007993830031808466,0.006207120144972577
1772643988084436500,5.2114365234375,0.09148585904240608,0.0070033759560436,-0.008465228669531644
1772643988094477300,5.221477294921875,0.09073884006738663,0.0009536291967146098,0.007907530854688956
1772643988104518400,5.231518310546875,0.10705167696475983,0.004621449255570769,0.003741524615883827
1772643988114558500,5.241558349609375,0.09119184453189373,-0.0027680034086108207,0.00030182335763238367
1772643988124599600,5.251599609375,0.09673311204612255,0.0020185915471054613,0.00671348963137716
1772643988134640400,5.261640380859375,0.08491407943665981,0.010069248066376895,-0.003087444621324539
1772643988144681500,5.271681396484375,0.10392097772359847,-0.0029998394031077623,-0.0024502700957935303
1772643988154721500,5.281721435546875,0.10287176093161106,0.011257288807164877,0.0004181797462981194
1772643988164762600,5.2917626953125,0.10362053347229958,-0.005832213284820318,0.009889343188516794
1772643988174803500,5.301803466796875,0.09224924463033675,0.0065484535290859635,0.004078163558570668
1772643988187354400,5.314354248046875,0.08027531372010707,0.008118588922638446,-0.002476948040165007
1772643988197395200,5.324395263671875,0.08999883535504341,0.00146386200748384,0.009495165372313931
1772643988207435300,5.334435302734375,0.09882979206442832,-0.01113970857579261,-0.003914314766367897
1772643988217476400,5.344476318359375,0.08341887244284152,-0.0019042992513626812,0.005487491500377655
1772643988227517400,5.354517333984375,0.08177753497660159,-0.0002221365843899548,0.00842298782984726
1772643988237558300,5.364558349609375,0.09614274493753909,0.013547335973102599,0.009011117315571755
1772643988247598300,5.374598388671875,0.09719020816385746,0.003216587426327169,0.0003325107568409294
1772643988257639400,5.384639404296875,0.09240648101866245,0.0018871106545440852,0.002531509505305439
1772643988267680500,5.394680419921875,0.09450257651507854,-0.005610642956010997,-0.0024519140636082735
1772643988277721300,5.404721435546875,0.09180909964740276,0.0020222265426069496,0.005808302686270326
1772643988287762400,5.414762451171875,0.10407762959003448,-0.0016793131227605044,0.0040178573392331595
1772643988297802500,5.424802490234375,0.10018822093605995,-0.00410157183362171,0.0029792258733417837
1772643988307843300,5.43484326171875,0.07998714442849159,-0.012192213303409517,0.007159817759925499
1772643988317884400,5.444884521484375,0.07774199585020541,0.01583279829546809,0.0062405383573845025
1772643988327925500,5.454925537109375,0.07819207770526408,0.004443151812907308,-0.010871750955143943
1772643988337965600,5.464965576171875,0.08642156139016151,0.00012143442258238792,0.004697628897475078
1772643988348006400,5.47500634765625,0.09330489116311073,-0.006642835547961294,-0.003926151334634051
1772643988358047500,5.485047607421875,0.0973451064646244,0.015941373236477374,-0.0030147812439128754
1772643988368088600,5.495088623046875,0.09913783510029316,-0.005221333111170679,-0.008379358750674873
1772643988378129400,5.50512939453125,0.09389818088114261,-0.007980386028345674,-0.0052625327712390564
1772643988388169200,5.515169189453125,0.0900076031833887,0.003275167479459196,0.00007047142032533884
1772643988398210300,5.525210205078125,0.08761340152323245,0.01075092845391482,0.004267548650829121
1772643988408251400,5.53525146484375,0.09060849168598652,0.005591536396741867,0.004711136833019555
1772643988418292200,5.545292236328125,0.09255494957864284,0.003473649193625897,0.0015270999694243072
1772643988428332300,5.555332275390625,0.08866670996844768,0.003415489265602082,0.0073204699480440465
1772643988438373400,5.565373291015625,0.0909141966342926,0.005541687639337033,0.001981985863763839
1772643988448414200,5.575414306640625,0.10333470226824283,0.00926182240732014,-0.0004017035355325788
1772643988458455300,5.585455322265625,0.09255787218809128,0.007406148070655763,0.004128797767264768
1772643988468496400,5.595496337890625,0.09495265837013721,0.00422362731071189,0.01102461256245151
1772643988478536400,5.605536376953125,0.09704816934466362,0.0025881533296778798,0.008425791708286851
1772643988488577300,5.615577392578125,0.08238368417620659,0.006188461110275239,-0.003111620081355795
1772643988498618400,5.625618408203125,0.08388064473569393,0.0003276975844055414,-0.002342882464872673
1772643988508659500,5.635659423828125,0.09390402610003948,0.013422905875835566,-0.007147332737687975
1772643988518700300,5.6457001953125,0.09749766667783259,0.00003618555823341012,0.0043591541907284405
1772643988528740400,5.655740234375,0.0874719472259283,0.00437673551319167,-0.0038651966613251713
1772643988538781400,5.665781494140625,0.10109072273373604,0.004772182837873697,0.0008981087503489106
1772643988548822500,5.675822509765625,0.09271277048885822,0.001429722275864333,-0.0020903690085280684
1772643988558863400,5.68586328125,0.08059270910620689,-0.004313223556615412,-0.0003530786208342761
1772643988568904400,5.695904541015625,0.10124386746883392,-0.011993530659843236,0.0011407857992686331
1772643988578944500,5.705944580078125,0.10424071119725703,0.007217603228613734,0.010366650977218523
1772643988588985300,5.7159853515625,0.0984036756068468,0.0015645093703642486,-0.0005779186189640313
1772643988599026400,5.7260263671875,0.09795593183934688,-0.0007172266249544919,0.008551628311350942
1772643988609067500,5.736067626953125,0.09287117592096328,0.01026979387346655,-0.00461075433162041
1772643988619107600,5.746107666015625,0.10080313796401023,0.008871928040590137,0.00604666888625361
1772643988629148400,5.7561484375,0.08643792800307273,0.0036293694783002136,-0.002349266539886594
1772643988639189500,5.766189453125,0.09810673848688602,-0.0024322869145311414,0.00008344049975275993
1772643988649230600,5.776230712890625,0.08883037609755992,0.01519192484235391,-0.011559139564260839
1772643988659271400,5.786271484375,0.11187515159845351,0.00994204149013385,-0.00680702226688154
1772643988669311200,5.796311279296875,0.08583762402236461,0.009652812752593307,0.0014394399522803722
1772643988679352300,5.806352294921875,0.07865501904189587,0.007550579776335507,0.004754875510046258
1772643988689393400,5.816393310546875,0.08868073849380016,0.006665303108096122,0.007734393644332886
1772643988699434200,5.826434326171875,0.08868073849380016,-0.006939316010195762,0.004564284841390326
1772643988709474300,5.836474365234375,0.09361702585220337,0.009168810361623763,-0.004826707770396023
1772643988719515400,5.846515380859375,0.1031920789271593,0.0006924209772609174,-0.002283608291996643
1772643988729556200,5.85655615234375,0.1010965679526329,0.010141765313316136,0.005519594538537785
1772643988739597300,5.866597412109375,0.1109738188445568,0.004394033707864582,0.006312069223634898
1772643988749638400,5.876638427734375,0.08897826013565063,0.0071941310214810065,-0.009077561014750973
1772643988759678500,5.886678466796875,0.08972644815444945,-0.001965290457289666,0.000534326072409749
1772643988769719300,5.89671923828125,0.09541209257543086,-0.004017437214124947,0.0026016795315314083
1772643988779760400,5.906760498046875,0.08568740189671516,0.0003971095588058233,0.005934888208005577
1772643988789801500,5.916801513671875,0.08359130640029906,0.007160082621406764,0.001319421168649569
1772643988799841300,5.92684130859375,0.09481237311661243,0.005114018545486033,0.011793222314771264
1772643988809882400,5.93688232421875,0.09720657477676868,-0.008074585384130478,-0.0011728614379651844
1772643988819923500,5.94692333984375,0.0985521441668272,0.0006378412458114325,0.005719930283073335
1772643988829964300,5.95696435546875,0.10438742619156836,0.009220102157443762,0.0034162564505822953
1772643988840005400,5.96700537109375,0.08987082506120204,0.007339823102485388,-0.002603360031964257
1772643988850045400,5.97704541015625,0.10049217231869698,0.002795128877554089,0.0011160075510386377
1772643988860086500,5.98708642578125,0.10228957712948322,0.0025813947953283786,0.0011732541636098176
1772643988870127400,5.99712744140625,0.0849321996152401,0.011377755115367472,0.009561581672029569
1772643988880168400,6.00716845703125,0.0987000282049179,0.008054547243099659,0.005351928087742999
1772643988890208500,6.01720849609375,0.09421090009212493,-0.0034803163964301346,0.004032095927139744
1772643988900249600,6.02724951171875,0.08478431557714938,0.010571882092580198,0.007472080313181504
1772643988910290400,6.03729052734375,0.09001987814307212,0.0022422077025286854,0.010176252104807644
1772643988920331500,6.04733154296875,0.0945084217339754,0.0021129918322898445,0.002105575710814446
1772643988930372400,6.057372314453125,0.09076865068376064,-0.001530278307199478,0.007201784604974091
1772643988940412200,6.067412109375,0.09750117380917071,0.0051033327546902,-0.004763424142682925
1772643988950453200,6.077453369140625,0.08987082506120204,0.005399539222288877,-0.006488530902238563
1772643988960494300,6.087494384765625,0.08627952257096767,-0.0035838133035227654,-0.0012496804006863385
1772643988970535200,6.09753515625,0.09166472274065017,0.005134422012697905,-0.005553825601702556
1772643988980575200,6.1075751953125,0.09361059611141681,-0.00026858780831098556,0.00265353758293204
1772643988990617000,6.1176171875,0.09660334818661212,-0.0025153620881028472,0.003875855052657425
1772643989000658000,6.127657958984375,0.08927285916805267,0.004312273708544671,-0.0032945662996731696
1772643989010699000,6.137698974609375,0.09271218596696854,0.002732840763684362,0.00672881506467238
1772643989020740000,6.147739990234375,0.08133914355933666,0.009146927323378622,-0.0033665903562679887
1772643989030780200,6.1577802734375,0.08612462427020072,-0.009628536827862261,0.0023769308649469164
1772643989040821000,6.167821044921875,0.08881810113787651,-0.005905424651503562,-0.0031360421365592625
1772643989050862000,6.177862060546875,0.08986614888608455,-0.0035237719456665214,0.007792343509802594
1772643989060903200,6.187903076171875,0.08821955072283744,-0.0027593086455017326,-0.004913344874233007
1772643989070943000,6.19794287109375,0.09629881228208541,-0.002446516369283199,0.004707255242345855
1772643989080983800,6.20798388671875,0.09360591993629931,0.003384381741285324,0.00869777705008164
1772643989091025000,6.21802490234375,0.09390636418759822,-0.004110814586002379,0.011648598812846467
1772643989101066000,6.22806591796875,0.09196282890439032,-0.000268313813675195,0.002342681535473093
1772643989111106800,6.23810693359375,0.08762275387346743,0.00619279022552073,0.006234026418207213
1772643989121147000,6.24814697265625,0.08866846353411674,0.0013063881571404635,-0.0018310422189068047
1772643989131188000,6.25818798828125,0.10423018980324268,-0.006472995406389236,0.00012308752355165778
1772643989141228800,6.268228759765625,0.07729659017026425,-0.003229483440518379,0.009593913039052859
1772643989151270000,6.278269775390625,0.07729600564837455,0.0035555553234182294,0.0023263788546435534
1772643989161310000,6.28831005859375,0.08822013524472713,-0.002883209019806236,-0.007573184333788231
1772643989171351000,6.29835107421875,0.08687164324522018,-0.00028981325943022967,-0.003064648267626762
1772643989181392000,6.308391845703125,0.10138532176613807,-0.0008636128257028758,0.016097878972440957
1772643989191433000,6.318432861328125,0.09270341813862323,0.004003390422463417,0.0016489271176513283
1772643989201474000,6.32847412109375,0.08521861534118652,-0.0020629056128673253,0.014104714127536862
1772643989211514000,6.33851416015625,0.10018354476094245,0.009445965068880468,0.004014633335685357
1772643989221555000,6.348554931640625,0.10646832411885261,-0.0026398104516789315,0.004848225482460111
1772643989231596000,6.358595947265625,0.10362579416930674,0.007075107751693576,0.0027118619077373296
1772643989241636900,6.368636962890625,0.09150690183043479,-0.0037534342493861913,-0.0008779975440818816
1772643989251677000,6.378677001953125,0.08462591014504432,-0.0021567031098529694,-0.00932192769725807
1772643989261718000,6.388718017578125,0.09644611179828644,-0.0028411234437488017,0.0005179137937258929
1772643989271759000,6.398759033203125,0.09898878201842308,-0.006099504185188561,0.006511866112053394
1772643989281800000,6.408800048828125,0.09674187987446785,0.00970494479862973,0.004822533918777481
1772643989291841000,6.418841064453125,0.09823767139017581,0.00311816855315119,0.003676204294711351
1772643989301881000,6.428881103515625,0.09733809220194815,0.0022674334753304717,0.004451800910243765
1772643989311922200,6.438922119140625,0.09733633863627911,0.011864972376730292,0.008109053909312934
1772643989321963000,6.448962890625,0.10137889202535152,-0.0004598177977837622,0.000746735847229138
1772643989332004000,6.459004150390625,0.08417173663675785,-0.0016825827920809388,-0.006940658583911135
1772643989342044000,6.4690439453125,0.08222586326599121,0.004346870097890496,0.009645460563199594
1772643989352085000,6.4790849609375,0.08820786028504371,0.008047039790078998,-0.014340550443716347
1772643989362125800,6.489125732421875,0.09508943649232388,0.004536218657530844,-0.006914711291901767
1772643989372167000,6.4991669921875,0.0817687671482563,0.009824607389234005,0.00455097783524543
1772643989382207000,6.50920703125,0.09404197326600551,0.008119283042382448,-0.0010620397409424186
1772643989392247800,6.519247802734375,0.10002981550395489,-0.0012247560219839214,0.0007484894128981977
1772643989402289000,6.529288818359375,0.08102408626079559,-0.0001144018935970962,0.006113751906249671
1772643989412330000,6.539330078125,0.0879039089024067,-0.002230170204862952,0.0000909662190824747
1772643989422370800,6.549370849609375,0.09059446316063403,0.00294102188795805,-0.0052900600989814845
1772643989432411000,6.559410888671875,0.09478431606590747,0.01595377606032416,0.00024970957790501413
1772643989442452000,6.569451904296875,0.09628127662539482,0.007124134525191038,0.0014208083170466125
1772643989452493000,6.5794931640625,0.0949357072353363,-0.002760039297863841,0.0007577412984333932
1772643989462534000,6.589533935546875,0.08909984068870544,0.0007152173309586941,0.002315346003975719
1772643989472574000,6.599573974609375,0.10197042817771435,0.01339254727018997,0.012899128596903755
1772643989482615000,6.609614990234375,0.08984978227317332,0.004729257011599839,0.01528828875576146
1772643989492655900,6.61965576171875,0.0904477481663227,-0.004822488253004849,0.0065594041813630604
1772643989502697000,6.629697021484375,0.09254442818462848,-0.0035027291576378047,0.003664303794363513
1772643989512738000,6.639738037109375,0.09912965179383754,0.009789353412762283,0.0055760283003561196
1772643989522778000,6.649778076171875,0.09419394895732403,0.007940894268173723,-0.007924536788417025
1772643989532819000,6.65981884765625,0.08731295727193356,0.001293747871275991,-0.0013604838314000517
1772643989542860000,6.669860107421875,0.09853636207580566,0.00280634439131245,-0.004286527345934882
1772643989552901000,6.679901123046875,0.0913543416172266,0.008042491479124874,0.013762467427970842
1772643989562941200,6.689941162109375,0.09285013313293457,-0.0016505802186205982,0.005197322047920897
1772643989572982000,6.69998193359375,0.09614508302509785,0.003938490226399153,-0.003899171996163204
1772643989583023000,6.710023193359375,0.09210486772358417,0.00021209011441096663,0.008503295657597481
1772643989593064200,6.720064208984375,0.09943769482970237,-0.0018581585546955466,0.005099168036226183
1772643989603105000,6.73010498046875,0.10377776986062526,-0.005924129351973533,-0.000884582548495382
1772643989613144800,6.740144775390625,0.08911503825783729,0.007207282763998955,-0.005266277364594862
1772643989623186000,6.75018603515625,0.08941489798724651,0.007192633184138685,-0.004395814672997221
1772643989633226800,6.760226806640625,0.08567395789325237,0.0033022016168572006,0.0039798086174763735
1772643989643267800,6.770267822265625,0.08761749317646027,0.005739913625176995,0.0026732651967089622
1772643989653308000,6.780307861328125,0.08941489798724651,0.012917257908638565,-0.008952509862976148
1772643989663349000,6.790348876953125,0.08118366073668003,0.010566329134628176,0.002983509322814643
1772643989673389800,6.800389892578125,0.08462415657937526,0.005365984012559056,-0.0014890421145129949
1772643989683431000,6.810430908203125,0.09375263493061065,0.006559303716663271,-0.006748716208385303
1772643989693472000,6.820471923828125,0.10018763641417026,0.0025291348851285873,-0.0014350834375713019
1772643989703512000,6.830511962890625,0.09794365687966346,0.0023793876835145056,-0.002847571450844407
1772643989713553000,6.840552978515625,0.09689677817523479,0.001005578579660505,-0.0055142973089125
1772643989723594000,6.850593994140625,0.08537760529518126,0.0054116315188817675,0.012880250366497785
1772643989733635000,6.860635009765625,0.09001461744606494,0.0006511208524927496,-0.0005115662513300776
1772643989743675000,6.8706748046875,0.08193652493059635,-0.0008912132186815142,0.006607398908399045
1772643989753716000,6.880716064453125,0.08522738316953182,0.00888173704855144,-0.012279845921089872
1772643989763757000,6.890757080078125,0.08492810796201229,0.012347476930357515,0.004566312401695177
1772643989773798000,6.9007978515625,0.10183540362119674,0.011932959579024464,0.0038508393424097447
1772643989783839000,6.9108388671875,0.09120879566669464,0.0058580418458208435,0.005711609979299828
1772643989793879000,6.920879150390625,0.09525076453387736,0.007136665213201195,0.01201272855065763
1772643989803920100,6.930920166015625,0.09181026869118213,0.005601217540539801,0.000020905790710821747
1772643989813961000,6.9409609375,0.0858247645407915,0.0005275310054421424,0.0013740739653352648
1772643989824002000,6.951001953125,0.10333177965879439,0.004891717564314603,-0.005527284654648974
1772643989834042000,6.9610419921875,0.09794833305478096,0.00043676571575924754,-0.0007668379203416407
1772643989844083000,6.9710830078125,0.08238543774187565,0.010052844920847565,0.007125824158778413
1772643989854124000,6.9811240234375,0.08927052108049392,0.007016893024742603,0.004844325625477358
1772643989864165000,6.9911650390625,0.09331248994767666,0.0020574439864605664,0.0007368172414135187
1772643989874206000,7.0012060546875,0.07655483189225197,0.003239858704060316,-0.0020402919222600757
1772643989884245800,7.011245849609375,0.09032032239437103,0.008051350639015435,-0.006367324808519333
1772643989894286800,7.021286865234375,0.08702829511165619,0.008062292158138007,-0.004270955317467451
1772643989904328000,7.031327880859375,0.08673018894791602,0.001436042418796569,-0.008934745877422393
1772643989914368800,7.04136865234375,0.0978022025823593,0.0017753939083777366,-0.008478343879431485
1772643989924408800,7.051408935546875,0.09286533070206641,-0.004983834560867399,-0.003249411983694881
1772643989934450000,7.061449951171875,0.09780337162613868,0.0013031915530562401,0.008254892120789736
1772643989944491000,7.071490966796875,0.09136953918635844,0.0009993863008916377,-0.018138271359400823
1772643989954531800,7.08153173828125,0.08957447246313095,0.0006949051952920853,-0.004664439013926312
1772643989964573000,7.091572998046875,0.09256780906021594,0.008285963112488389,-0.004493091901857406
1772643989974613000,7.101613037109375,0.10902677643001078,-0.001574793302360922,0.0052817854609806085
1772643989984653800,7.11165380859375,0.10064707061946392,-0.004552110346406698,0.004652456315187737
1772643989994695000,7.12169482421875,0.09241875597834587,-0.006390559553634375,0.00808176404358819
1772643990004736000,7.131736083984375,0.09286533070206641,0.008928973723761736,-0.0008636584914755075
1772643990014776000,7.141776123046875,0.0813414816468954,0.0019493987684138117,-0.0014458422936033458
1772643990024817000,7.15181689453125,0.09555530043840407,0.00216474028583616,-0.006096033586468547
1772643990034858000,7.16185791015625,0.08597674023211002,0.00045362551901489495,-0.017240710598323494
1772643990044899000,7.171899169921875,0.08747311626970768,0.005536920132674277,-0.0072062963833101085
1772643990054940000,7.18193994140625,0.08717208749651909,-0.007433492735307664,-0.006756634653359651
1772643990064980000,7.19197998046875,0.09570143091082572,0.007217932022176682,-0.003429855717672035
1772643990075021000,7.20202099609375,0.08911796086728573,0.0037498175201937556,-0.014646775981830432
1772643990085062100,7.212062255859375,0.09166472274065017,-0.0036237434551119802,0.010843967899074778
1772643990095103000,7.22210302734375,0.09376198728084564,-0.007717259846441447,0.0056815619009081275
1772643990105143000,7.23214306640625,0.08717968628108501,0.005112831235397607,-0.0031573132534511387
1772643990115184000,7.24218408203125,0.10408815098404883,-0.003987188206333667,-0.0005243709339760244
1772643990125225000,7.252224853515625,0.09495850358903407,0.01865865110484883,0.0051739320391789075
1772643990135266000,7.26226611328125,0.10199147096574306,0.009817428729776293,0.00822508150441572
1772643990145307100,7.27230712890625,0.09675415483415126,0.00038211291907355185,-0.0053649702324066306
1772643990155347000,7.282346923828125,0.099749829518795,0.00406208007344976,-0.007260255060251802
1772643990165387800,7.2923876953125,0.09451017529964446,0.014600096429046243,0.004150141949392855
1772643990175428900,7.302428955078125,0.10139175150692463,0.0032648470148444173,-0.0004617722928524017
1772643990185470000,7.312469970703125,0.09959668478369713,0.00114737993683666,-0.010185567922424525
1772643990195510000,7.322510009765625,0.09017126931250095,0.00978345339493826,0.006724303286336362
1772643990205550800,7.33255078125,0.08373626782894134,-0.0017332535333931445,0.00210236084042117
1772643990215592000,7.342592041015625,0.09869769011735915,-0.0031763102148659526,0.0024471100243274122
1772643990225633000,7.352633056640625,0.09555530043840407,0.009835073984321206,0.009362305373419076
1772643990235672800,7.3626728515625,0.08418401159644126,0.0014156572178937493,-0.004703930774098262
1772643990245714000,7.3727138671875,0.09525660975277424,0.007692983921710401,0.008968967807432636
1772643990255755000,7.382755126953125,0.07520341728329658,-0.00048760085385292763,0.0023904114010278132
1772643990265795800,7.3927958984375,0.09615209728777407,0.005637512696627527,-0.00005120959742926061
1772643990275837000,7.4028369140625,0.0983949077785015,0.006244630010612309,-0.0052103733257390554
1772643990285877000,7.412876953125,0.09689911626279353,0.008334368831478058,-0.006410524629428982
1772643990295918000,7.42291796875,0.08597498666644096,-0.004222732261568308,-0.014048928819689898
1772643990305959000,7.432958984375,0.09899462723731994,-0.007115512827318161,0.006342665291298181
1772643990316000000,7.443,0.09016717765927314,0.004357318426668644,0.008768157138861716
1772643990326041000,7.453041015625,0.07969312991797924,-0.002529975135345012,-0.005625201204326004
1772643990336081200,7.4630810546875,0.0957025999546051,0.008311061021126807,-0.008211801897734404
1772643990346122000,7.4731220703125,0.09809797065854071,0.00017011413620784878,0.005591435932042077
1772643990356163000,7.4831630859375,0.09031798430681229,-0.001233341187238693,-0.003169643012061715
1772643990366204000,7.493203857421875,0.094056001791358,0.0013847506229765713,0.0037753720865584908
1772643990376244000,7.503243896484375,0.10617080247700214,-0.004274754709750413,0.001412414948036894
1772643990386285000,7.51328515625,0.09105448188781738,-0.00014812150010839103,-0.008452944576693698
1772643990396326100,7.523326171875,0.09300327786803245,0.004071816016174853,0.001885685882437974
1772643990406367000,7.533366943359375,0.09913958866596222,0.008805530007183551,0.003407287692837417
1772643990416406800,7.54340673828125,0.100189974501729,0.008558532976172864,-0.0034706352526322004
1772643990426448000,7.55344775390625,0.09180968416929244,0.008864603250660002,-0.0082251089038793
1772643990436489000,7.563489013671875,0.09420271678566933,0.0036453342324122783,0.002010371708031744
1772643990446529800,7.57352978515625,0.09824176304340362,0.0008244681254029274,-0.0005015106481965631
1772643990456571000,7.58357080078125,0.09689560913145541,0.007535491805057973,0.0011565770234446971
1772643990466611000,7.59361083984375,0.09689385556578635,0.002492711864877492,0.0008778148809913545
1772643990476652000,7.603652099609375,0.0949485667169094,0.003987937125004828,-0.006148567491304129
1772643990486692900,7.61369287109375,0.09674480248391627,0.004571527432929724,0.0008604892868548631
1772643990496734000,7.62373388671875,0.08926175325214862,0.006942932739388197,0.004428063841629773
1772643990506774000,7.63377392578125,0.09330372211933136,0.009581884674541652,-0.0004784311667084694
1772643990516814800,7.64381494140625,0.09091185854673385,0.0000763714381493628,-0.00005857091997750103
1772643990526856000,7.65385595703125,0.09225976602435111,-0.0063813350675627585,-0.0011203275331296027
1772643990536897000,7.66389697265625,0.09360650445818901,-0.0047306817837059496,-0.00009562412789091467
1772643990546937900,7.673937744140625,0.09345452876687049,-0.004385284145828336,0.002829040280310437
1772643990556978000,7.68397802734375,0.08642214591205119,0.0011170578638091684,0.0031714239771943537
1772643990567019000,7.69401904296875,0.09360475089251995,0.006373133494798094,0.014663955445494502
1772643990577060000,7.70406005859375,0.08866495640277862,0.012684727794397622,-0.0005667122383601963
1772643990587101000,7.714100830078125,0.09150982443988323,0.008284647938236593,-0.006997083212574943
1772643990597141000,7.72414111328125,0.08313187219500541,0.0005782382793724537,0.0018917502970434725
1772643990607182000,7.73418212890625,0.09794541044533252,0.01602936204718426,0.0017061280644498765
1772643990617223000,7.744222900390625,0.09734393742084503,0.0059286411303095515,0.0015865385390818117
1772643990627264000,7.754263916015625,0.08387538403868675,0.0028125001374632117,0.0007352737382985651
1772643990637305000,7.76430517578125,0.0855202286362648,-0.002849178886041045,-0.0009009400282520801
1772643990647345200,7.77434521484375,0.09569558569192886,0.0044606509369798,0.0009416008322034031
1772643990657386000,7.784385986328125,0.09524608835875988,0.003582845189142972,-0.007269159885914996
1772643990667427000,7.794427001953125,0.09345160615742205,0.0011250037082470954,-0.004837576224282384
1772643990677468200,7.80446826171875,0.0853717600762844,0.000225661982037127,-0.002462946914276108
1772643990687508000,7.814508056640625,0.0997369700372219,-0.005161492682714015,-0.0021465653083287176
1772643990697548800,7.824548828125,0.10093465538918972,0.006592877192702144,-0.0007238116293679923
1772643990707590000,7.83458984375,0.08507190034687519,0.01456679694764316,-0.002644979817140847
1772643990717631000,7.844630859375,0.073699442461133,-0.0014805391476489602,0.0032434389006346463
1772643990727671800,7.854671875,0.09644669632017612,0.002492857995349914,0.010420216928515583
1772643990737711900,7.8647119140625,0.10347907917499542,0.002216433940455317,0.016558902346622197
1772643990747753000,7.8747529296875,0.10422376006245612,-0.004719868128746748,0.0034257275318261234
1772643990757793800,7.884793701171875,0.10212649552226066,-0.0001825900252908468,0.0015442976993974298
1772643990767835000,7.8948349609375,0.07488835998475551,0.0019887443981133402,0.004762958351802081
1772643990777875000,7.904875,0.10062427426576613,0.0042544243077747524,0.012330927654355764
1772643990787916000,7.914916015625,0.09688567225933074,0.014947795621864497,-0.00007697422634810208
1772643990797956900,7.924956787109375,0.10287351449728012,-0.001408789085689932,-0.008917456815904007
1772643990807998000,7.934998046875,0.08746201035380363,0.00305626403177157,-0.009884164689900353
1772643990818039000,7.9450390625,0.0858159967124462,0.0022998196412809192,-0.0004205087007023394
1772643990828079000,7.9550791015625,0.08551905959248542,0.005078417509142309,-0.005985221022600308
1772643990838120000,7.965119873046875,0.09299977073669433,0.0010456548617221414,-0.0021842761033680287
1772643990848161000,7.9751611328125,0.10452303526997565,-0.0019902057028375565,-0.004537963090045377
1772643990858201900,7.985201904296875,0.09240297388732432,-0.0002091675049625337,0.0020366843262221664
1772643990868242000,7.995241943359375,0.09270283361673355,0.005303038311563432,0.017888041191687805
1772643990878283000,8.005282958984376,0.1034755720436573,-0.00034110505525022743,-0.006809177691349759
1772643990888324000,8.015323974609375,0.09823942495584487,0.008864073527697473,0.0002953662173822522
1772643990898365000,8.025364990234374,0.0959942763775587,0.009033493544161319,0.003143531323270872
1772643990908406000,8.035406005859375,0.0916547858685255,0.0067979713107459245,-0.003925091888708994
1772643990918446000,8.045446044921874,0.09599369185566901,0.01641127403685823,-0.001678810799261555
1772643990928487200,8.055487060546875,0.09719079268574714,0.0035235892825759944,0.0019292601626832036
1772643990938528000,8.065528076171875,0.09793839618265628,0.00788260647598654,0.012574563684500753
1772643990948569000,8.075569091796876,0.10317746587991714,0.003518949640076607,-0.0033694307673256844
1772643990958609000,8.08560888671875,0.10228197834491728,0.006890398834552615,0.007240719242719933
1772643990968650000,8.09564990234375,0.1003378585398197,0.0034281660840846597,0.004221289223153144
1772643990978690800,8.10569091796875,0.09659808748960494,0.0011473434042185543,0.005712075770180672
1772643990988732000,8.11573193359375,0.10632686982154846,0.006484612778946757,-0.00019409779999405145
1772643990998772700,8.125772705078125,0.09570376899838447,-0.010937208273634313,-0.005085842763772234
1772643991008812800,8.135812744140624,0.08492869248390197,-0.0024900632500648497,-0.00021337788919918238
1772643991018854000,8.14585400390625,0.09944295552670955,0.002762066858168691,0.003072247052192688
1772643991028895000,8.15589501953125,0.09360475089251995,0.0006077201021835207,0.008585786309279501
1772643991038935800,8.165935791015626,0.09884089798033237,0.00271514071021229,0.003866447903495282
1772643991048976000,8.175975830078125,0.10138649080991745,0.004601283250376582,0.004902375955646857
1772643991059017000,8.186016845703126,0.0970487538665533,0.002496109398361295,0.0016643530156463383
1772643991069058000,8.19605810546875,0.10527999111711979,0.0021584018765948712,0.004520683161681517
1772643991079099000,8.206098876953124,0.09809680161476135,0.0017096169294789432,0.008281743595097214
1772643991089140000,8.216139892578125,0.09974456882178782,0.0025811573333106934,0.004191734335105866
1772643991099180000,8.226179931640624,0.10273965898454189,-0.0001635017323307693,-0.0019882877403870226
1772643991109220900,8.236220947265625,0.09121347184181212,0.0048840274482034145,0.0006005505758803337
1772643991119262000,8.246261962890625,0.0906137523829937,-0.0007813779023475944,0.01649116173950024
1772643991129303000,8.256302978515626,0.1075228016078472,-0.00003340907925739884,-0.0017770104767289012
1772643991139343000,8.266343017578125,0.09929507148861884,0.004122468491178006,-0.00020714907781220972
1772643991149384000,8.276384033203126,0.09600187516212463,0.0058144949650391934,-0.0018678944974206387
1772643991159425000,8.286425048828125,0.09495265837013721,0.007364226891379803,-0.006217257946496829
1772643991169466000,8.296466064453124,0.10078560230731963,-0.0005754435340873897,-0.006305895211175084
1772643991179507000,8.3065068359375,0.10662088433206081,0.002871719511412084,0.00417113907164894
1772643991189547000,8.316547119140624,0.09899112010598182,0.007006791755836457,0.008797629828518255
1772643991199588000,8.326588134765625,0.09001520196795464,-0.004838909664843231,0.0009326320744585245
1772643991209629200,8.336629150390625,0.09315700712502002,-0.0036145372353494167,-0.001329979095282033
1772643991219670000,8.346669921875,0.09435703056454658,0.007044493417721241,0.009473693326022475
1772643991229709800,8.356709716796875,0.08014379629492759,0.0026059812473133207,-0.0003363284154329449
1772643991239751000,8.3667509765625,0.0816384187668562,0.0035315533933229742,0.003307827640045434
1772643991249791700,8.376791748046875,0.09226035054624081,-0.000733666303101927,-0.0071772894845344125
1772643991259832800,8.386832763671874,0.0967483096152544,0.0022930245743133125,0.004243966845842078
1772643991269873000,8.396872802734375,0.09869359846413135,0.006961217314749956,0.008504245505668223
1772643991279914000,8.4069140625,0.09539806405007839,0.002736932416912168,-0.004079743594303727
1772643991289954800,8.416954833984375,0.08656769186258316,0.007726301669422537,0.004615594903519377
1772643991299996000,8.426995849609375,0.08611761000752449,-0.000903762173000723,0.011151198084186763
1772643991310037000,8.437037109375,0.09165420134663581,0.008846172544825821,0.010975183930154888
1772643991320077000,8.4470771484375,0.09060556907653808,0.00559020295618102,-0.010270789387309923
1772643991330118000,8.457117919921876,0.0949438905417919,0.004444192992523312,-0.005970069119241088
1772643991340159000,8.467158935546875,0.09239888223409652,0.0025317834999412296,0.000042743163183331486
1772643991350200000,8.477199951171874,0.09135024996399879,0.005381455576326698,-0.0011439002049621193
1772643991360241000,8.487240966796875,0.09583820903301238,-0.00039793154271319504,0.0031925398304592815
1772643991370281000,8.497281005859374,0.09344225380718707,0.005452310589142143,0.007903375269379466
1772643991380322000,8.507322021484375,0.08850538192689418,-0.002534505179990083,0.000628224034095183
1772643991390363000,8.51736279296875,0.09359422949850559,-0.0006289272869937122,-0.004028113871766254
1772643991400404000,8.527404052734376,0.08446925827860832,0.003153112002369016,0.0006856441766023635
1772643991410444000,8.537444091796875,0.09075462215840815,0.01046664988612756,0.0008319299126509577
1772643991420485000,8.547485107421876,0.11200549997985362,0.010862225074972956,-0.0011560473004821688
1772643991430526000,8.55752587890625,0.09644026657938956,0.01411063241166994,-0.0025581417839042843
1772643991440567000,8.567567138671874,0.08686112185120583,0.007735544421803206,0.003296465995814651
1772643991450607000,8.577607177734375,0.0859644652724266,-0.0034911117850802836,0.005029326803563163
1772643991460648000,8.58764794921875,0.08716039705872536,-0.005995550620369613,0.010577827776176855
1772643991470689000,8.59768896484375,0.10152209988832474,0.006992799763102084,-0.010842442662268876
1772643991480730000,8.607730224609375,0.08894844951927662,0.012637746847514062,0.003992905561067164
1772643991490771000,8.61777099609375,0.09089256932437419,0.008007876823469996,0.017691906698234377
1772643991500810800,8.627810791015625,0.09612754736840724,0.009864592339750379,-0.0012872907310258596
1772643991510851800,8.637851806640626,0.09537935934960842,0.001924994979519397,-0.008308330207923426
1772643991520893000,8.647892822265625,0.09313304172754287,0.0050880073213949795,-0.007773885404504835
1772643991530933800,8.657933837890624,0.0869967309296131,0.00720569359511137,0.0027598749010823665
1772643991540973800,8.667973876953125,0.09328092576563357,0.010230375178530812,0.005412069910299033
1772643991551015000,8.678014892578124,0.08190612979233264,0.006570902822911739,0.0027167298790998756
1772643991561056000,8.688055908203125,0.09522446104884147,0.010875632545817642,0.0030659725750330834
1772643991571096800,8.698096923828125,0.08489829734563827,-0.012135861739981919,-0.004875241353549063
1772643991581138000,8.708137939453126,0.10076046786606312,0.012095803724229335,0.00035013774507679045
1772643991591178000,8.718177978515625,0.09821604408025741,0.008653481250628828,0.0027779950796626507
1772643991601218800,8.72821875,0.09537468317449092,0.006370320483203977,0.009174418118502944
1772643991611260000,8.738260009765625,0.08699556188583374,-0.0011174231899902223,0.012416898037912323
1772643991621301000,8.748301025390624,0.10225859746932983,0.006362246774602681,0.0029985790277831255
1772643991631341000,8.758341064453125,0.07996434807479381,0.011253051023464649,0.002549647950194776
1772643991641382000,8.7683818359375,0.08295943823754787,0.01630529291173443,-0.002325566003890708
1772643991651423000,8.778423095703126,0.0898421834886074,0.00047209275746718047,-0.010147455268586054
1772643991661464000,8.788464111328125,0.08595277483463287,0.004181870528217405,-0.00504946540929377
1772643991671505000,8.7985048828125,0.08744973539412021,0.007639244440477341,-0.006481270044390112
1772643991681545000,8.808544921875,0.08954232375919818,0.012811459446605293,-0.012642651351494713
1772643991691586000,8.8185859375,0.08849369148910045,0.008208787956740706,0.0033513014555908737
1772643991701627100,8.828627197265625,0.11138590677678585,-0.001290715663973242,0.007229174935398623
1772643991711668000,8.83866796875,0.09522621461451053,-0.0005697261793538927,-0.0057760626507923005
1772643991721708000,8.8487080078125,0.0772726247727871,-0.0024798158506862816,0.001581725366646424
1772643991731749000,8.8587490234375,0.11378478461205958,-0.0013340981479734182,0.0033043479081708935
1772643991741790000,8.8687900390625,0.0859516057908535,0.0045439635725691915,0.006116281790053472
1772643991751831000,8.8788310546875,0.10270984836816788,0.0030520079817622898,0.009469437276013196
1772643991761872100,8.8888720703125,0.08520049516260624,-0.0009677855862304567,0.0038463184309192
1772643991771912000,8.898911865234375,0.09223170897364616,0.0031196298578754066,-0.001347523885127157
1772643991781952800,8.908952880859376,0.08803951798081397,0.0027513080021366477,-0.00855003000930883
1772643991791993900,8.918993896484375,0.09851356572210788,0.003113145318161696,0.007828154608700424
1772643991802035000,8.929034912109374,0.09103051649034023,0.007806746494490653,0.007014436206175014
1772643991812075000,8.939074951171875,0.08310089253485202,0.011802099740970878,0.0016608915500808507
1772643991822115800,8.94911572265625,0.10525076502263546,-0.0011575908035971224,0.005929609244689345
1772643991832157000,8.959156982421876,0.1028565633624792,-0.0005666574394330382,0.008333729510661214
1772643991842198000,8.969197998046875,0.09043547320663929,0.008304576481413096,0.002073143879091367
1772643991852237800,8.97923779296875,0.10464812295436858,0.004026533836033195,0.010196463775774463
1772643991862279000,8.98927880859375,0.08713993879258632,-0.0038702290294691916,0.003159751805709675
1772643991872320000,8.999320068359374,0.08294774779975414,-0.001121606174763292,-0.0006944211381021886
1772643991882360800,9.00936083984375,0.08324760752916335,0.0021429120465181768,0.003954811173537746
1772643991892402000,9.01940185546875,0.07980652716457844,0.003005757687240839,0.005501364762103185
1772643991902442000,9.02944189453125,0.09821019886136055,0.008128964186180383,0.006883137976704165
1772643991912483000,9.039483154296875,0.08638999720811844,-0.004476414761692285,0.004059997714217752
1772643991922524000,9.04952392578125,0.09162965142726898,0.008184530298318714,-0.008706343949027359
1772643991932565000,9.05956494140625,0.09686813660264014,0.008557181269302964,0.01411185625437647
1772643991942605000,9.06960498046875,0.09208031780421733,0.005954268761910498,0.005811170496791601
1772643991952646100,9.079646240234375,0.09357903192937374,0.011264777993876486,-0.004185560322646051
1772643991962687000,9.08968701171875,0.08624620482325554,0.012630056731402873,0.005074298456450924
1772643991972728000,9.09972802734375,0.09717091894149779,0.00573542011315003,0.009954645243380219
1772643991982769000,9.109768798828124,0.10181026917994022,0.004691135224606842,-0.005486833913251757
1772643991992809200,9.119809326171875,0.09881400997340678,-0.0028289946145378052,0.012763802646286786
1772643992002850300,9.129850341796875,0.08265607137680053,-0.0018885536929592489,0.005140952218184247
1772643992012891400,9.139891357421876,0.08669687120020389,-0.0078884151622653,0.0012416797573212533
1772643992022932200,9.14993212890625,0.09328326385319233,0.001505819719377905,0.004166289366595447
1772643992032972300,9.15997216796875,0.08445464523136616,-0.0026922530249692497,-0.007033369235508144
1772643992043013400,9.170013427734375,0.08340484391748905,0.0069576188518665726,0.003427508496958762
1772643992053054200,9.18005419921875,0.08729659065902233,0.007069134668633342,0.0007412011555861681
1772643992063095300,9.19009521484375,0.08983867635726928,-0.00007301043728366493,0.005844113785168156
1772643992073136400,9.200136474609375,0.09417816686630248,0.0029217874645255503,0.007789767960226163
1772643992083176400,9.210176513671875,0.08789280298650264,-0.006489782144408673,-0.0026870379937347024
1772643992093217300,9.22021728515625,0.10001286436915396,0.0016130612198263406,0.016029809571756048
1772643992103258400,9.23025830078125,0.1061462525576353,-0.0017647081175819039,0.0012156959326937793
1772643992113299500,9.240299560546875,0.09866378784775734,0.009477894577104597,0.005998920754389837
1772643992123339500,9.250339599609376,0.09462357254624366,-0.0009849559167400001,-0.005251098061772063
1772643992133380400,9.26038037109375,0.09911445422470569,0.007613251482695341,-0.00043321291864849623
1772643992143421400,9.27042138671875,0.10075871430039406,0.003932042219303548,0.005717592195514589
1772643992153462500,9.280462646484375,0.08698971666693688,0.011311137886252253,0.00323799554053694
1772643992163502300,9.29050244140625,0.09926000017523764,0.0017337467237375675,0.006811762374080717
1772643992173543400,9.30054345703125,0.09701543611884117,0.005189586266037076,-0.0017292166790924964
1772643992183584500,9.31058447265625,0.09162731333971023,0.01120033445553854,-0.008754375208681449
1772643992201155300,9.3281552734375,0.08863631483018397,0.006186305685807019,-0.0077904255473520605
1772643992211196400,9.338196533203124,0.08998305326402187,0.004829374651517719,0.009713548230193554
1772643992221237500,9.348237548828125,0.09297697438299656,-0.0019173596623353658,0.005800502972304821
1772643992231277600,9.358277587890624,0.08998480682969093,0.001219878917466849,-0.01039771283576265
1772643992241318400,9.368318359375,0.08968377805650234,-0.0009877871946431696,-0.0036196883345022794
1772643992251359500,9.378359375,0.08279927923977375,-0.0035346769321709867,-0.0041175639871973545
1772643992261400600,9.388400634765626,0.10703998652696609,0.0004766045358031988,-0.00894624451897107
1772643992271441400,9.39844140625,0.08070376826524735,0.001168221795465797,-0.004952133381506428
1772643992281481200,9.408481201171876,0.10075520716905594,0.013416293471958487,-0.00697903609923087
1772643992291522300,9.418522216796875,0.09342121101915836,0.010762874620035291,0.009678394718421622
1772643992301563100,9.428563232421874,0.09790800104439258,0.007978376734349877,-0.0016533384312875567
1772643992311604200,9.438604248046875,0.09611118075549602,-0.005178955274168401,-0.000880984085611999
1772643992321645300,9.448645263671875,0.09865092836618423,-0.0014648666544817388,0.0042575752460863436
1772643992331685400,9.458685302734375,0.102390699416399,0.00783973544863984,0.010961794725619256
1772643992341726200,9.468726318359375,0.09865034384429454,0.005400014146324247,-0.006859254777617752
1772643992351767300,9.478767333984376,0.08174187914133071,-0.010588595765363425,-0.011555778563395142
1772643992361808400,9.488808349609375,0.08054711639881133,0.0051323579197749495,0.011493910574633627
1772643992371848400,9.498848388671876,0.08728373117744923,0.007444087194558233,0.010733867721259593
1772643992381889300,9.50888916015625,0.08952712619006634,0.020584376736730334,0.0076193524299189444
1772643992391930400,9.518930419921874,0.10030220270454883,0.004701875814329832,0.0014517605777364224
1772643992401971500,9.528971435546875,0.09431728307604789,0.008545162037946284,-0.0047612047861330204
