time,seconds_elapsed,z,y,x
1772643982933516000,0.06051611328125,-0.00038648396730422974,-0.00012723455438390374,-0.0000037655699998140335
1772643982943557000,0.07055712890625,-0.00006290990859270096,0.0002818269422277808,-0.0001979100052267313
1772643982953598000,0.080597900390625,0.000581779982894659,-0.0004241649294272065,-0.0009737333748489618
1772643982963639000,0.09063916015625,-0.00028720946284011006,-0.0009283012477681041,0.0000992543064057827
1772643982973679000,0.10067919921875,0.0003862059093080461,0.000530390942003578,0.0005057118833065033
1772643982983719700,0.1107197265625,0.0009768950985744596,-0.0003069068770855665,0.0015981404576450586
1772643982993760500,0.120760498046875,0.001268354244530201,-0.0006572206038981676,-0.00008989847265183926
1772643983003801600,0.130801513671875,-0.0007082439260557294,-0.00011553370859473944,0.00036789895966649055
1772643983013841700,0.140841552734375,0.0008848237921483815,-0.00038889580173417926,-0.0007113330066204071
1772643983023882800,0.1508828125,-0.0012126818764954805,-0.00093857228057459,0.0007403561612591147
1772643983033923600,0.160923583984375,0.00019227882148697972,-0.000630768365226686,0.00037857075221836567
1772643983043964700,0.170964599609375,-0.00042823771946132183,0.0008494165958836675,-0.00029334472492337227
1772643983054005500,0.181005615234375,-0.00040909257950261235,-0.000027857429813593626,0.0009908960200846195
1772643983064045600,0.191045654296875,-0.0005616917624138296,0.0006019801367074251,0.00043109944090247154
1772643983074086700,0.201086669921875,0.0006333246128633618,0.00015102385077625513,0.001216812408529222
1772643983084127700,0.211127685546875,-0.00018053746316581964,0.00021946709603071213,-0.00011956179514527321
1772643983094168600,0.22116845703125,-0.001591226551681757,-0.0004909454728476703,-0.0010212513152509928
1772643983104209700,0.231209716796875,0.0005723256035707891,0.00007231306517496705,0.0010613406775519252
1772643983114249700,0.241249755859375,-0.00043840776197612286,0.0002616105484776199,0.0004966533742845058
1772643983124290800,0.251290771484375,-0.0009079230949282646,0.000862952321767807,0.00006175925955176353
1772643983134331600,0.26133154296875,0.0002840268425643444,-0.0014697023434564471,0.0018174225697293878
1772643983144372700,0.271372802734375,0.0005167871713638306,0.00009250798029825091,0.0012451092479750514
1772643983154412800,0.281412841796875,-0.00029990123584866524,0.00012937089195474982,0.000185464508831501
1772643983164453600,0.29145361328125,0.0006095682620070875,0.0002540068235248327,-0.0002403748221695423
1772643983174494700,0.30149462890625,-0.0007208994356915355,0.00013155234046280384,0.0004348326474428177
1772643983184535800,0.311535888671875,-0.0005251572001725435,-0.0002239796449430287,0.0009584102081134915
1772643983194576600,0.32157666015625,-0.00042330619180575013,-0.000882191292475909,-0.0003279088996350765
1772643983204616400,0.331616455078125,-0.001821998506784439,0.0007085148245096207,-0.0006043449975550175
1772643983214657500,0.341657470703125,0.0005798139027319849,0.0016301954165101051,0.0009519740706309676
1772643983224698600,0.35169873046875,0.0006208266131579876,0.0011074169306084514,0.0008411866147071123
1772643983234739500,0.361739501953125,0.0007035019807517529,-0.000581434287596494,-0.00033272174187004566
1772643983244779500,0.371779541015625,-0.0007934608729556203,0.00036531942896544933,0.0001932524610310793
1772643983254820600,0.381820556640625,0.00020226079504936934,-0.0007124891271814704,-0.0010833519045263529
1772643983264861700,0.39186181640625,0.00012423016596585512,0.00004970759619027376,-0.0006798829417675734
1772643983274902500,0.401902587890625,0.0008077536476776004,0.0011638621799647808,-0.0013247255701571703
1772643983284943600,0.411943603515625,-0.0019222528208047152,-0.0001834309659898281,-0.0010102062951773405
1772643983294983700,0.421983642578125,-0.0007881532656028867,0.00022494490258395672,0.00030777580104768276
1772643983305024500,0.4320244140625,-0.000006249174475669861,0.00007287843618541956,-0.000974802765995264
1772643983315065600,0.442065673828125,-0.001066758530214429,-0.00026458827778697014,-0.0009121429175138474
1772643983325106700,0.452106689453125,0.0008136995020322502,0.0004893526202067733,-0.00007937243208289146
1772643983335147500,0.4621474609375,0.00003106903750449419,-0.000560276152100414,0.0007434922736138105
1772643983345187600,0.4721875,0.00001695426180958748,0.0008986034663394094,-0.0000011275988072156906
1772643983355228700,0.482228759765625,-0.00019774265820160508,0.0014611069345846772,-0.00004202383570373058
1772643983365269800,0.492269775390625,-0.0004584660637192428,-0.000022540101781487465,-0.00037092436105012894
1772643983375310600,0.502310546875,-0.0010685306042432785,0.00051908940076828,-0.0003139327745884657
1772643983385350700,0.5123505859375,-0.0006661269580945373,0.000763034971896559,0.0009366875747218728
1772643983395391700,0.522391845703125,-0.0006616970058530569,-0.00028091290732845664,0.00011566188186407089
1772643983405432600,0.5324326171875,0.0007891932036727667,0.0009963391348719597,0.0004677317338064313
1772643983415473700,0.5424736328125,-0.0010573468171060085,0.0009572580456733704,-0.0001972669269889593
1772643983425514800,0.5525146484375,-0.0005177904386073351,0.0004464637313503772,-0.0006739727687090635
1772643983435554800,0.562554931640625,-0.001058759167790413,0.0004992095055058599,0.0013310526264831424
1772643983445595600,0.572595703125,0.00014232657849788666,0.000526107382029295,-0.0003318251110613346
1772643983455636700,0.58263671875,0.0007288879714906216,-0.0003794408985413611,0.000152848893776536
1772643983465677800,0.592677734375,-0.0006213347078301013,0.0008919522515498102,-0.0014953813515603542
1772643983475717600,0.602717529296875,0.0000662424135953188,-0.0009102459298446774,0.0011280166218057275
1772643983485758500,0.612758544921875,-0.0006264457479119301,-0.0002665598876774311,0.00026328815147280693
1772643983495799600,0.622799560546875,0.0003308785962872207,-0.0003464238252490759,-0.0004094869364053011
1772643983505840600,0.632840576171875,0.0012616533786058426,0.001666925847530365,0.0001199494581669569
1772643983515881500,0.642881591796875,-0.000765153847169131,-0.0003730593016371131,-0.0007703420706093311
1772643983525921500,0.652921630859375,0.0009153007995337248,-0.000539773260243237,-0.0010622243862599134
1772643983535962600,0.662962646484375,-0.0015440143179148436,0.00011689966777339578,0.0008587350603193045
1772643983546003500,0.67300341796875,-0.0007719637942500412,-0.000994703732430935,-0.0007239815313369036
1772643983556044500,0.68304443359375,-0.00009101716568693519,-0.0002848455333150923,-0.0011654680129140615
1772643983566085600,0.693085693359375,-0.00013815512647852302,-0.0010201442055404186,-0.00017290795221924782
1772643983576125700,0.703125732421875,-0.0002713159774430096,-0.0008037355728447437,-0.0004639152903109789
1772643983586166500,0.71316650390625,0.0008983443258330226,0.0012700679944828153,0.00014541600830852985
1772643983596207600,0.72320751953125,-0.0006341845146380365,2.2409949451684952e-7,-0.0006335272919386625
1772643983606248700,0.733248779296875,-0.0018003827426582575,0.0003640119102783501,0.0003648917190730572
1772643983616288800,0.743288818359375,-0.0013692023931071162,0.000028913316782563925,0.0004030711716040969
1772643983626329600,0.75332958984375,-0.0005441551329568028,0.00043477906729094684,0.0008084042929112911
1772643983636370700,0.76337060546875,0.0012345840223133564,-0.0005411048186942935,0.00004294351674616337
1772643983646411800,0.773411865234375,0.00021699018543586135,0.00005357904592528939,-0.00033549172803759575
1772643983656452600,0.78345263671875,-0.0007681728457100689,0.000736368412617594,-0.0005571262445300817
1772643983666492700,0.79349267578125,0.0010126829147338867,0.0013832502299919724,-0.0005741706117987633
1772643983676533800,0.80353369140625,0.0011119743576273322,-0.0008936991216614842,-0.001236539101228118
1772643983686574600,0.81357470703125,-0.0008225459023378789,-0.00043963012285530567,-0.0006160226184874773
1772643983696615700,0.82361572265625,-0.0003263178514316678,0.0008102813153527677,0.000497944769449532
1772643983706655700,0.83365576171875,0.00006117206066846848,-0.00044859491754323244,-0.00029807398095726967
1772643983716696800,0.84369677734375,0.00027198565658181906,-0.00013101653894409537,0.0003045278135687113
1772643983726737700,0.853737548828125,0.0012168751563876867,0.0004977558273822069,0.0018704666290432215
1772643983736778800,0.86377880859375,0.00028633896727114916,0.0008427745196968317,0.0002706961240619421
1772643983746819800,0.87381982421875,0.0012860896531492472,-0.00014499190729111433,-0.00011466327123343945
1772643983756859600,0.883859619140625,0.0004533845349214971,-0.000257261679507792,-0.0006999007891863585
1772643983766900500,0.893900390625,0.000463504547951743,-0.000057790952268987894,0.00034166150726377964
1772643983776941600,0.903941650390625,-0.0002713158028200269,0.000006081711035221815,-0.00018220278434455395
1772643983786982700,0.913982666015625,-0.00024335260968655348,-0.0006019180291332304,0.0005903801647946239
1772643983797023500,0.9240234375,-0.0005350428400561213,-0.000664469669573009,-0.0016534111928194761
1772643983807063600,0.9340634765625,0.00042848882731050253,0.0003912074025720358,-0.0002584473695605993
1772643983817104600,0.944104736328125,0.00042122957529500127,0.0005702892667613924,-0.0002390928566455841
1772643983827145500,0.9541455078125,0.001581036252900958,0.0011974637163802981,0.001966803567484021
1772643983837186600,0.9641865234375,-0.0002478895476087928,-0.0003389319754205644,-0.001404463779181242
1772643983847226600,0.9742265625,0.0010980721563100815,0.0008064936264418066,-0.0004340079613029957
1772643983857267700,0.984267822265625,0.0007423092611134052,0.0017272325931116939,0.001375037245452404
1772643983867308500,0.99430859375,0.00007518741767853498,-0.00037799618439748883,0.0004988572327420115
1772643983877349600,1.004349609375,0.000695287948474288,0.00019078666809946299,0.00046164507512003183
1772643983887390700,1.014390625,0.00024228420807048678,0.0013782901223748922,0.0002834796905517578
1772643983897430800,1.0244306640625,-0.0004447722458280623,-0.0000778758549131453,-0.0006789013277739286
1772643983907471600,1.0344716796875,0.000018085178453475237,0.0014566376339644194,-0.000026160618290305138
1772643983917512700,1.0445126953125,0.0003376545791979879,0.00028847408248111606,0.00014262949116528034
1772643983927553500,1.054553466796875,0.0008103656582534313,0.00046211216249503195,0.0005367774283513427
1772643983937593600,1.064593505859375,-0.0015119693707674742,-0.0014763395301997662,-0.0018251256551593542
1772643983947634700,1.074634765625,0.000847591320052743,-0.00027631904231384397,-0.000298868166282773
1772643983957675800,1.08467578125,-0.0009779848624020815,-0.0003386746975593269,0.0015658828197047114
1772643983967716600,1.094716552734375,0.0003405461029615253,0.0011825228575617075,0.000028173672035336494
1772643983977757700,1.1047578125,-0.0005480229738168418,-0.0003260039375163615,-0.00020926701836287975
1772643983987797800,1.1147978515625,0.0004711687797680497,0.0002508367761038244,-0.0005173948593437672
1772643983997838800,1.1248388671875,0.00016416417201980948,0.0006502173491753638,0.00029513752087950706
1772643984007879700,1.134879638671875,-0.0007351854001171887,-0.0012342354748398066,0.0002429394517093897
1772643984017920800,1.144920654296875,-0.0002909754402935505,-0.0009963810443878174,0.0004448845284059644
1772643984027961900,1.1549619140625,-0.0011184195755049586,-0.0003676086780615151,0.0004901582142338157
1772643984038001700,1.165001708984375,-0.000936486991122365,-0.0008859366644173861,-0.0004991905298084021
1772643984048042800,1.175042724609375,-0.00020997668616473675,-0.00010829360689967871,-0.0008683046326041222
1772643984058083800,1.185083740234375,-0.00030484446324408054,-0.0003276849747635424,-0.000553142512217164
1772643984068124700,1.195124755859375,-0.0000750137260183692,-0.0000027793576009571552,0.0003565934021025896
1772643984078164700,1.205164794921875,-0.0000835490645840764,-0.0001839949400164187,-0.0007586129941046238
1772643984088205800,1.215205810546875,-0.0016758530400693417,0.0016288188053295016,0.00046883791219443083
1772643984098247000,1.225246826171875,0.0010561983799561858,0.00035601702984422445,0.0005075372755527496
1772643984108287700,1.235287841796875,0.00010678148828446865,0.00004442717181518674,-0.0016624063719063997
1772643984118328800,1.245328857421875,-0.0005298154428601265,0.0008850998128764331,-0.0008590070065110922
1772643984128369000,1.255368896484375,-0.00004325591726228595,-0.00013728771591559052,-0.0011474273633211851
1772643984138409700,1.26540966796875,-0.0004820085596293211,0.0009800398256629705,0.0013783827889710665
1772643984148450800,1.275450927734375,0.0008197445422410965,0.00010918622137978673,-0.0001827622763812542
1772643984158492000,1.285491943359375,-0.0016093617305159569,-0.0005083476426079869,0.0005577403353527188
1772643984168532700,1.29553271484375,-0.0007137407083064318,-0.001005559810437262,0.0009276533965021372
1772643984178572800,1.30557275390625,0.0010851514525711536,-0.0004111864254809916,0.001888911472633481
1772643984188614000,1.31561376953125,-0.0006759969983249903,0.0012716649798676372,0.00024254526942968369
1772643984198655000,1.325655029296875,-0.0006098985322751105,-0.0008627337520010769,-0.0010737990960478783
1772643984208695800,1.33569580078125,-0.0006402586004696786,0.0007681861752644181,-0.0005590100772678852
1772643984218735900,1.34573583984375,-0.0006993983988650143,-0.0003712259349413216,-0.0003756072837859392
1772643984228777000,1.35577685546875,-0.0012679833453148603,0.00021706637926399708,0.00003558490425348282
1772643984238818000,1.365818115234375,-0.0015211838763207197,0.0008773080189712346,0.00006731925532221794
1772643984248859000,1.37585888671875,-0.0003643066738732159,-0.0007679929258301854,-0.002089308574795723
1772643984258900000,1.38589990234375,-0.0017504040151834488,-0.0002227591467089951,-0.00016630557365715504
1772643984268939800,1.395939697265625,-0.0002076348173432052,0.00016526348190382123,-0.0004089195281267166
1772643984278980600,1.405980712890625,0.00006385601591318846,-0.00004491803701967001,0.00035301654133945704
1772643984289021700,1.416021728515625,-0.001080238027498126,-0.00043187534902244806,0.0003796480596065521
1772643984299062800,1.426062744140625,-0.0012094322592020035,-0.0004278366104699671,-0.00044981110841035843
1772643984309102800,1.436102783203125,-0.0007785328780300915,-0.00006830989150330424,0.0005848270375281572
1772643984319143700,1.446143798828125,0.0000033167889341712,0.00018036691471934319,-0.0006350295152515173
1772643984329184800,1.456184814453125,-0.00035913940519094467,0.0002101943246088922,0.00007124082185328007
1772643984339225900,1.466225830078125,-0.000025443092454224825,0.0003079527523368597,0.0006710062734782696
1772643984349266700,1.4762666015625,-0.0006475575501099229,0.0007569617591798306,0.0006622178480029106
1772643984359306800,1.486306640625,-0.0012540393508970737,0.000481372611830011,0.00015178811736404896
1772643984369347800,1.496347900390625,0.00012121698819100857,-0.0003652462619356811,0.00040265789721161127
1772643984379389000,1.506388916015625,-0.000016671721823513508,-0.0006149572436697781,0.0006818159017711878
1772643984389429800,1.5164296875,0.0007311438675969839,0.00001195090590044856,-0.00037599168717861176
1772643984399469800,1.5264697265625,-0.0004980415105819702,0.0005462406552396715,-0.00007240567356348038
1772643984409511000,1.536510986328125,0.00017360772471874952,-0.00005962845170870423,-0.0014479283709079027
1772643984419551700,1.5465517578125,0.000607134192250669,-0.00022242410341277719,-0.0014816587790846825
1772643984429592800,1.5565927734375,0.0010050104465335608,0.0007168728043325245,-0.0001913572195917368
1772643984439634000,1.566634033203125,0.00007949548307806253,-0.0011874677147716284,-0.0005478656385093927
1772643984449674000,1.576674072265625,-0.0007191865588538349,-0.00016321608563885093,0.00011712545529007912
1772643984459714800,1.58671484375,-0.0017824459355324507,0.000094316725153476,-0.00003075273707509041
1772643984469756000,1.596755859375,0.00008789211278781295,0.0007028490654192865,-0.00008827704004943371
1772643984479797000,1.606796875,-0.00007417477900162339,0.0009065158665180206,-0.0006620823405683041
1772643984489837000,1.616837158203125,-0.001424131216481328,0.0006647008704021573,-0.0006913770921528339
1772643984499878000,1.6268779296875,-0.000306358328089118,-0.000502687762491405,-0.00038944510743021965
1772643984509919000,1.6369189453125,-0.000969485379755497,-0.000012399803381413221,-0.00045522511936724186
1772643984519959800,1.646959716796875,0.00011792639270424843,-0.0011644030455499887,0.0008310978300869465
1772643984530001000,1.6570009765625,-0.00019366340711712837,0.0002904818975366652,-0.000630711205303669
1772643984540040700,1.667040771484375,-0.0002507163444533944,0.0010012324200943112,0.0016912316204980016
1772643984550081800,1.677081787109375,0.00017592200310900807,0.0006030899239704013,0.0007607231382280588
1772643984560122600,1.68712255859375,-0.0014082917477935553,0.0007753601530566812,-0.0005637458525598049
1772643984570164000,1.6971640625,-0.0004354391130618751,-0.0004899076884612441,0.0007926019607111812
1772643984580203800,1.707203857421875,-0.0008611847297288477,-0.0009477960993535817,0.00019233650527894497
1772643984590244900,1.717244873046875,-0.00028034934075549245,0.0016655639046803117,0.0005947401514276862
1772643984600285700,1.72728564453125,0.0017386807594448328,0.0004243617586325854,-0.000968599459156394
1772643984610326800,1.737326904296875,0.0009091061656363308,-0.0006691322196274996,-0.00015260698273777962
1772643984620368000,1.747367919921875,-0.000586295616813004,-0.0008628291543573141,0.00015521282330155373
1772643984630408000,1.757407958984375,-0.0017242643516510725,-0.00005988607881590724,-0.000855456804856658
1772643984640448800,1.76744873046875,-0.0008138180710375309,-0.001961285714060068,-0.00016304105520248413
1772643984650489900,1.77748974609375,-0.0003485637716948986,-0.0009077390423044562,-0.0007835575379431248
1772643984660530700,1.78753076171875,-0.0009936338756233454,-0.0013750882353633642,0.0008398703066632152
1772643984670571800,1.79757177734375,-0.000174711924046278,0.0015631774440407753,-0.0003697373904287815
1772643984680611800,1.80761181640625,0.0011845824774354696,0.0009173895814456046,0.000032160431146621704
1772643984690653000,1.81765283203125,0.00042984262108802795,-0.0015202017966657877,0.00014481204561889172
1772643984700693800,1.82769384765625,-0.0011627350468188524,0.0002596592530608177,-0.0004925108514726162
1772643984710734800,1.83773486328125,-0.00046711729373782873,-0.0010442244820296764,-0.00009596627205610275
1772643984720775000,1.84777490234375,-0.0020018690265715122,-0.000035266915801912546,-0.0002510962076485157
1772643984730816000,1.85781591796875,0.000265546259470284,0.00021320604719221592,0.00016888417303562164
1772643984740856800,1.86785693359375,-0.0006063081091269851,-0.001234962954185903,0.0010858811438083649
1772643984750898000,1.87789794921875,0.00015082856407389045,0.00021193252177909017,-0.0001311835367232561
1772643984760939000,1.88793896484375,-0.000828602584078908,0.000184210657607764,0.0005510977935045958
1772643984770978800,1.897978759765625,-0.0003353850916028023,-0.0004522848757915199,-0.0006055131088942289
1772643984781020000,1.90802001953125,0.0006765426369383931,0.0001717776176519692,-0.0010079792700707912
1772643984791061000,1.91806103515625,-0.0007224158616736531,0.00007643649587407708,-0.0003523088525980711
1772643984801101800,1.928101806640625,0.0004733639070764184,0.0001499730278737843,-0.00032654451206326485
1772643984811143000,1.938142822265625,-0.0005277183372527361,0.00043839338468387723,0.0007389863021671772
1772643984821183000,1.948182861328125,0.001358614070340991,0.000100866483990103,0.0008124732412397861
1772643984831224000,1.95822412109375,-0.00012796244118362665,0.0008755800663493574,-0.0006812938954681158
1772643984841265000,1.968264892578125,0.0005215465207584202,0.000182770483661443,0.0005792195443063974
1772643984851306000,1.978305908203125,-0.0007527760462835431,0.0017042343970388174,-0.0005696681328117847
1772643984861345800,1.988345703125,0.00037519127363339067,-0.0010414763819426298,0.0007102780509740114
1772643984871387000,1.998386962890625,0.0009456403786316514,-0.0001487848930992186,0.00003490038216114044
1772643984881427700,2.008427734375,-0.002145283855497837,0.0009953469270840287,-0.0009885835461318493
1772643984891468800,2.01846875,-0.00004697917029261589,-0.0005572759546339512,0.00030278321355581284
1772643984901510000,2.028510009765625,-0.00038214586675167084,0.00011894752969965339,-0.00041412562131881714
1772643984911549700,2.0385498046875,0.0014943174319341779,0.0004976490745320916,0.001109202508814633
1772643984921590800,2.0485908203125,-0.000444352044723928,0.0008887699223123491,0.0006546416552737355
1772643984931631900,2.0586318359375,0.0007679188856855035,0.0007289802306331694,-0.00037813233211636543
1772643984941672700,2.068672607421875,-0.0002753082662820816,0.00020666077034547925,0.0007744822651147842
1772643984951712800,2.078712646484375,0.001056005945429206,-0.0005502096610143781,0.00009351200424134731
1772643984961753900,2.08875390625,0.0007516212062910199,0.000424804660724476,-0.0002738910261541605
1772643984971795000,2.098794921875,0.00018809631001204252,-0.00020716350991278887,0.0001844388898462057
1772643984981835800,2.108835693359375,-0.0002084296429529786,0.0006393106887117028,-0.0003556571900844574
1772643984991877000,2.118877197265625,0.0011673594126477838,-0.00003580068005248904,-0.00034686876460909843
1772643985001917200,2.128917236328125,0.0008826308767311275,0.00020559143740683794,0.0005823891842737794
1772643985011958000,2.1389580078125,-0.0003426894545555115,-0.00013369525549933314,-0.0006506543140858412
1772643985021999000,2.1489990234375,0.0011076746741309762,-0.0011810448486357927,-0.00013665040023624897
1772643985032040200,2.159040283203125,-0.00019674154464155436,-0.0009618666372261941,-0.0011664947960525751
1772643985042080300,2.169080322265625,-0.00011906260624527931,-0.0002106857136823237,-0.000932247843593359
1772643985052121000,2.17912109375,-0.0015057704877108335,0.00043672879110090435,0.000778300454840064
1772643985062162200,2.189162109375,-0.0007727162446826696,0.00013771350495517254,0.0005689460085704923
1772643985072203300,2.199203369140625,0.000722648692317307,0.00039044750155881047,-0.00031602242961525917
1772643985082244000,2.209244140625,0.001158472034148872,-0.0002251289552077651,0.00031799497082829475
1772643985092284200,2.2192841796875,0.0003752363263629377,0.00020284100901335478,-0.0007057241164147854
1772643985102325200,2.2293251953125,0.0008102002320811152,0.00008543819421902299,0.000024797162041068077
1772643985112366000,2.239365966796875,0.0011058110976591706,0.0011291310656815767,0.0006602273788303137
1772643985122407200,2.2494072265625,0.0011210525408387184,0.0011231102980673313,0.0011280577164143324
1772643985132447000,2.259447021484375,-0.0011956313392147422,-0.00028996297623962164,0.0003922262694686651
1772643985142488000,2.269488037109375,-0.00041690049692988396,0.00013825250789523125,0.0003776999656111002
1772643985152529000,2.27952880859375,-0.0017982821445912123,0.0009422608418390155,-0.0001908848062157631
1772643985162570000,2.289570068359375,0.0007481767679564655,0.00005289842374622822,-0.00035367696546018124
1772643985172611000,2.299611083984375,-0.000428407802246511,-0.0012730895541608334,-0.0003014791291207075
1772643985182651100,2.309651123046875,0.00010888988617807627,-0.00047718180576339364,0.0009925542399287224
1772643985192692000,2.31969189453125,-0.0005001750541850924,-0.00001965078990906477,-0.00015367032028734684
1772643985202733000,2.329733154296875,0.0009710589074529707,-0.0016485776286572218,0.00014672032557427883
1772643985212774100,2.339774169921875,0.00011458632070571184,-0.000230178062338382,-0.00044396892189979553
1772643985222815000,2.34981494140625,0.0009919730946421623,0.0000727489241398871,0.0011987740872427821
1772643985232855000,2.35985498046875,0.0005317788454703987,0.0002096354146488011,0.00011087278835475445
1772643985242896100,2.369896240234375,0.0002359238569624722,0.0008302396745420992,-0.0005007472354918718
1772643985252937000,2.37993701171875,-0.00039870745968073606,0.0015397057868540287,0.0006987404776737094
1772643985262978000,2.38997802734375,0.00032287498470395803,-0.00003754755016416311,-0.0007476953323930502
1772643985273018000,2.40001806640625,-0.0003751395270228386,-0.000611458788625896,0.00022249436005949974
1772643985283059200,2.41005908203125,0.002057870617136359,-0.00009043666068464518,-0.00014938856475055218
1772643985293100000,2.42010009765625,-0.0008178107673302293,-0.00024383480194956064,0.00013157492503523827
1772643985303141000,2.43014111328125,-0.0009201201610267162,-0.000068634282797575,-0.0007743532769382
1772643985313182200,2.44018212890625,-0.0006822998402640224,-0.001160530373454094,-0.0008401332888752222
1772643985323222300,2.45022216796875,-0.00018357811495661736,0.0005408645956777036,0.0011933606583625078
1772643985333263000,2.46026318359375,-0.0006062218453735113,-0.0013092334847897291,0.0010242498246952891
1772643985343304200,2.47030419921875,0.001225953223183751,-0.0004712456138804555,0.0012300399830564857
1772643985353345300,2.48034521484375,0.000007823342457413673,-0.0005146551411598921,0.000820712186396122
1772643985363385000,2.490385009765625,-0.0010529322316870093,-0.0003798528341576457,0.00048580276779830456
1772643985373426200,2.50042626953125,-0.0006262939423322678,0.00006755819777026772,0.0005228207446634769
1772643985383467300,2.51046728515625,0.001390194520354271,-0.0003756754449568689,0.001268479274585843
1772643985393508000,2.520508056640625,0.000655961106531322,0.0008054364589042962,0.0007840503240004182
1772643985403549200,2.530549072265625,0.0019628407899290323,-0.0003010070067830384,-0.0016540463548153639
1772643985413589000,2.540589111328125,0.000015004887245595455,0.001580249983817339,-0.0008164821192622185
1772643985423630000,2.550630126953125,-0.00027705496177077293,-0.00024808477610349655,0.0008506864542141557
1772643985433671000,2.5606708984375,0.0006955313729122281,0.0000011870288290083408,0.0006472209934145212
1772643985443712000,2.5707119140625,0.0014930350007489324,0.0007409665849991143,-0.000888672424480319
1772643985453753000,2.580753173828125,-0.0002598576247692108,0.0005225873901508749,-0.0005267488304525614
1772643985463793200,2.590793212890625,-0.00014078489039093256,-0.0013744481839239597,0.000809110002592206
1772643985473834000,2.600833984375,-0.00014850799925625324,-0.0011922880075871944,-0.0009810668416321278
1772643985483875000,2.610875,0.00013864500215277076,0.001022643526084721,0.00041142385452985764
1772643985493916200,2.620916259765625,0.0010076344478875399,0.0002924047294072807,-0.00028446014039218426
1772643985503956000,2.6309560546875,0.00013854069402441382,-0.0003556658048182726,-0.001117160078138113
1772643985513997000,2.6409970703125,0.0008525341982021928,0.00008934841025620699,0.0010099067585542798
1772643985524038100,2.6510380859375,0.00031664560083299875,0.00036260962951928377,-0.00041603390127420425
1772643985534079000,2.661078857421875,-0.0008639337029308081,0.00005874299677088857,-0.00011243368498980999
1772643985544120000,2.6711201171875,0.0009517217404209077,0.000277891056612134,-0.00021290150471031666
1772643985554160000,2.68116015625,0.0007032487774267793,0.000031814968679100275,0.00022971583530306816
1772643985564201200,2.691201171875,0.0002736572059802711,0.0007939455099403858,-0.0012560670729726553
1772643985574242000,2.701241943359375,0.000713611429091543,-0.00004361866740509868,0.0013996371999382973
1772643985584283100,2.711283203125,-0.0000823064474388957,-0.0008369488059543073,-0.000631342176347971
1772643985594323200,2.7213232421875,-0.0011465057032182813,-0.0000598383485339582,-0.0008574447128921747
1772643985604364000,2.731364013671875,-0.00035389093682169914,0.0004286027979105711,0.0002874878700822592
1772643985614405000,2.741405029296875,0.00009778124513104558,0.00019317935220897198,-0.0002957445103675127
1772643985624446200,2.7514462890625,-0.0004544344265013933,-0.0008320905617438257,0.00027483608573675156
1772643985634487000,2.761487060546875,0.000953578797634691,-0.002186307916417718,0.0007922883378341794
1772643985644527000,2.771527099609375,-0.00008490507025271654,0.00003558507887646556,-0.0008057588711380959
1772643985654568200,2.781568115234375,0.0007446695817634463,-0.00020889309234917164,-0.000015598954632878304
1772643985664609300,2.791609375,0.0003079925663769245,-0.0003927361685782671,-0.001600203337147832
1772643985674650000,2.801650146484375,-0.00005126791074872017,-0.0005509279435500503,-0.000512035796418786
1772643985684690000,2.81168994140625,-0.0001355423592031002,0.00003466126509010792,0.0004034095909446478
1772643985694731000,2.82173095703125,0.00003436731640249491,-0.0004998351796530187,0.0003645275719463825
1772643985704772000,2.831772216796875,-0.00019275699742138386,-0.0002497227396816015,0.00008431891910731792
1772643985714813000,2.84181298828125,-0.0005240541649982333,-0.00048221671022474766,0.00019111158326268196
1772643985724854000,2.85185400390625,-0.000632345792837441,0.0009549989481456578,0.0001307742204517126
1772643985734894000,2.86189404296875,-0.001016639987938106,0.0012495445553213358,0.0007166696013882756
1772643985744935000,2.871934814453125,-0.00010295701213181019,0.0003707784344442189,-0.0001962045207619667
1772643985754976000,2.88197607421875,0.00015483697643503547,0.0014458965742960572,0.0019180790986865759
1772643985765017000,2.89201708984375,0.0006621773354709148,-0.00036549370270222425,-0.00014034565538167953
1772643985775058000,2.902057861328125,-0.000774598098360002,0.00007339520379900932,-0.0006266387645155191
1772643985785098000,2.912097900390625,0.00020571373170241714,-0.0007437235326506197,-0.00017278152517974377
1772643985795139000,2.92213916015625,0.0009825577726587653,-0.00039058836409822106,-0.0001858309842646122
1772643985805180200,2.93218017578125,0.00003075599670410156,0.0007993471808731556,-0.00012874510139226913
1772643985815221000,2.942220947265625,0.0007633916102349758,-0.0009274464100599289,-0.0003886695485562086
1772643985825261000,2.952260986328125,-0.0001783377956598997,0.0003713636542670429,-0.00018839631229639053
1772643985835302100,2.96230224609375,-0.0008009849116206169,0.0007103840471245348,0.001526413019746542
1772643985845343200,2.97234326171875,-0.0010346053168177605,-0.0007646945887245238,0.0008747834945097566
1772643985855384000,2.982384033203125,-0.0011810790747404099,0.0006142901256680489,0.00024547846987843513
1772643985865425200,2.992425048828125,-0.0010330035584047437,0.00009194033918902278,0.0004391253460198641
1772643985875465200,3.00246533203125,-0.000546177732758224,0.00024853425566107035,-0.0008367951959371567
1772643985885506000,3.012506103515625,-0.0007313102250918746,-0.00027596275322139263,0.000716296024620533
1772643985895547100,3.022547119140625,-0.0000508725643157959,-0.0000557193998247385,-0.000010480638593435287
1772643985905588200,3.032588134765625,-0.0007048340048640966,-0.001316337613388896,-0.0008788679260760546
1772643985915628300,3.042628173828125,-0.0006430486682802439,0.0005968774203211069,0.00030890200287103653
1772643985925669000,3.052669189453125,0.0008741864003241062,-0.00015273032477125525,-0.0002280061598867178
1772643985935710200,3.062710205078125,0.00005712860729545355,0.00038336397847160697,-0.00036649033427238464
1772643985945751300,3.072751220703125,-0.00043434021063148975,0.00025245186407119036,-0.0009099415037781
1772643985955792100,3.082792236328125,-0.0007113090250641108,-0.00017711601685732603,0.0002807579003274441
1772643985965832000,3.09283203125,0.0005350415012799203,-0.00039852201007306576,0.0007890663109719753
1772643985975873000,3.102873046875,-0.000272162607870996,-0.0013684453442692757,-0.0013095047324895859
1772643985985913900,3.112913818359375,0.00037394423270598054,-0.0007252510404214263,0.00019475864246487617
1772643985995954700,3.12295458984375,0.0000511690741404891,0.0002057901001535356,-0.0008489340543746948
1772643986005995800,3.132995849609375,-0.00038433412555605173,0.00047517262282781303,-0.0011039725504815578
1772643986016035800,3.143035888671875,-0.001869579078629613,0.0001811596448533237,-0.0005732045974582434
1772643986026076700,3.15307666015625,0.0007932492881081998,0.0005614729598164558,0.0005395545158535242
1772643986036117800,3.16311767578125,0.0000028230715543031693,0.00036732846638187766,0.0012966912472620606
1772643986046158800,3.173158935546875,0.0005584234022535384,-0.00011899619130417705,-0.0006060411687940359
1772643986056199000,3.183198974609375,0.0005680107860825956,-0.00040235655615106225,0.0007154194172471762
1772643986066239700,3.19323974609375,-0.0009432255756109953,-0.0008202319731935859,-0.0006116307340562344
1772643986076280800,3.20328076171875,-0.0006798389367759228,0.00041148002492263913,-0.0004403896164149046
1772643986086322000,3.213322021484375,-0.0002919323742389679,0.000506615499034524,-0.0005857644136995077
1772643986096362800,3.22336279296875,0.00020820932695642114,0.0006903735920786858,-0.00037936936132609844
1772643986106402600,3.233402587890625,-0.0009023015154525638,-0.0009659910574555397,-0.0007192469201982021
1772643986116443600,3.243443603515625,-0.001921493443660438,0.0004936875775456429,-0.0006678479257971048
1772643986126484700,3.253484619140625,0.0002702493220567703,0.0018936743726953864,0.0008666467620059848
1772643986136525600,3.263525634765625,-0.0005508032627403736,0.00008778489427641034,0.0005260285688564181
1772643986146565600,3.273565673828125,-0.0007327828789129853,-0.0011978574329987168,-0.00019823946058750153
1772643986156606700,3.283606689453125,0.0012241078075021505,-0.00011395092587918043,-0.00007706554606556892
1772643986166647600,3.2936474609375,0.0008902116096578538,-0.0002155844122171402,-0.0008986042812466621
1772643986176688600,3.303688720703125,0.00024119927547872066,-0.0009093378903344274,0.0015048986533656716
1772643986186729700,3.313729736328125,0.0013484666123986244,-0.0002606087364256382,0.0002315174788236618
1772643986196769800,3.323769775390625,0.00033326965058222413,0.00013433810090646148,-0.00040577701292932034
1772643986206810600,3.333810546875,-0.0014956574887037277,-0.0003721239627338946,0.00035611074417829514
1772643986216851700,3.343851806640625,0.00010090769501402974,0.0006430729990825057,-0.0004431039560586214
1772643986226892800,3.353892822265625,0.00046764902072027326,0.00012881116708740592,-0.002320478204637766
1772643986236932900,3.363932861328125,-0.000637296587228775,-0.0019668303430080414,0.00038822274655103683
1772643986246973700,3.3739736328125,-0.0005387460114434361,-0.0004478780319914222,-0.0011622640304267406
1772643986257014800,3.384014892578125,0.001484723761677742,0.0008733161957934499,-0.0006269686855375767
1772643986267055900,3.394055908203125,-0.0007002631900832057,-0.001203601248562336,-0.001274355687201023
1772643986277096700,3.4040966796875,0.0008299890905618668,-0.00009652518201619387,0.00012913020327687263
1772643986287136800,3.41413671875,-0.00030245946254581213,-0.0006429859786294401,0.00006343238055706024
1772643986297177900,3.424177734375,0.00021446013124659657,-0.0004379224847070873,-0.00047532515600323677
1772643986307218700,3.43421875,0.000017503160052001476,-0.0007200059480965137,-0.000748565886169672
1772643986317259800,3.444259765625,-0.0002469486789777875,0.0009407412726432085,0.00015371316112577915
1772643986327299800,3.4542998046875,-0.00020356778986752033,0.0008627379429526627,-0.00037480820901691914
1772643986337341000,3.4643408203125,0.0013490550918504596,-0.00042276992462575436,-0.0004485778044909239
1772643986347381800,3.4743818359375,0.0008643308538012207,0.0005428431904874742,0.0015624265652149916
1772643986357422800,3.4844228515625,0.0005032062181271613,0.0008317961473949254,0.0003751893527805805
1772643986367464000,3.4944638671875,-9.34116542339325e-7,-0.0003977144951932132,-0.000326839042827487
1772643986377503700,3.504503662109375,-0.0000579258194193244,-0.0001966457930393517,0.0006673190509900451
1772643986387544600,3.514544677734375,-0.0001496311742812395,-0.00009818334365263581,0.0004732566885650158
1772643986397585700,3.524585693359375,0.0002596966805867851,-0.00002574536483734846,-0.0007014637812972069
1772643986407626800,3.534626708984375,0.0004156524664722383,0.000659853860270232,0.00007332745008170605
1772643986417667600,3.54466748046875,-0.0006184530211612582,-0.00016732397489249706,0.0010419189929962158
1772643986427707600,3.554707763671875,-0.0021394016221165657,-0.000429851352237165,0.001992681762203574
1772643986437748700,3.564748779296875,0.0015874260570853949,0.00033980217995122075,0.0005404599942266941
1772643986447789600,3.57478955078125,0.0003354782238602638,0.0005682703340426087,0.00022624759003520012
1772643986457830700,3.58483056640625,-0.0006661366205662489,0.00004762230673804879,4.116445779800415e-7
1772643986467870700,3.59487060546875,0.0005755200982093811,-0.0013746579643338919,0.00046959472820162773
1772643986477911800,3.604911865234375,-0.00006523646879941225,-0.0009413616498932242,0.00012498185969889164
1772643986487952600,3.61495263671875,0.000053790456149727106,0.0001471264404244721,0.0005819437792524695
1772643986497993700,3.62499365234375,0.0007573976181447506,-0.0006315818172879517,0.00023440131917595863
1772643986508034800,3.635034912109375,0.0009724359260872006,0.0005704288487322628,0.0001818239688873291
1772643986518074600,3.64507470703125,0.0006856134859845042,0.0007091795559972525,-0.0008331066928803921
1772643986528115700,3.65511572265625,-0.0004122937098145485,-0.0001357572036795318,-0.0004678047262132168
1772643986538156800,3.66515673828125,-0.0005473160417750478,-0.00041645433520898223,-0.0011783360969275236
1772643986548197600,3.67519775390625,-0.0009994320571422577,-0.00011802837252616882,-0.0007772014942020178
1772643986558237700,3.68523779296875,0.0003670359146781266,0.00027718476485460997,0.000854783458635211
1772643986568278800,3.69527880859375,-0.00042784743709489703,0.00001535512274131179,0.001104725175537169
1772643986578320000,3.70531982421875,0.0005202379543334246,-0.0004970371373929083,0.00025863898918032646
1772643986588360700,3.715360595703125,-0.000531282857991755,0.0011880844831466675,0.0017150547355413437
1772643986598401800,3.72540185546875,0.000569401599932462,-0.000049486407078802586,0.0001674918457865715
1772643986608441900,3.73544189453125,-0.0003938936861231923,0.0003039141301997006,-0.00028168316930532455
1772643986618483000,3.74548291015625,-0.00126847589854151,-0.0006324533023871481,0.00018303841352462769
1772643986628523800,3.755523681640625,0.0005427786381915212,-0.0006531511317007244,0.0006372540956363082
1772643986638564900,3.76556494140625,-0.0004966530832462013,-0.00006512523395940661,0.0004926444962620735
1772643986648605700,3.775605712890625,0.0009100234019570053,-0.0004726463812403381,0.0005575125105679035
1772643986658645500,3.7856455078125,0.00016700144624337554,0.0019148774445056915,-0.0005229320377111435
1772643986668686600,3.7956865234375,0.0019312941003590822,0.0009092888212762773,0.0008082560962066054
1772643986678727700,3.805727783203125,0.00041489023715257645,-0.00013786612544208765,0.000058309873566031456
1772643986688768500,3.8157685546875,0.00022624584380537271,0.000429099949542433,-0.0006023177411407232
1772643986698808600,3.82580859375,0.00017191731603816152,-0.00010885862866416574,0.0009111567633226514
1772643986708849700,3.835849609375,0.0006052247481420636,-0.0003378094988875091,0.00022263661958277225
1772643986718890800,3.845890869140625,-0.00027415103977546096,-0.0006837540422566235,-0.0005246463697403669
1772643986728931600,3.855931640625,-0.00037369108758866787,0.0005079851252958179,0.00103034230414778
1772643986738972700,3.86597265625,0.0015049027279019356,0.00011916365474462509,0.0011874688789248466
1772643986749012700,3.8760126953125,0.0004897018661722541,-0.0008713441784493625,-0.00006684730760753155
1772643986759053800,3.8860537109375,0.0004569449811242521,-0.0008412504685111344,0.00011478015221655369
1772643986769094700,3.8960947265625,-0.000536978361196816,-0.000942736747674644,0.0009918243158608675
1772643986779135700,3.9061357421875,-0.0012656192993745208,0.0005273281713016331,0.0002815593034029007
1772643986789175800,3.91617578125,0.000035374832805246115,-0.0011335365707054734,-0.0006721944082528353
1772643986799216600,3.926216552734375,-0.0002868677256628871,-0.0011007796274498105,-0.0006138712633401155
1772643986809257700,3.9362578125,-0.0006363461725413799,-0.0007589191664010286,-0.0004922847729176283
1772643986819298800,3.946298828125,0.00010347994975745678,-0.001361326314508915,-0.0004006719682365656
1772643986829339600,3.956339599609375,0.001402388559654355,0.0005908660823479295,-0.0008170094806700945
1772643986839379700,3.966379638671875,0.0010878692846745253,0.00001802010228857398,-0.0001893024891614914
1772643986849420800,3.9764208984375,-0.00033427414018660784,0.0002585802576504648,-0.001076333224773407
1772643986859462000,3.9864619140625,-0.001468248083256185,-0.000210935075301677,-0.0005612778477370739
1772643986869502700,3.996502685546875,-0.0005390659789554775,0.000720375042874366,0.0007620725082233548
1772643986879542800,4.006542724609375,-0.00022401398746296763,0.00032835773890838027,0.0003410268109291792
1772643986889583900,4.016583984375,0.00027751352172344923,0.0008474788628518581,-0.0003628893755376339
1772643986899624700,4.026624755859375,0.0008354457677341998,-0.00010007392847910523,0.0001369859091937542
1772643986909665800,4.036665771484375,0.00006289029261097312,0.000602236483246088,0.0013062137877568603
1772643986919707000,4.046706787109375,-0.0006164821679703891,-0.0006100345053710043,-0.0007172559853643179
1772643986929746700,4.05674658203125,-0.0004907301045022905,0.00014165719039738178,0.0005835285410284996
1772643986939787500,4.06678759765625,-0.00020310870604589581,0.0003243500832468271,-0.0010647019371390343
1772643986949828600,4.07682861328125,-0.00025935476878657937,-0.0023935886565595865,-0.0008753568399697542
1772643986959869700,4.08686962890625,-0.0003235369804315269,-0.0013730651699006557,-0.00045351218432188034
1772643986969910500,4.09691064453125,0.0013085540849715471,-0.00017149391351267695,-0.00019416422583162785
1772643986979950600,4.10695068359375,-0.000848339986987412,-0.00010518118506297469,-0.0008908470626920462
1772643986989992000,4.116991943359375,-0.0008888025768101215,0.00034529436379671097,0.0003714637132361531
1772643987000033000,4.127032958984375,0.00010615441715344787,0.00016073731239885092,-0.000346524640917778
1772643987010073900,4.137073974609375,-0.0016665506409481168,-0.0009382576681673527,-0.0004339946899563074
1772643987020114000,4.147114013671875,-0.00046892696991562843,-0.0013704887824133039,-0.00024277972988784313
1772643987030155000,4.157155029296875,0.0006038969149813056,-0.0005163720343261957,-0.0007243677973747253
1772643987040195800,4.16719580078125,0.00009762996342033148,-0.00034220132511109114,0.0017236098647117615
1772643987050237000,4.17723681640625,0.0001786844222806394,0.00038937991484999657,0.00019827554933726788
1772643987060278000,4.187278076171875,-0.0005859090597368777,0.0008514383807778358,-0.0010829712264239788
1772643987070318000,4.197318115234375,0.0005131897050887346,-0.00028697645757347345,-0.0006269020959734917
1772643987080359000,4.20735888671875,0.0011981547577306628,-0.0006979022873565555,0.0002964157611131668
1772643987090400000,4.21739990234375,0.0007170135504566133,0.0006059920415282249,-0.000627168221399188
1772643987100441000,4.227441162109375,0.0007566946442238986,-0.000009198207408189774,0.0009273189352825284
1772643987110481000,4.23748095703125,-0.001102387672290206,-0.0004137818468734622,-0.00005249050445854664
1772643987120522000,4.24752197265625,0.0009426537435501814,0.0008136691758409142,-0.00020295917056500912
1772643987130563000,4.25756298828125,-0.000034804572351276875,-0.00021634087897837162,0.00025957124307751656
1772643987140604000,4.26760400390625,0.0007340500014834106,-0.0005740034393966198,-0.0002959640696644783
1772643987150645000,4.27764501953125,-0.0008232543477788568,0.0014142553554847836,0.0004677689867094159
1772643987160685000,4.28768505859375,-0.00015826302114874125,0.001924250740557909,-0.0010204054415225983
1772643987170726100,4.29772607421875,-0.0006144514190964401,0.00024509261129423976,0.0005833350587636232
1772643987180767000,4.30776708984375,0.0006052763783372939,0.0005130066419951618,-0.0001892480067908764
1772643987190808000,4.31780810546875,0.00035153666976839304,0.0010803384939208627,-0.0014348544646054506
1772643987200848000,4.327847900390625,0.0005603284807875752,-0.0014171740040183067,-0.00029795081354677677
1772643987210889000,4.337888916015625,-0.0002253934508189559,0.0007281901780515909,-0.0005529525224119425
1772643987220929800,4.3479296875,0.00009391957428306341,-0.00008620449807494879,-0.0013985061086714268
1772643987230971000,4.357970947265625,0.000017768354155123234,-0.00045613362453877926,-0.00109042227268219
1772643987241012000,4.368011962890625,-0.00017531076446175575,0.0005793034215457737,0.00037458259612321854
1772643987251051800,4.3780517578125,-0.00020496139768511057,-0.0009120287140831351,0.0000785409938544035
1772643987261092900,4.3880927734375,-0.0007373272674158216,-0.00031734490767121315,-0.00011666864156723022
1772643987271134000,4.398134033203125,-0.0017152135260403156,-0.0006051181117072701,-0.0006746323779225349
1772643987281174800,4.4081748046875,-0.00033329916186630726,-0.001136951264925301,0.0004548142896965146
1772643987291216000,4.4182158203125,-0.0000511202379129827,0.00029495201306417584,0.0007386378711089492
1772643987301256000,4.428255859375,-0.0009328928426839411,-0.0014203900936990976,-0.0005468700546771288
1772643987311297000,4.438297119140625,-0.00006686197593808174,-0.0002705127699300647,-0.0015709714498370886
1772643987321337900,4.448337890625,-0.001158757833763957,-0.0008622671011835337,-0.0012348804157227278
1772643987331379000,4.45837890625,0.0006077026482671499,0.00030256755417212844,-0.00007471488788723946
1772643987341419000,4.4684189453125,-0.0010716866236180067,-0.0005397902568802238,-0.0005815145559608936
1772643987351460000,4.478460205078125,0.0008359865169040859,-0.000591474468819797,0.00003768829628825188
1772643987361501000,4.4885009765625,0.00014116778038442135,-0.0010106561239808798,-0.0015106736682355404
1772643987371542000,4.4985419921875,0.0006198640330694616,-0.0005984161980450153,-0.00015275669284164906
1772643987381582800,4.508582763671875,0.0009594170842319727,0.0012572745326906443,-0.0010073650628328323
1772643987391623000,4.518622802734375,0.0001432512071914971,0.00012191088171675801,0.0002766659017652273
1772643987401664000,4.5286640625,-0.00032573146745562553,0.0006380315171554685,-0.00021335575729608536
1772643987411705000,4.538705078125,0.0018326269928365946,-0.00013854808639734983,0.00006767990998923779
1772643987421746000,4.548745849609375,0.0001559008378535509,0.0006862329319119453,-0.00027426984161138535
1772643987431786000,4.558785888671875,0.0004604780697263777,0.0011067725718021393,-0.0014402156230062246
1772643987441827000,4.5688271484375,-0.0006942685577087104,-0.00014784256927669048,0.00034543382935225964
1772643987451868200,4.5788681640625,-0.00002895435318350792,-0.0010333466343581676,-0.0016077144537121058
1772643987461909000,4.588908935546875,-0.000028688053134828806,-0.0005017797229811549,-0.00006547803059220314
1772643987471950000,4.5989501953125,-0.0012320110108703375,-0.00009439897257834673,0.0005580782890319824
1772643987481990000,4.608989990234375,-0.00004317588172852993,-0.000270433840341866,0.0003692602040246129
1772643987492031000,4.619031005859375,-0.0006855511455796659,-0.000668350956402719,0.0011019045487046242
1772643987502071800,4.62907177734375,-0.00010844407370314002,-0.0006137561285868287,-0.0012842877767980099
1772643987512113000,4.63911279296875,-0.0010205848375335336,-0.0006301176035776734,-0.0007593217305839062
1772643987522153000,4.649153076171875,-0.001033900654874742,-0.0001563412370160222,0.0023762842174619436
1772643987532193800,4.65919384765625,0.0005725412629544735,0.000056357006542384624,-0.0004483133088797331
1772643987542235000,4.66923486328125,-0.0001268048072233796,0.0004544996190816164,0.0002307926770299673
1772643987552276000,4.67927587890625,0.0015641101635992527,0.0005728036048822105,0.0001980452798306942
1772643987562316800,4.68931689453125,-0.002636760240420699,-0.00021709001157432795,0.0005615666741505265
1772643987572356900,4.69935693359375,-0.0019360494334250689,0.0011521968990564346,-0.0007011205889284611
1772643987582398000,4.70939794921875,-0.0009765126160345972,0.0006445983308367431,0.00026294379495084286
1772643987592439000,4.71943896484375,-0.0011860099621117115,-0.0004256663378328085,0.00007300754077732563
1772643987602479900,4.72947998046875,0.0007391893304884434,0.0012883441522717476,0.0007023124489933252
1772643987612520000,4.73952001953125,-0.00041430542478337884,0.00040349189657717943,-0.0005957596004009247
1772643987622561000,4.74956103515625,0.00028291012858971953,-0.0009808193426579237,0.00007029692642390728
1772643987632601900,4.759601806640625,0.0006844325107522309,-0.00008525094017386436,-0.0000062158796936273575
1772643987642643000,4.769642822265625,0.0010887003736570477,0.0007624331628903747,0.0002497138921171427
1772643987652684000,4.77968408203125,0.0006995862349867821,0.00011415238259360194,0.00021296879276633263
1772643987662724000,4.78972412109375,0.000017284357454627752,0.0010284155141562223,0.0005685007199645042
1772643987672765000,4.799764892578125,-0.0009152921847999096,-0.00006045284681022167,0.00025999220088124275
1772643987682806000,4.809805908203125,0.00005010369932278991,0.0012591434642672539,0.0006951527902856469
1772643987692847000,4.81984716796875,-0.00036866788286715746,0.00018615246517583728,-0.0008351721335202456
1772643987702887200,4.82988720703125,-0.000837384257465601,-0.001349692465737462,0.0009811038617044687
1772643987712928000,4.839927978515625,-0.00038581807166337967,-0.00014044390991330147,-0.001465754583477974
1772643987722969000,4.849968994140625,0.001204888103529811,0.00023000180954113603,0.00041390443220734596
1772643987733010200,4.86001025390625,0.0007722196751274168,-0.0007197950035333633,0.00041164527647197247
1772643987743051000,4.870051025390625,-0.0014539166586473584,-0.00011365953832864761,-0.000795033061876893
1772643987753090800,4.8800908203125,0.00010240229312330484,-0.00032778491731733084,0.00047457299660891294
1772643987763132000,4.8901318359375,0.0008307768730446696,-0.00031686597503721714,0.0003603233490139246
1772643987773172700,4.9001728515625,-0.00024555507116019726,0.0008417053031735122,-0.0004601494874805212
1772643987783213800,4.9102138671875,-0.0009358464740216732,-0.0003346129087731242,0.00009591854177415371
1772643987793254000,4.92025390625,-0.0002972650108858943,-0.00011587340850383043,-0.0005276796873658895
1772643987803295000,4.930294921875,0.0008369752904400229,-0.00004050601273775101,-0.0008137032855302095
1772643987813335800,4.940335693359375,0.0010956384940072894,0.00038407841930165887,0.0014733504503965378
1772643987823377000,4.950376953125,-0.0008711059344932437,0.000491403799969703,0.00008690869435667992
1772643987833418000,4.96041796875,0.000355523603502661,0.000025449437089264393,-0.0015205740928649902
1772643987843458000,4.9704580078125,0.0007771020173095167,0.0017210841178894043,0.0005961064016446471
1772643987853499000,4.980498779296875,-0.0011254308046773076,-0.0003102491609752178,0.0007033062865957618
1772643987863540000,4.9905400390625,0.0005795250181108713,0.0010769914370030165,0.00018585403449833393
1772643987873581000,5.0005810546875,-0.00035553809721022844,0.00032949174055829644,0.0007909988053143024
1772643987883620900,5.010620849609375,-0.00009002094157040119,-0.00047851132694631815,0.0004775447305291891
1772643987893662000,5.020661865234375,0.002366684377193451,0.0005935382796451449,-0.00001755775883793831
1772643987903703000,5.030703125,-0.00034441344905644655,-0.0000735835637897253,0.0002162677701562643
1772643987913744000,5.040743896484375,0.0005288225365802646,0.000494095089379698,0.0019083231454715133
1772643987923785000,5.050784912109375,0.0009280303493142128,-0.0009525339119136333,-0.000007554888725280762
1772643987933825000,5.060824951171875,0.000006267218850553036,0.00033082120353356004,-0.0013135937042534351
1772643987943866000,5.0708662109375,0.0013508971314877272,-0.0005940946284681559,0.00044542422983795404
1772643987953907000,5.080906982421875,-0.00027408101595938206,-0.00002288364339619875,0.0008947720052674413
1772643987963948000,5.090947998046875,0.0023765633814036846,0.0004980306839570403,-0.0006354802753776312
1772643987973988000,5.100988037109375,0.00012097752187401056,-0.0005660891765728593,-0.00006611715070903301
1772643987984029000,5.11102880859375,-0.0013498862972483039,-0.0003450468648225069,0.00084681436419487
1772643987994069200,5.1210693359375,-0.0007392307743430138,-0.0008427130524069071,-0.0005801343359053135
1772643988004110300,5.1311103515625,0.0006637225160375237,0.0017261721659451723,-0.00027946336194872856
1772643988014151400,5.1411513671875,0.001206901390105486,-0.0009274892508983612,0.0009259986691176891
1772643988024191500,5.15119140625,0.00021407497115433216,-0.0009756924118846655,0.0002447620499879122
1772643988034232300,5.161232421875,0.0017697135917842388,0.000015044235624372959,0.0016621163813397288
1772643988044273400,5.1712734375,0.0013468035031110048,-0.0002850940218195319,-0.0011850690934807062
1772643988054314500,5.181314453125,-0.00036847335286438465,-0.0006874974351376295,-0.00031343731097877026
1772643988064354300,5.191354248046875,0.00038813066203147173,0.0014928325545042753,0.0014066984876990318
1772643988074395400,5.2013955078125,0.0014680903404951096,0.00020751362899318337,0.00041637138929218054
1772643988084436500,5.2114365234375,0.00018364778952673078,-0.0007661380805075169,-0.0011684757191687822
1772643988094477300,5.221477294921875,0.0008639234001748264,0.00009303877595812082,-0.000988030806183815
1772643988104518400,5.231518310546875,-0.0009467598283663392,-0.0014156419783830643,-0.0014335776213556528
1772643988114558500,5.241558349609375,0.000012697360944002867,0.000028461101464927197,-0.00011290446855127811
1772643988124599600,5.251599609375,-0.0001798492157831788,0.0010449896799400449,-0.0015427556354552507
1772643988134640400,5.261640380859375,-0.00032701686723157763,0.0021937647834420204,-0.0004456357564777136
1772643988144681500,5.271681396484375,0.0011230743257328868,-0.00016446446534246206,-0.0003534904681146145
1772643988154721500,5.281721435546875,-0.00043641176307573915,-0.0011822378728538752,0.0006400258280336857
1772643988164762600,5.2917626953125,0.00015108153456822038,0.0005277778254821897,0.00006851158104836941
1772643988174803500,5.301803466796875,-0.00010496453614905477,0.0006760022370144725,-0.0008518232498317957
1772643988187354400,5.314354248046875,-0.0011939310934394598,0.000008081493433564901,0.0009436799446120858
1772643988197395200,5.324395263671875,-0.0006692831520922482,0.0005610196385532618,-0.00017374427989125252
1772643988207435300,5.334435302734375,0.00040104135405272245,0.0013234826037660241,-0.0014576541725546122
1772643988217476400,5.344476318359375,-0.0016003395430743694,0.00022016355069354177,-0.0020642755553126335
1772643988227517400,5.354517333984375,0.0004827850207220763,0.0005171060329303145,-0.0016259192489087582
1772643988237558300,5.364558349609375,0.0003734003403224051,0.0000018833670765161514,0.00011917552910745144
1772643988247598300,5.374598388671875,-0.0005150301731191576,-0.0010484674712643027,-0.0005878936499357224
1772643988257639400,5.384639404296875,-0.0001685935421846807,0.00023191969376057386,-0.0018199572805315256
1772643988267680500,5.394680419921875,-0.0006359783583320677,-0.0006999203469604254,-0.0005680052563548088
1772643988277721300,5.404721435546875,0.0003707244759425521,-0.00008519552648067474,0.0009010578505694866
1772643988287762400,5.414762451171875,0.00046739718527533114,0.00027779332594946027,0.0008978620171546936
1772643988297802500,5.424802490234375,-0.0004111769958399236,-0.00022428925149142742,-0.0007400435861200094
1772643988307843300,5.43484326171875,0.00013157521607354283,0.0009640132775530219,0.00030098622664809227
1772643988317884400,5.444884521484375,-0.0005570876528508961,-0.0003623495576903224,0.001062166877090931
1772643988327925500,5.454925537109375,-0.0006319225649349391,-0.0006742057157680392,-0.0000036300625652074814
1772643988337965600,5.464965576171875,0.0009369718027301133,0.0009451379883103073,-0.000776705564931035
1772643988348006400,5.47500634765625,-0.0014992880169302225,-0.0005851143505424261,0.00020466907881200314
1772643988358047500,5.485047607421875,0.00041310745291411877,0.0008067140588536859,0.0006022680317983031
1772643988368088600,5.495088623046875,0.00025598093634471297,0.00013453216524794698,0.0005916153313592076
1772643988378129400,5.50512939453125,-0.0006320304237306118,0.00048103881999850273,-0.00002046884037554264
1772643988388169200,5.515169189453125,0.0006604017107747495,0.0001273709931410849,0.000004298519343137741
1772643988398210300,5.525210205078125,-0.0014025098644196987,-0.0003794045769609511,0.0007619246607646346
1772643988408251400,5.53525146484375,-0.0007652155472896993,-0.00005316740134730935,-0.0017334572039544582
1772643988418292200,5.545292236328125,-0.0011443893890827894,-0.00014224625192582607,0.00014354148879647255
1772643988428332300,5.555332275390625,-0.00022320187417790294,0.00012886349577456713,-0.0016317218542099
1772643988438373400,5.565373291015625,-0.0005248069064691663,-0.00047146843280643225,-0.0006498415023088455
1772643988448414200,5.575414306640625,-0.00010562536772340536,0.00019991450244560838,-0.00019417447037994862
1772643988458455300,5.585455322265625,-0.000041496241465210915,0.0003378603723831475,0.00119123887270689
1772643988468496400,5.595496337890625,-0.00030967663042247295,0.000024938955903053284,0.000628512934781611
1772643988478536400,5.605536376953125,0.0008014586055651307,0.00017918308731168509,0.0006164998048916459
1772643988488577300,5.615577392578125,0.00013913045404478908,0.00023431051522493362,0.0004812112310901284
1772643988498618400,5.625618408203125,-0.0004655381781049073,-0.00019828922813758254,0.0002574510872364044
1772643988508659500,5.635659423828125,-0.000140366202685982,-0.0009596869931556284,-0.0008275208529084921
1772643988518700300,5.6457001953125,-0.0025015664286911488,0.0007370495004579425,-0.00009703543037176132
1772643988528740400,5.655740234375,-0.0011819700011983514,0.0008518317481502891,0.0007740844739601016
1772643988538781400,5.665781494140625,-2.4097971618175507e-8,-0.0003170425770804286,-0.0010054328013211489
1772643988548822500,5.675822509765625,-0.00024077389389276505,-0.00014633394312113523,-0.0009132872801274061
1772643988558863400,5.68586328125,-0.000979729345999658,-0.0005354817258194089,-0.00017007533460855484
1772643988568904400,5.695904541015625,-0.0002425664570182562,0.0005601426819339395,-0.0011245522182434797
1772643988578944500,5.705944580078125,0.00005242490442469716,-0.00009887362830340862,0.0002831981983035803
1772643988588985300,5.7159853515625,0.0008159531862474978,0.00021324888803064823,-0.0013692930806428194
1772643988599026400,5.7260263671875,0.0008864192641340196,0.00037099106702953577,0.0009345165453851223
1772643988609067500,5.736067626953125,0.00117590487934649,-0.00029586447635665536,-0.0006593854632228613
1772643988619107600,5.746107666015625,-0.00008806749247014523,-0.0004999771481379867,-0.000028559239581227303
1772643988629148400,5.7561484375,-0.00039965740870684385,-0.0008203553734347224,0.0008513490902259946
1772643988639189500,5.766189453125,0.00023517967201769352,0.0004531596787273884,0.0010223645949736238
1772643988649230600,5.776230712890625,-0.00034512311685830355,0.0007415800355374813,0.0006782842101529241
1772643988659271400,5.786271484375,-0.0010056509636342525,0.000025989138521254063,0.000315710436552763
1772643988669311200,5.796311279296875,-0.0007180296233855188,-0.0005114367231726646,-0.001795110758394003
1772643988679352300,5.806352294921875,0.0003605909296311438,-0.0004338446306064725,0.0006534511921927333
1772643988689393400,5.816393310546875,0.000010651536285877228,-0.00044556253124028444,-0.0000019527506083250046
1772643988699434200,5.826434326171875,-0.00043997186003252864,0.0003546638763509691,0.0006095144199207425
1772643988709474300,5.836474365234375,-0.0006777921807952225,0.0005496072117239237,0.00009152968414127827
1772643988719515400,5.846515380859375,0.0000862054293975234,0.00009500345913693309,0.0007775928825139999
1772643988729556200,5.85655615234375,0.00045984695316292346,-0.0005580036668106914,0.00029502809047698975
1772643988739597300,5.866597412109375,-0.0007160902605392039,0.0005798561032861471,-0.001018511364236474
1772643988749638400,5.876638427734375,-0.0006609628326259553,-0.001509393798187375,-0.00008480716496706009
1772643988759678500,5.886678466796875,-0.00045685528311878443,-0.0003726586000993848,-0.0002101580612361431
1772643988769719300,5.89671923828125,-0.00301269069314003,0.0006169721018522978,-0.00028845504857599735
1772643988779760400,5.906760498046875,-0.0009111269027926028,-0.0002680077450349927,-0.0008201540913432837
1772643988789801500,5.916801513671875,0.0007264508749358356,0.0000981768243946135,0.0007063697557896376
1772643988799841300,5.92684130859375,-0.0015777315711602569,0.0011265091598033905,-0.00028311251662671566
1772643988809882400,5.93688232421875,-0.00028822908643633127,0.0002564543974585831,-0.00015075341798365116
1772643988819923500,5.94692333984375,-0.000029257615096867085,-0.0008877660147845745,0.0013062800280749798
1772643988829964300,5.95696435546875,-0.00011021771933883429,0.0023272018879652023,0.00002929428592324257
1772643988840005400,5.96700537109375,-0.00025372952222824097,0.00019643723499029875,0.0021723881363868713
1772643988850045400,5.97704541015625,-0.0018364462302997708,-0.0008121018763631582,-0.0005139422137290239
1772643988860086500,5.98708642578125,-0.0013678569812327623,-0.0007258980767801404,-0.000623451778665185
1772643988870127400,5.99712744140625,0.0009381740819662809,-0.000031345756724476814,-0.0005438232328742743
1772643988880168400,6.00716845703125,-0.00014060159446671605,0.0003508583176881075,0.000022225314751267433
1772643988890208500,6.01720849609375,0.00005593965761363506,-0.00012744544073939323,-0.000026510562747716904
1772643988900249600,6.02724951171875,-0.000024255597963929176,0.0007996838539838791,0.0003906718920916319
1772643988910290400,6.03729052734375,0.0007768232608214021,-0.00035000278148800135,0.00022608856670558453
1772643988920331500,6.04733154296875,0.00003241572994738817,0.000898372964002192,-0.00009038043208420277
1772643988930372400,6.057372314453125,-0.00006718642544001341,-0.0012611844576895237,0.0007479825289919972
1772643988940412200,6.067412109375,-0.00010362209286540747,0.0002112601650878787,0.000871732016094029
1772643988950453200,6.077453369140625,0.00048307227552868426,0.000009925221092998981,0.0006775875808671117
1772643988960494300,6.087494384765625,-0.00044464058009907603,-0.0002712211571633816,0.0008853659965097904
1772643988970535200,6.09753515625,-0.0006936462013982236,-0.0008834819309413433,-0.0005255767609924078
1772643988980575200,6.1075751953125,-0.00007007049862295389,-0.0005268264794722199,0.0005252640694379807
1772643988990617000,6.1176171875,-0.0007467797258868814,0.00046813045628368855,0.00012845313176512718
1772643989000658000,6.127657958984375,-0.0005425639101304114,-0.00042376434430480003,-0.0006005405448377132
1772643989010699000,6.137698974609375,0.00017728854436427355,-0.000058644916862249374,0.0007704548770561814
1772643989020740000,6.147739990234375,-0.00031725672306492925,-0.0010327004129067063,0.0010870066471397877
1772643989030780200,6.1577802734375,-0.00009541533654555678,-0.00036211637780070305,0.00010509905405342579
1772643989040821000,6.167821044921875,0.0011523737339302897,-0.00001813506241887808,-0.0004615588113665581
1772643989050862000,6.177862060546875,0.0014775458257645369,-0.00014570041093975306,0.00047640642151236534
1772643989060903200,6.187903076171875,-0.00032129918690770864,-0.0006486300844699144,0.00010336516425013542
1772643989070943000,6.19794287109375,-0.0005695057334378362,-0.00018683797679841518,0.0005233457777649164
1772643989080983800,6.20798388671875,-0.0007689234334975481,0.0010389401577413082,-0.0006201595533639193
1772643989091025000,6.21802490234375,-0.0005585337057709694,0.0007268176414072514,-0.00092509132809937
1772643989101066000,6.22806591796875,-0.00042096374090760946,-0.0002612977987155318,0.0008768545230850577
1772643989111106800,6.23810693359375,0.0004584120470099151,-0.0002003114204853773,-0.0004802923649549484
1772643989121147000,6.24814697265625,0.00002892885822802782,-0.0006079194135963917,0.00010989559814333916
1772643989131188000,6.25818798828125,-0.000604370841756463,-0.00039273605216294527,-0.0006043640896677971
1772643989141228800,6.268228759765625,-0.0000971317058429122,0.000018801423721015453,-0.0005265905056148767
1772643989151270000,6.278269775390625,0.0006464228499680758,0.000936793047003448,-0.0007247296161949635
1772643989161310000,6.28831005859375,0.00003310735337436199,0.0005540348356589675,-0.00023194029927253723
1772643989171351000,6.29835107421875,-0.0002875372301787138,-0.00014744175132364035,-0.00038693612441420555
1772643989181392000,6.308391845703125,0.00011924759019166231,-0.00045428762678056955,-0.0001108280848711729
1772643989191433000,6.318432861328125,0.0004883617511950433,-0.0009592229034751654,0.00111715542152524
1772643989201474000,6.32847412109375,-0.00007603352423757315,-0.000011994619853794575,0.000010071322321891785
1772643989211514000,6.33851416015625,0.0008797749760560691,0.0007102547097019851,-0.0008274929132312536
1772643989221555000,6.348554931640625,0.0007966770208440721,-0.00007228832691907883,0.00022438098676502705
1772643989231596000,6.358595947265625,-0.0008867071010172367,0.00024036673130467534,-0.00024353619664907455
1772643989241636900,6.368636962890625,0.000010568764992058277,0.00016471819253638387,-0.0012833049986511469
1772643989251677000,6.378677001953125,0.0012912829406559467,0.00008002965478226542,0.0008168637286871672
1772643989261718000,6.388718017578125,0.001308982726186514,0.0004503945237956941,0.0004545454867184162
1772643989271759000,6.398759033203125,0.000663432409055531,0.0001965952687896788,0.00011845468543469906
1772643989281800000,6.408800048828125,0.00007260782876983285,0.00046003510942682624,0.0005931863561272621
1772643989291841000,6.418841064453125,-0.000786794233135879,-0.0016329431673511863,-0.00007047341205179691
1772643989301881000,6.428881103515625,0.0004079749924130738,0.00004309532232582569,0.0004777754656970501
1772643989311922200,6.438922119140625,0.0015286331763491035,-0.0009907438652589917,-0.0004780329763889313
1772643989321963000,6.448962890625,-0.00045176828280091286,0.000614538905210793,-0.0010658793617039919
1772643989332004000,6.459004150390625,-0.0006451137596741319,0.000483777723275125,0.00015251687727868557
1772643989342044000,6.4690439453125,-0.00010925950482487679,0.0008033588528633118,0.0012476807460188866
1772643989352085000,6.4790849609375,-0.00047091685701161623,0.00013490545097738504,0.001326776691712439
1772643989362125800,6.489125732421875,0.0004722686717286706,-0.0019326471956446767,-0.0005684182979166508
1772643989372167000,6.4991669921875,0.00014496617950499058,-0.00005192274693399668,0.0005445167189463973
1772643989382207000,6.50920703125,-0.00024824426509439945,0.0007077334448695183,-0.00038373423740267754
1772643989392247800,6.519247802734375,-0.00038086960557848215,-0.0007186556467786431,0.0010290727950632572
1772643989402289000,6.529288818359375,0.0015950906090438366,0.0013008191017434,0.0013079193886369467
1772643989412330000,6.539330078125,0.0004225007724016905,-0.0006856326945126057,0.0009177662432193756
1772643989422370800,6.549370849609375,-0.0010748552158474922,-0.00040943047497421503,0.0009847633773460984
1772643989432411000,6.559410888671875,-0.000851149670779705,0.0007351961685344577,0.00017383089289069176
1772643989442452000,6.569451904296875,-0.0005647066282108426,-0.0007198890671133995,0.00020847748965024948
1772643989452493000,6.5794931640625,-0.0001724229659885168,0.0012260826770216227,-0.00013293977826833725
1772643989462534000,6.589533935546875,0.00112779694609344,0.0007548012072220445,-0.00008632522076368332
1772643989472574000,6.599573974609375,0.0004801162285730243,0.0008301686611957848,0.0007027694955468178
1772643989482615000,6.609614990234375,-0.0006898589199408889,0.00026124081341549754,-0.00025987764820456505
1772643989492655900,6.61965576171875,0.0008225502679124475,0.00012328906450420618,0.0009966017678380013
1772643989502697000,6.629697021484375,-0.00028249010210856795,0.0007863380014896393,-0.0004575815983116627
1772643989512738000,6.639738037109375,0.0009148670360445976,0.0005823398241773248,0.0003301813267171383
1772643989522778000,6.649778076171875,0.0003488175570964813,0.00032098620431497693,-0.0007471947465091944
1772643989532819000,6.65981884765625,-0.0000919356825761497,0.00023762928321957588,0.00010767998173832893
1772643989542860000,6.669860107421875,-0.0013596469070762396,0.0013227085582911968,0.0004609141033142805
1772643989552901000,6.679901123046875,0.00045023742131888866,0.0005322822835296392,0.0009328261949121952
1772643989562941200,6.689941162109375,-0.0005365111283026636,0.00012186466483399272,-0.000577996950596571
1772643989572982000,6.69998193359375,0.0006272903410717845,-0.0001913231099024415,-0.0014299422036856413
1772643989583023000,6.710023193359375,0.0009780596010386944,-0.000024714856408536434,0.00010634330101311207
1772643989593064200,6.720064208984375,0.00016606179997324944,0.0016860998002812266,0.000677591422572732
1772643989603105000,6.73010498046875,-0.0005663742776960135,-0.0007760814623907208,-0.0007411467377096415
1772643989613144800,6.740144775390625,0.00024961831513792276,0.0008503110148012638,-0.00020478595979511738
1772643989623186000,6.75018603515625,0.0003454037359915674,-0.0006254150066524744,0.0006320083048194647
1772643989633226800,6.760226806640625,0.0004079880309291184,-0.0008547131437808275,0.00029059103690087795
1772643989643267800,6.770267822265625,-0.0009642695658840239,0.00019481847994029522,0.00011787470430135727
1772643989653308000,6.780307861328125,0.002213680651038885,0.0007684633601456881,0.0002821916714310646
1772643989663349000,6.790348876953125,-0.0003434317768551409,0.0011200611479580402,0.0000011397060006856918
1772643989673389800,6.800389892578125,-0.00014076527440920472,0.0003895560512319207,-0.000011643394827842712
1772643989683431000,6.810430908203125,-0.0007321046432480216,0.0009926141938194633,-0.0004295995458960533
1772643989693472000,6.820471923828125,-0.0002506051678210497,-0.0002052757190540433,0.00036242464557290077
1772643989703512000,6.830511962890625,0.000370715803001076,0.00036289182025939226,0.0003821949940174818
1772643989713553000,6.840552978515625,0.0005568707711063325,0.001034807413816452,-0.0017142454162240028
1772643989723594000,6.850593994140625,-0.0005314474692568183,-0.0006262826500460505,0.00021262490190565586
1772643989733635000,6.860635009765625,-0.00009042792953550816,0.0002677405718713999,-0.00007686065509915352
1772643989743675000,6.8706748046875,-0.0004896456375718117,0.0008446298888884485,-0.0008744795341044664
1772643989753716000,6.880716064453125,0.00017374783055856824,0.0007679308764636517,0.0012906703632324934
1772643989763757000,6.890757080078125,-0.0016735412646085024,-0.0001859801122918725,-0.00013329391367733479
1772643989773798000,6.9007978515625,0.000687351159285754,-0.0007156828651204705,0.0005266373045742512
1772643989783839000,6.9108388671875,0.0006245937547646463,-0.0004127237480133772,0.0006038498831912875
1772643989793879000,6.920879150390625,-0.00024066731566563249,0.0001428116811439395,-0.0012110944371670485
1772643989803920100,6.930920166015625,0.0014035124331712723,0.0008043617708608508,0.00033231894485652447
1772643989813961000,6.9409609375,0.0008884570561349392,-0.0012814260553568602,0.0003107474185526371
1772643989824002000,6.951001953125,-0.0009606261737644672,0.0017056406941264868,-0.0006429208442568779
1772643989834042000,6.9610419921875,-0.0008064290741458535,0.0014550371561199427,-0.0002506372984498739
1772643989844083000,6.9710830078125,-0.0014183991588652134,0.00006321800174191594,0.00048144138418138027
1772643989854124000,6.9811240234375,0.00024367962032556534,0.0009436590480618179,-0.00016304361633956432
1772643989864165000,6.9911650390625,-0.0005997037515044212,0.0013177049113437533,0.0015666719991713762
1772643989874206000,7.0012060546875,-0.000720611191354692,-0.00006953568663448095,0.0004558674991130829
1772643989884245800,7.011245849609375,-0.0007839622558094561,0.0007958246278576553,0.0002524119336158037
1772643989894286800,7.021286865234375,-0.00006197934271767735,-0.0009357627131976187,0.00000447174534201622
1772643989904328000,7.031327880859375,0.0007316896226257086,0.000450802908744663,-0.0008485305588692427
1772643989914368800,7.04136865234375,-0.0011237346334382892,0.0002470710896886885,0.00022445712238550186
1772643989924408800,7.051408935546875,-0.0003467126516625285,0.0008314398000948131,-0.0013248727191239595
1772643989934450000,7.061449951171875,-0.0002345935208722949,0.00037923507625237107,0.0011497365776449442
1772643989944491000,7.071490966796875,-0.00045684375800192356,0.0008812132873572409,0.00036554469261318445
1772643989954531800,7.08153173828125,0.0003860466822516173,-0.00046661245869472623,-0.000683474587276578
1772643989964573000,7.091572998046875,0.0001333756954409182,0.00032412668224424124,0.00026165484450757504
1772643989974613000,7.101613037109375,-0.0004802165785804391,0.0007792609394527972,0.000023568281903862953
1772643989984653800,7.11165380859375,-0.00033027067547664046,0.0004145640996284783,0.00009564729407429695
1772643989994695000,7.12169482421875,-0.0024046069011092186,-0.00005601643351837993,-0.0005999703425914049
1772643990004736000,7.131736083984375,-0.0004622838459908962,-0.0006950512761250138,-0.0008563511073589325
1772643990014776000,7.141776123046875,-0.0009906550403684378,-0.0003158171894028783,0.0009434132371097803
1772643990024817000,7.15181689453125,-0.00030070613138377666,0.00015864410670474172,0.0009385764133185148
1772643990034858000,7.16185791015625,0.0015728278085589409,0.0006390783237293363,0.0008549531921744347
1772643990044899000,7.171899169921875,0.00025677599478513,0.0007384126074612141,0.00013943552039563656
1772643990054940000,7.18193994140625,-0.0005216660210862756,-0.000642170081846416,0.00008271029219031334
1772643990064980000,7.19197998046875,0.0004183852288406342,0.0004203508433420211,-0.0008999577257782221
1772643990075021000,7.20202099609375,0.0010892355348914862,-0.00043292593909427524,-0.0005822426173835993
1772643990085062100,7.212062255859375,-0.00034004938788712025,0.001560726435855031,0.0006469341460615396
1772643990095103000,7.22210302734375,-0.00027267145924270153,0.0003122364869341254,-0.000022318214178085327
1772643990105143000,7.23214306640625,0.0020087123848497868,0.0008465563296340406,-0.00014659599401056767
1772643990115184000,7.24218408203125,-0.00036070216447114944,0.0012814505025744438,0.0002859013620764017
1772643990125225000,7.252224853515625,0.0004492160805966705,0.0008683314663358033,0.0006676983321085572
1772643990135266000,7.26226611328125,0.0019967788830399513,-0.0008776369504630566,-0.0007024980150163174
1772643990145307100,7.27230712890625,-0.0007081851363182068,0.0007869867840781808,-0.0012758644297719002
1772643990155347000,7.282346923828125,0.0001416295999661088,0.0008841921808198094,-0.00033070845529437065
1772643990165387800,7.2923876953125,0.000022744585294276476,-0.0006682351813651621,0.00029909471049904823
1772643990175428900,7.302428955078125,-0.001823625061661005,-0.00014971772907301784,-0.0005070441402494907
1772643990185470000,7.312469970703125,-0.0009402967407368124,0.000024170440156012774,-0.0006066474597901106
1772643990195510000,7.322510009765625,0.0002765015233308077,0.00011897896183654666,-0.0008290214464068413
1772643990205550800,7.33255078125,0.0005918592214584351,-0.0009350126492790878,0.0013116546906530857
1772643990215592000,7.342592041015625,0.00006268912693485618,0.0003350488841533661,0.00041523471008986235
1772643990225633000,7.352633056640625,-0.000606399611569941,0.00039528441266156733,-0.0005618587601929903
1772643990235672800,7.3626728515625,-0.0005414185579866171,-0.0004808956291526556,-0.00006145075894892216
1772643990245714000,7.3727138671875,-0.00047891098074615,0.000024429289624094963,0.00034138746559619904
1772643990255755000,7.382755126953125,0.0003922090108972043,-0.000763866410125047,0.00026575359515845776
1772643990265795800,7.3927958984375,-0.0010565437842160463,-0.001474602846428752,0.00006866408511996269
1772643990275837000,7.4028369140625,-0.0011747879907488823,0.0002434024354442954,-0.0011547922622412443
1772643990285877000,7.412876953125,0.0002489178441464901,-0.00027068855706602335,0.0004819449968636036
1772643990295918000,7.42291796875,0.00005051237531006336,0.0008576927939429879,0.00017434987239539623
1772643990305959000,7.432958984375,0.0009663498494774103,-0.0015029958449304104,-0.0005322154611349106
1772643990316000000,7.443,-0.0004808118101209402,0.0005287298699840903,0.00023157917894423008
1772643990326041000,7.453041015625,0.00006293714977800846,-0.00009827647591009736,0.0001212668139487505
1772643990336081200,7.4630810546875,0.00008930242620408535,-0.00032198202097788453,0.000384387094527483
1772643990346122000,7.4731220703125,-0.001449425588361919,-0.0016046029049903154,-0.0008678410667926073
1772643990356163000,7.4831630859375,-0.001161537948064506,-0.0010922106448560953,-0.000676359748467803
1772643990366204000,7.493203857421875,-0.0004612560151144862,-0.0009900536388158798,0.0015800183173269033
1772643990376244000,7.503243896484375,0.0003294365596957505,0.000529546057805419,0.0023398182820528746
1772643990386285000,7.51328515625,-0.0005035887006670237,-0.0003705957205966115,0.0005060649709776044
1772643990396326100,7.523326171875,0.0000034771510399878025,-0.0008164088940247893,-0.0019003674387931824
1772643990406367000,7.533366943359375,-0.00013221113476902246,-0.0004525702679529786,-0.00025344686582684517
1772643990416406800,7.54340673828125,0.000035834324080497026,0.00003212509909644723,-0.000999664654955268
1772643990426448000,7.55344775390625,0.00034385640174150467,0.00008954876102507114,0.000835842452943325
1772643990436489000,7.563489013671875,-0.0012061032466590405,-0.0009914282709360123,0.000038492027670145035
1772643990446529800,7.57352978515625,0.0008629239746369421,0.00034922058694064617,-0.00029551400803029537
1772643990456571000,7.58357080078125,-0.0005850367597304285,-0.0001844768994487822,0.0006895891856402159
1772643990466611000,7.59361083984375,-0.0001304997131228447,0.0001499825157225132,-0.00004563387483358383
1772643990476652000,7.603652099609375,-0.0011470282915979624,-0.0008609534124843776,0.0005208203801885247
1772643990486692900,7.61369287109375,0.0002543074660934508,-0.0019527452532202005,0.0004325665067881346
1772643990496734000,7.62373388671875,-0.00008524552686139941,-0.0005591130466200411,-0.0008968834299594164
1772643990506774000,7.63377392578125,-0.00027932244120165706,-0.00016428559320047498,-0.0006919587031006813
1772643990516814800,7.64381494140625,-0.00035362463677302003,-0.0010114372707903385,-0.001588911283761263
1772643990526856000,7.65385595703125,0.00014683499466627836,-0.00016677705571055412,-0.000035297591239213943
1772643990536897000,7.66389697265625,0.0015862735453993082,-0.0001196390949189663,0.00010105641558766365
1772643990546937900,7.673937744140625,0.0004824083880521357,-0.0010587801225483418,0.0002767790574580431
1772643990556978000,7.68397802734375,0.0005705590010620654,0.0003452383098192513,-0.0008524011354893446
1772643990567019000,7.69401904296875,-0.0012384324800223112,0.0008487002924084663,-0.00016173766925930977
1772643990577060000,7.70406005859375,-0.0003966073854826391,0.00010035204468294978,-0.0002935640513896942
1772643990587101000,7.714100830078125,0.0001270320499315858,-0.0008387103443965316,-0.0009360769763588905
1772643990597141000,7.72414111328125,-0.000019708124455064535,0.0005613134708255529,-0.0009608443360775709
1772643990607182000,7.73418212890625,0.0006115667056292295,-0.0006324001587927341,0.0006864407332614064
1772643990617223000,7.744222900390625,-0.0009314688504673541,-0.0003807314205914736,0.0007631398038938642
1772643990627264000,7.754263916015625,0.0012902765301987529,-0.0001964473631232977,0.0006389298941940069
1772643990637305000,7.76430517578125,0.00027428061002865434,-0.0005850025918334723,0.0009816787205636501
1772643990647345200,7.77434521484375,-0.0006027631461620331,0.00008959457045421004,-0.00000716187059879303
1772643990657386000,7.784385986328125,0.0000728807644918561,-0.0005785925313830376,-0.0002050346229225397
1772643990667427000,7.794427001953125,0.0001783965271897614,-0.0008077839738689363,-0.0006826017051935196
1772643990677468200,7.80446826171875,-0.0006597002502530813,-0.00017688103253021836,0.00025776028633117676
1772643990687508000,7.814508056640625,0.0007204588619060814,-0.0007862071506679058,-0.000791528495028615
1772643990697548800,7.824548828125,-0.0002763623488135636,-0.00036516133695840836,-0.0003262741956859827
1772643990707590000,7.83458984375,0.0002781319199129939,-0.0009888105560094118,-0.0001035470049828291
1772643990717631000,7.844630859375,-0.00032986776204779744,0.0004618132661562413,-0.0009874501265585423
1772643990727671800,7.854671875,-0.0006911743548698723,-0.00008404720574617386,0.0006878894055262208
1772643990737711900,7.8647119140625,0.00010351295350119472,0.0006597737083211541,0.0012575396103784442
1772643990747753000,7.8747529296875,-0.000964083825238049,-0.0002464322024025023,0.0009132204577326775
1772643990757793800,7.884793701171875,-0.00018031545914709568,-0.0018760205712169409,0.000012006610631942749
1772643990767835000,7.8948349609375,-0.0001128495205193758,-0.0008949976181611419,0.0005851235473528504
1772643990777875000,7.904875,-0.0006747765000909567,-0.0003525116480886936,-0.0006098367739468813
1772643990787916000,7.914916015625,0.0012412205105647445,-0.0004870382836088538,-0.000889255665242672
1772643990797956900,7.924956787109375,-0.0007958313217386603,0.00028447952354326844,-0.0002247970551252365
1772643990807998000,7.934998046875,0.0008268945384770632,0.00043775851372629404,-0.0005492002237588167
1772643990818039000,7.9450390625,-0.0007182714762166142,-0.000579568964894861,-0.00034120725467801094
1772643990828079000,7.9550791015625,0.00017174729146063328,-0.0004740309086628258,0.0005999755812808871
1772643990838120000,7.965119873046875,0.0007754859398119152,-0.00037469499511644244,-0.00037127919495105743
1772643990848161000,7.9751611328125,-0.00001027504913508892,0.0004391172551549971,0.00048802909441292286
1772643990858201900,7.985201904296875,0.0004680286510847509,-0.0002413204638287425,-0.0006813649088144302
1772643990868242000,7.995241943359375,-0.000580343883484602,0.0005570516223087907,0.0011425334960222244
1772643990878283000,8.005282958984376,-0.0014429416041821241,-0.000004076457116752863,0.0003667545970529318
1772643990888324000,8.015323974609375,-0.00014362973161041737,-0.0004566524876281619,-0.0007637985982000828
1772643990898365000,8.025364990234374,0.0006790207698941231,0.0013881191844120622,0.00006817304529249668
1772643990908406000,8.035406005859375,-0.0005859725642949343,0.00042811332968994975,0.0002849483862519264
1772643990918446000,8.045446044921874,0.0003293559420853853,-0.00011517154052853584,-0.0005411643069237471
1772643990928487200,8.055487060546875,0.0011899956734851003,0.00016441050684079528,-0.00032277777791023254
1772643990938528000,8.065528076171875,0.000042705913074314594,0.0006134194554761052,-0.000978980679064989
1772643990948569000,8.075569091796876,0.0004595841746777296,0.0014396265614777803,-0.00025077746249735355
1772643990958609000,8.08560888671875,0.00024519971339032054,0.0013349642977118492,-0.001215640688315034
1772643990968650000,8.09564990234375,-0.0002725801896303892,0.0004848206299357116,0.0007521783700212836
1772643990978690800,8.10569091796875,0.0010470161214470863,0.00024513615062460303,0.0006712182657793164
1772643990988732000,8.11573193359375,0.0016402937471866608,0.0007874504663050175,-0.0008030033204704523
1772643990998772700,8.125772705078125,-0.0009272596798837185,-0.0006357427919283509,0.00009554717689752579
1772643991008812800,8.135812744140624,-0.00010385492350906134,0.0006084778578951955,0.00029175495728850365
1772643991018854000,8.14585400390625,-0.0006684450199827552,0.00012351619079709053,-0.000733562046661973
1772643991028895000,8.15589501953125,0.00016426685033366084,-0.0008890375029295683,0.0007674270309507847
1772643991038935800,8.165935791015626,0.0009645467507652938,-0.00016838614828884602,0.0005216172430664301
1772643991048976000,8.175975830078125,-0.00018865603487938643,0.0003379287081770599,-0.00010554748587310314
1772643991059017000,8.186016845703126,-0.00196738145314157,0.0004926583496853709,-0.0005721333436667919
1772643991069058000,8.19605810546875,-0.0012806225568056107,-0.0011237565195187926,-0.0011902013793587685
1772643991079099000,8.206098876953124,-0.00022441300097852945,0.00022619985975325108,0.00012513389810919762
1772643991089140000,8.216139892578125,-0.0007893063593655825,-0.00007348868530243635,-0.0013136712368577719
1772643991099180000,8.226179931640624,-0.00012378243263810873,-0.00007402128539979458,0.0009332377230748534
1772643991109220900,8.236220947265625,-0.0008193921530619264,0.00016716087702661753,0.00017148233018815517
1772643991119262000,8.246261962890625,0.00102005316875875,-0.000619536847807467,0.0008503221906721592
1772643991129303000,8.256302978515626,-0.000614536227658391,0.0016682760324329138,-0.0005538284312933683
1772643991139343000,8.266343017578125,0.0005551241338253021,0.001211544033139944,-0.000025457236915826797
1772643991149384000,8.276384033203126,0.0006101729813963175,-0.000235650222748518,-0.000333260977640748
1772643991159425000,8.286425048828125,0.0007467931718565524,0.0006839392590336502,0.0019381489837542176
1772643991169466000,8.296466064453124,0.0006514344131574035,0.000635855714790523,0.0005582103040069342
1772643991179507000,8.3065068359375,-0.00016296026296913624,-0.0005588383646681905,-0.0002412707544863224
1772643991189547000,8.316547119140624,0.0009507518261671066,0.0012851578649133444,-0.0007920251227915287
1772643991199588000,8.326588134765625,0.0004532733582891524,0.0009253647876903415,0.0005701817572116852
1772643991209629200,8.336629150390625,0.0007834490388631821,-0.0006628889823332429,-0.000620667589828372
1772643991219670000,8.346669921875,-0.0015454852255061269,-0.00018538418225944042,-0.0003506231587380171
1772643991229709800,8.356709716796875,0.0006950577371753752,-0.00002952862996608019,-0.0007594965863972902
1772643991239751000,8.3667509765625,-0.0005233384435996413,-0.0002710772678256035,0.0007867347449064255
1772643991249791700,8.376791748046875,0.0001708882045932114,-0.0015328786103054881,0.0002884678542613983
1772643991259832800,8.386832763671874,0.0009354817448183894,0.0011478593805804849,0.001807801192626357
1772643991269873000,8.396872802734375,0.0005078427493572235,0.0006377752870321274,0.0006069879746064544
1772643991279914000,8.4069140625,-0.00041787198279052973,0.001053494750522077,-0.00003723078407347202
1772643991289954800,8.416954833984375,-0.0009336029179394245,0.0010260678827762604,0.0005399712827056646
1772643991299996000,8.426995849609375,0.0009093045373447239,0.00006732984911650419,0.0005562165752053261
1772643991310037000,8.437037109375,0.0012022927403450012,-0.0005617187125608325,0.0005578214768320322
1772643991320077000,8.4470771484375,0.0001591324689798057,0.0001623947755433619,-0.00010344129987061024
1772643991330118000,8.457117919921876,-0.0009987795492634177,0.00024561514146625996,0.0017249848460778594
1772643991340159000,8.467158935546875,-0.00024723552633076906,-0.00011391163570806384,-0.0009773247875273228
1772643991350200000,8.477199951171874,-0.0005894940113648772,0.0004063727683387697,0.0008876037318259478
1772643991360241000,8.487240966796875,0.0014140020357444882,0.00045617384603247046,0.00038133678026497364
1772643991370281000,8.497281005859374,0.0006034931866452098,-0.001825288636609912,-0.0003167698159813881
1772643991380322000,8.507322021484375,-0.0009576518787071109,-0.0010678854305297136,-0.0008494020439684391
1772643991390363000,8.51736279296875,0.0005549942725338042,-0.00021184573415666819,-0.001507636159658432
1772643991400404000,8.527404052734376,0.0006487375358119607,-0.0010845636716112494,-0.0008969735354185104
1772643991410444000,8.537444091796875,-0.0005867736181244254,0.0000023726606741547585,-0.00037646316923201084
1772643991420485000,8.547485107421876,-0.0004011513665318489,-0.0001358453300781548,-0.00010402174666523933
1772643991430526000,8.55752587890625,0.00016439094906672835,0.0004255038220435381,0.00036457832902669907
1772643991440567000,8.567567138671874,0.0004751818487420678,0.00032190687488764524,0.0002825530245900154
1772643991450607000,8.577607177734375,-0.00021461467258632183,-0.00003450497752055526,0.0007401121547445655
1772643991460648000,8.58764794921875,-0.0007760090520605445,0.000024883542209863663,0.0010650177719071507
1772643991470689000,8.59768896484375,-0.0003535198047757149,0.0009729980956763029,0.002344465348869562
1772643991480730000,8.607730224609375,-0.000134075409732759,-0.00018920534057542682,-0.00013733445666730404
1772643991490771000,8.61777099609375,0.0005741294007748365,0.0005863949190825224,0.00043477280996739864
1772643991500810800,8.627810791015625,0.000977598363533616,0.0006484466139227152,0.00018416927196085453
1772643991510851800,8.637851806640626,0.00040793203515931964,-0.0008800317300483584,0.0005114523228257895
1772643991520893000,8.647892822265625,0.0007727851043455303,-0.0007649831240996718,0.00015352340415120125
1772643991530933800,8.657933837890624,-0.0009236162295565009,0.00017878884682431817,-0.0007498131599277258
1772643991540973800,8.667973876953125,-0.00024397752713412046,-0.00008166825864464045,0.00024221418425440788
1772643991551015000,8.678014892578124,0.000745900790207088,-0.0014540962874889374,0.0005565840983763337
1772643991561056000,8.688055908203125,-0.00019526027608662844,0.000413578498410061,-0.0008141449652612209
1772643991571096800,8.698096923828125,-0.0007076897891238332,0.000552752404473722,0.0002195287961512804
1772643991581138000,8.708137939453126,0.0004515842301771045,0.0005229250527918339,0.00030554900877177715
1772643991591178000,8.718177978515625,-0.0012232372537255287,-0.0000239246292039752,-0.00023583602160215378
1772643991601218800,8.72821875,0.002015432808548212,0.0006748888408765197,-0.0009815210942178965
1772643991611260000,8.738260009765625,-0.0000276429345831275,0.0007540887454524636,0.00007875938899815083
1772643991621301000,8.748301025390624,0.00021284044487401843,-0.000143130193464458,-0.000921257771551609
1772643991631341000,8.758341064453125,-0.00026546826120465994,-0.0005080282571725547,0.00011131493374705315
1772643991641382000,8.7683818359375,0.000299388135317713,0.0017157112015411258,-0.00022024870850145817
1772643991651423000,8.778423095703126,0.00013981503434479237,-0.00002029287861660123,-0.000028325244784355164
1772643991661464000,8.788464111328125,0.001400289125740528,0.0004713266680482775,0.00011548562906682491
1772643991671505000,8.7985048828125,0.0004606189322657883,0.0018129912205040455,0.001046115648932755
1772643991681545000,8.808544921875,-0.00032474729232490063,-0.000056015211157500744,0.00028391904197633266
1772643991691586000,8.8185859375,0.00008652644464746118,-0.0005870914319530129,-0.00017483113333582878
1772643991701627100,8.828627197265625,0.00008359696948900819,-0.00021957512944936752,0.00041772215627133846
1772643991711668000,8.83866796875,0.0004530390724539757,0.0002182693569920957,-0.0013262019492685795
1772643991721708000,8.8487080078125,0.0005055033252574503,-0.0007657686364836991,0.00039127073250710964
1772643991731749000,8.8587490234375,0.0009043073514476418,0.0006213684100657701,0.00010459613986313343
1772643991741790000,8.8687900390625,-0.0011026507709175348,0.00024746061535552144,0.001352819730527699
1772643991751831000,8.8788310546875,-0.0005364831304177642,-0.0006391004426404834,-0.0002772549632936716
1772643991761872100,8.8888720703125,0.00006938597653061152,-0.00033150543458759785,0.00002634548582136631
1772643991771912000,8.898911865234375,-0.0012467610649764538,-0.00024913600645959377,0.0003215405158698559
1772643991781952800,8.908952880859376,0.0009341014665551484,0.0011524856090545654,0.0018171716947108507
1772643991791993900,8.918993896484375,-0.0012029982171952724,0.00172322615981102,-0.00037114531733095646
1772643991802035000,8.929034912109374,-0.0003947287332266569,0.0006600923370569944,-0.00030110403895378113
1772643991812075000,8.939074951171875,0.0004114967887289822,0.0007619195384904742,0.000618472695350647
1772643991822115800,8.94911572265625,-0.000139777606818825,-0.0007243906729854643,-0.0012838232796639204
1772643991832157000,8.959156982421876,-0.0004238821566104889,-0.00006472854875028133,-0.00016183662228286266
1772643991842198000,8.969197998046875,-0.0007652994245290756,0.00006922840839251876,0.00036014290526509285
1772643991852237800,8.97923779296875,0.000251424266025424,0.0005862078396603465,-0.0001247620675712824
1772643991862279000,8.98927880859375,-0.0005792157026007771,-0.0003621438518166542,0.00009095389395952225
1772643991872320000,8.999320068359374,0.00009421742288395762,0.000286352529656142,0.0009054703405126929
1772643991882360800,9.00936083984375,-0.000526565418113023,-0.0011189975775778294,-0.00016911514103412628
1772643991892402000,9.01940185546875,0.000026933674234896898,-0.0006882955203764141,-0.00044058472849428654
1772643991902442000,9.02944189453125,-0.0008915906073525548,-0.000307463516946882,0.0009754179045557976
1772643991912483000,9.039483154296875,0.0010929822456091642,0.0007354378467425704,-0.000961795449256897
1772643991922524000,9.04952392578125,-0.00031609629513695836,0.00041612485074438155,-0.0008302351925522089
1772643991932565000,9.05956494140625,0.0007328485953621566,-0.0009253324242308736,-0.0009007502812892199
1772643991942605000,9.06960498046875,-0.0006826214957982302,0.00020917417714372277,-0.0001976757775992155
1772643991952646100,9.079646240234375,0.0006583696813322604,-0.0010500338394194841,-0.0004868139512836933
1772643991962687000,9.08968701171875,0.000900983635801822,0.0013049994595348835,0.00010174443013966084
1772643991972728000,9.09972802734375,0.00032333965646103024,0.0008212621905840933,0.0002548615448176861
1772643991982769000,9.109768798828124,0.0009417256806045771,0.000060130725614726543,0.0015243905363604426
1772643991992809200,9.119809326171875,0.00039585871854797006,0.00011621305020526052,-0.0011459223460406065
1772643992002850300,9.129850341796875,0.0009250288130715489,-0.0005173529498279095,0.0007324052276089787
1772643992012891400,9.139891357421876,0.0011438772780820727,0.00008144992170855403,0.0009355305228382349
1772643992022932200,9.14993212890625,0.0007060536299832165,0.0005903799901716411,-0.0014408081769943237
1772643992032972300,9.15997216796875,0.00040845200419425964,-0.00019894051365554333,0.00165794906206429
1772643992043013400,9.170013427734375,-0.0009755927603691816,0.00032410427229478955,-0.00010852562263607979
1772643992053054200,9.18005419921875,0.000920631515327841,-0.0004791368846781552,0.0011526639573276043
1772643992063095300,9.19009521484375,0.00021063280291855335,0.0003067619982175529,-0.00024469662457704544
1772643992073136400,9.200136474609375,0.00034432910615578294,0.00019617308862507343,0.00048368005082011223
1772643992083176400,9.210176513671875,-0.00040934549178928137,-0.000058691424783319235,-0.00011846073903143406
1772643992093217300,9.22021728515625,-0.00014676636783406138,0.0005427942960523069,-0.000015562167391180992
1772643992103258400,9.23025830078125,-0.0010216147638857365,-0.0006404481246136129,0.000383113045245409
1772643992113299500,9.240299560546875,0.0002352266456000507,-0.00027489702915772796,-0.000163237564265728
1772643992123339500,9.250339599609376,0.00007730122888460755,0.00022364669712260365,-0.000004513189196586609
1772643992133380400,9.26038037109375,0.00039180327439680696,-0.00019032758427783847,-0.00022309762425720692
1772643992143421400,9.27042138671875,-0.0012886513723060489,0.0011660204036161304,-0.000012707896530628204
1772643992153462500,9.280462646484375,-0.0004672170616686344,-0.0019151584710925817,-0.0006328457966446877
1772643992163502300,9.29050244140625,-0.00021368416491895914,0.00045185917406342924,-0.0002914285287261009
1772643992173543400,9.30054345703125,0.00034952390706166625,0.000006300921086221933,0.0009477278217673302
1772643992183584500,9.31058447265625,-0.00027179159224033356,-0.0017244875198230147,-0.002309850649908185
1772643992201155300,9.3281552734375,-0.0006415498210117221,-0.00041459110798314214,-0.0008023097179830074
1772643992211196400,9.338196533203124,-0.0006539174937643111,0.0009988420642912388,-0.00015486660413444042
1772643992221237500,9.348237548828125,0.0006236008484847844,0.0007809954695403576,-0.0000065283384174108505
1772643992231277600,9.358277587890624,0.00027024291921406984,0.0009637005859985948,0.000915464130230248
1772643992241318400,9.368318359375,-0.0002256376901641488,-0.0005979770794510841,-0.0007796378340572119
1772643992251359500,9.378359375,0.0014340078923851252,-0.0017425782280042768,0.0001139170490205288
1772643992261400600,9.388400634765626,0.0006875238614156842,-0.001098093343898654,-0.0008815724868327379
1772643992271441400,9.39844140625,0.0009663673117756844,-0.00043130264384672046,0.00001788162626326084
1772643992281481200,9.408481201171876,-0.0005889187450520694,0.000307724520098418,0.0004221495473757386
1772643992291522300,9.418522216796875,0.00201412639580667,-0.001177414320409298,0.0008849311852827668
1772643992301563100,9.428563232421874,0.0003291444154456258,-0.0008386602276004851,0.0004031653515994549
1772643992311604200,9.438604248046875,-0.0007470833952538669,-0.0010464093647897243,0.0005822685780003667
1772643992321645300,9.448645263671875,-0.00007942895172163844,0.002064429223537445,0.0017340857302770019
1772643992331685400,9.458685302734375,-0.00019607978174462914,0.0012280584778636694,0.0008449262240901589
1772643992341726200,9.468726318359375,0.000031886796932667494,0.001980667933821678,0.001137075014412403
1772643992351767300,9.478767333984376,-0.0007730219513177872,0.0005619189469143748,-0.0007478403858840466
1772643992361808400,9.488808349609375,-0.0011791540309786797,-0.0022628959268331528,-0.0017526510637253523
1772643992371848400,9.498848388671876,-0.00021567312069237232,-0.0030392222106456757,-0.0019593986216932535
1772643992381889300,9.50888916015625,-0.0005893146153539419,0.0012404776643961668,0.0008268003584817052
1772643992391930400,9.518930419921874,-0.00039194116834551096,0.0007898235926404595,-0.0007619285024702549
1772643992401971500,9.528971435546875,-0.00002149550709873438,-0.00018063228344544768,-0.00011051935143768787
