time,seconds_elapsed,z,y,x
1772651314157522700,0.361522705078125,9.8016996383667,-1.4534566402435303,-0.4569375216960907
1772651314167526400,0.3715263671875,9.878355026245117,-1.4869933128356934,-0.41322004795074463
1772651314177530000,0.381530029296875,9.811281204223633,-1.4630385637283325,-0.37968334555625916
1772651314187533600,0.391533447265625,9.844818115234375,-1.4342927932739258,-0.3365647494792938
1772651314197537300,0.401537353515625,9.863982200622559,-1.410338044166565,-0.34135568141937256
1772651314207541000,0.411541015625,9.873563766479492,-1.410338044166565,-0.3317737877368927
1772651314217544700,0.421544677734375,9.849609375,-1.405547022819519,-0.3461466431617737
1772651314227548400,0.43154833984375,9.84002685546875,-1.443874716758728,-0.4036381244659424
1772651314237552000,0.44155224609375,9.849609375,-1.4630385637283325,-0.4228019714355469
1772651314247555600,0.4515556640625,9.830445289611816,-1.4630385637283325,-0.4425646662712097
1772651314257559600,0.4615595703125,9.863982200622559,-1.4630385637283325,-0.41801100969314575
1772651314267563800,0.471563720703125,9.873563766479492,-1.443874716758728,-0.3892652690410614
1772651314277568000,0.481568115234375,9.844818115234375,-1.443874716758728,-0.36051952838897705
1772651314287572200,0.491572265625,9.830445289611816,-1.4390836954116821,-0.3317737877368927
1772651314297576700,0.50157666015625,9.868772506713867,-1.4390836954116821,-0.3269828259944916
1772651314307581000,0.511580810546875,9.854399681091309,-1.4295017719268799,-0.3701014220714569
1772651314317585200,0.521585205078125,9.84002685546875,-1.410338044166565,-0.41322004795074463
1772651314327589400,0.53158935546875,9.863982200622559,-1.4342927932739258,-0.4425646662712097
1772651314337593600,0.541593505859375,9.849609375,-1.4678294658660889,-0.4425646662712097
1772651314347597800,0.551597900390625,9.882546424865723,-1.4582475423812866,-0.4186098873615265
1772651314357602000,0.56160205078125,9.835235595703125,-1.4390836954116821,-0.3844743072986603
1772651314367606300,0.571606201171875,9.835235595703125,-1.4295017719268799,-0.3509376049041748
1772651314377610800,0.58161083984375,9.849609375,-1.4247108697891235,-0.3509376049041748
1772651314387615000,0.591614990234375,9.859190940856934,-1.405547022819519,-0.3557285666465759
1772651314397619200,0.601619140625,9.835235595703125,-1.4151289463043213,-0.36051952838897705
1772651314407623400,0.61162353515625,9.882546424865723,-1.4247108697891235,-0.40902796387672424
1772651314417627600,0.621627685546875,9.877756118774414,-1.4726204872131348,-0.4377737045288086
1772651314427631900,0.6316318359375,9.863982200622559,-1.4630385637283325,-0.4377737045288086
1772651314437636000,0.641635986328125,9.849609375,-1.4247108697891235,-0.4234008193016052
1772651314447640600,0.651640625,9.854399681091309,-1.4534566402435303,-0.3892652690410614
1772651314457644800,0.661644775390625,9.863383293151855,-1.4726204872131348,-0.3317737877368927
1772651314467649000,0.67164892578125,9.835235595703125,-1.4390836954116821,-0.3365647494792938
1772651314477653200,0.6816533203125,9.859190940856934,-1.4247108697891235,-0.3317737877368927
1772651314487657500,0.691657470703125,9.859190940856934,-1.4199198484420776,-0.36051952838897705
1772651314497661700,0.70166162109375,9.835235595703125,-1.4486656188964844,-0.3946550786495209
1772651314507666000,0.711666015625,9.872964859008789,-1.443874716758728,-0.42819178104400635
1772651314517670100,0.721670166015625,9.85859203338623,-1.4390836954116821,-0.4425646662712097
1772651314527674600,0.731674560546875,9.839427947998047,-1.4486656188964844,-0.41920873522758484
1772651314537678800,0.741678955078125,9.849010467529297,-1.443874716758728,-0.3904629945755005
1772651314547683000,0.75168310546875,9.853800773620605,-1.443275809288025,-0.3760901391506195
1772651314557687300,0.761687255859375,9.868173599243164,-1.4289029836654663,-0.38088110089302063
1772651314567691500,0.77169140625,9.868173599243164,-1.419321060180664,-0.356926292181015
1772651314577695700,0.78169580078125,9.844219207763672,-1.443275809288025,-0.36171725392341614
1772651314587700000,0.791699951171875,9.853800773620605,-1.4289029836654663,-0.40483587980270386
1772651314597704200,0.8017041015625,9.863383293151855,-1.4528577327728271,-0.42399969696998596
1772651314607708700,0.811708740234375,9.85859203338623,-1.4528577327728271,-0.43837258219718933
1772651314617713000,0.821712890625,9.862784385681152,-1.4528577327728271,-0.42399969696998596
1772651314627717000,0.831717041015625,9.844219207763672,-1.4384849071502686,-0.40483587980270386
1772651314637721300,0.841721435546875,9.839427947998047,-1.4384849071502686,-0.3760901391506195
1772651314647725600,0.8517255859375,9.867574691772461,-1.4576486349105835,-0.34734439849853516
1772651314657729800,0.861729736328125,9.843620300292969,-1.4336938858032227,-0.36171725392341614
1772651314667734000,0.871734130859375,9.862784385681152,-1.4289029836654663,-0.36650821566581726
1772651314677738500,0.881738525390625,9.88194751739502,-1.4720215797424316,-0.40064379572868347
1772651314687742700,0.89174267578125,9.848411560058594,-1.4720215797424316,-0.43418049812316895
1772651314697747000,0.901746826171875,9.877157211303711,-1.443275809288025,-0.4437623918056488
1772651314707751200,0.911751220703125,9.838829040527344,-1.443275809288025,-0.41501665115356445
1772651314717755400,0.92175537109375,9.81966495513916,-1.4289029836654663,-0.3910618722438812
1772651314727759600,0.931759521484375,9.85859203338623,-1.4486656188964844,-0.3659093379974365
1772651314737763800,0.941763916015625,9.868173599243164,-1.4295017719268799,-0.3227907419204712
1772651314747768000,0.95176806640625,9.863383293151855,-1.4342927932739258,-0.3371635973453522
1772651314757772000,0.96177197265625,9.849010467529297,-1.4534566402435303,-0.35632744431495667
1772651314767775000,0.97177490234375,9.839427947998047,-1.4486656188964844,-0.40483587980270386
1772651314777778200,0.981778076171875,9.868173599243164,-1.4534566402435303,-0.4287906587123871
1772651314787781400,0.991781494140625,9.853800773620605,-1.4486656188964844,-0.4144177734851837
1772651314797784300,1.001784423828125,9.853800773620605,-1.4390836954116821,-0.40004491806030273
1772651314807787500,1.01178759765625,9.834636688232422,-1.4342927932739258,-0.37549126148223877
1772651314817790700,1.021790771484375,9.872964859008789,-1.4342927932739258,-0.37549126148223877
1772651314827793700,1.031793701171875,9.877756118774414,-1.4863944053649902,-0.3611183762550354
1772651314837796900,1.041796875,9.872964859008789,-1.4624396562576294,-0.37549126148223877
1772651314847799800,1.0517998046875,9.85859203338623,-1.4672305583953857,-0.38567203283309937
1772651314857803000,1.061802978515625,9.839427947998047,-1.4534566402435303,-0.3904629945755005
1772651314867806200,1.07180615234375,9.85859203338623,-1.4390836954116821,-0.4144177734851837
1772651314877809200,1.08180908203125,9.868173599243164,-1.443874716758728,-0.409626841545105
1772651314887812400,1.091812255859375,9.849010467529297,-1.4295017719268799,-0.4287906587123871
1772651314897815600,1.101815673828125,9.868173599243164,-1.4486656188964844,-0.40004491806030273
1772651314907818500,1.111818603515625,9.872964859008789,-1.4486656188964844,-0.3611183762550354
1772651314917821700,1.12182177734375,9.853800773620605,-1.4342927932739258,-0.37070029973983765
1772651314927825000,1.131824951171875,9.843620300292969,-1.4576486349105835,-0.3623161315917969
1772651314937827800,1.141827880859375,9.862784385681152,-1.4384849071502686,-0.3718980550765991
1772651314947831000,1.1518310546875,9.857993125915527,-1.4480668306350708,-0.3910618722438812
1772651314957834000,1.161833984375,9.834038734436035,-1.443275809288025,-0.39585283398628235
1772651314967837200,1.171837158203125,9.838829040527344,-1.443275809288025,-0.41022568941116333
1772651314977840400,1.18184033203125,9.867574691772461,-1.4528577327728271,-0.4198076128959656
1772651314987843300,1.19184326171875,9.853201866149902,-1.4576486349105835,-0.4054347574710846
1772651314997846500,1.201846435546875,9.853201866149902,-1.4528577327728271,-0.37668898701667786
1772651315007849500,1.211849365234375,9.862784385681152,-1.419321060180664,-0.3718980550765991
1772651315017852700,1.221852783203125,9.848411560058594,-1.4336938858032227,-0.37668898701667786
1772651315027856000,1.23185595703125,9.848411560058594,-1.443275809288025,-0.3910618722438812
1772651315037858800,1.24185888671875,9.843620300292969,-1.4576486349105835,-0.40603360533714294
1772651315047862000,1.251862060546875,9.853201866149902,-1.4336938858032227,-0.4156155288219452
1772651315057865000,1.261864990234375,9.857394218444824,-1.4576486349105835,-0.4012426435947418
1772651315067868200,1.2718681640625,9.834038734436035,-1.4624396562576294,-0.40603360533714294
1772651315077871400,1.281871337890625,9.8526029586792,-1.4336938858032227,-0.40603360533714294
1772651315087874300,1.291874267578125,9.86218547821045,-1.4289029836654663,-0.36770597100257874
1772651315097877500,1.30187744140625,9.83823013305664,-1.4139312505722046,-0.3772878646850586
1772651315107880700,1.311880615234375,9.84781265258789,-1.4426769018173218,-0.39166074991226196
1772651315117883600,1.321883544921875,9.843021392822266,-1.452258825302124,-0.38686978816986084
1772651315127886800,1.331886962890625,9.848411560058594,-1.4576486349105835,-0.38567203283309937
1772651315137890000,1.34189013671875,9.867574691772461,-1.443275809288025,-0.41022568941116333
1772651315147893000,1.35189306640625,9.848411560058594,-1.4480668306350708,-0.43418049812316895
1772651315157896200,1.361896240234375,9.834038734436035,-1.4384849071502686,-0.41501665115356445
1772651315167899100,1.371899169921875,9.848411560058594,-1.419321060180664,-0.3760901391506195
1772651315177902300,1.38190234375,9.857993125915527,-1.419321060180664,-0.3521353602409363
1772651315187905500,1.391905517578125,9.867574691772461,-1.4336938858032227,-0.34255343675613403
1772651315197908500,1.401908447265625,9.862784385681152,-1.443275809288025,-0.3521353602409363
1772651315207911700,1.41191162109375,9.834038734436035,-1.443275809288025,-0.36650821566581726
1772651315217915000,1.421914794921875,9.838829040527344,-1.4624396562576294,-0.3952539563179016
1772651315227917800,1.431917724609375,9.843620300292969,-1.4528577327728271,-0.3952539563179016
1772651315237921000,1.441921142578125,9.829846382141113,-1.4384849071502686,-0.40483587980270386
1772651315247924200,1.45192431640625,9.872365951538086,-1.443275809288025,-0.3760901391506195
1772651315257927000,1.461927001953125,9.857993125915527,-1.4289029836654663,-0.3904629945755005
1772651315267929600,1.4719296875,9.857993125915527,-1.419321060180664,-0.3760901391506195
1772651315277932300,1.481932373046875,9.839427947998047,-1.4289029836654663,-0.36171725392341614
1772651315287935000,1.49193505859375,9.857993125915527,-1.443275809288025,-0.34734439849853516
1772651315297937400,1.5019375,9.839427947998047,-1.4384849071502686,-0.38088110089302063
1772651315307940000,1.511940185546875,9.862784385681152,-1.4624396562576294,-0.41920873522758484
1772651315317942800,1.52194287109375,9.848411560058594,-1.443275809288025,-0.41920873522758484
1772651315327945500,1.531945556640625,9.84781265258789,-1.4474679231643677,-0.3964517116546631
1772651315337948200,1.5419482421875,9.84781265258789,-1.4666317701339722,-0.3772878646850586
1772651315347950600,1.55195068359375,9.881348609924316,-1.433095097541809,-0.38686978816986084
1772651315357953300,1.561953369140625,9.8526029586792,-1.4139312505722046,-0.3820788264274597
1772651315367956000,1.5719560546875,9.84781265258789,-1.4283040761947632,-0.38686978816986084
1772651315377958700,1.581958740234375,9.86218547821045,-1.4474679231643677,-0.3772878646850586
1772651315387961300,1.59196142578125,9.819067001342773,-1.4666317701339722,-0.38686978816986084
1772651315397963800,1.6019638671875,9.876558303833008,-1.4618407487869263,-0.39166074991226196
1772651315407966500,1.611966552734375,9.857394218444824,-1.433095097541809,-0.40603360533714294
1772651315417969200,1.62196923828125,9.8526029586792,-1.433095097541809,-0.38686978816986084
1772651315427971800,1.631971923828125,9.84781265258789,-1.433095097541809,-0.39705055952072144
1772651315437974500,1.641974609375,9.866975784301758,-1.433095097541809,-0.3922595977783203
1772651315447977000,1.65197705078125,9.857394218444824,-1.433095097541809,-0.3772878646850586
1772651315457979600,1.661979736328125,9.84781265258789,-1.4139312505722046,-0.35333308577537537
1772651315467982300,1.671982421875,9.857394218444824,-1.4235131740570068,-0.39705055952072144
1772651315477985000,1.681985107421875,9.871767044067383,-1.433095097541809,-0.4066324830055237
1772651315487987700,1.69198779296875,9.828648567199707,-1.4426769018173218,-0.3922595977783203
1772651315497990100,1.701990234375,9.8526029586792,-1.4283040761947632,-0.3922595977783203
1772651315507992800,1.711992919921875,9.833439826965332,-1.4474679231643677,-0.38267770409584045
1772651315517995500,1.72199560546875,9.843021392822266,-1.4426769018173218,-0.3922595977783203
1772651315527998200,1.731998291015625,9.857394218444824,-1.4097391366958618,-0.3964517116546631
1772651315538001000,1.7420009765625,9.8526029586792,-1.4384849071502686,-0.3772878646850586
1772651315548003300,1.75200341796875,9.871767044067383,-1.443275809288025,-0.3623161315917969
1772651315558006000,1.762006103515625,9.866975784301758,-1.443275809288025,-0.3820788264274597
1772651315568008700,1.7720087890625,9.838829040527344,-1.4480668306350708,-0.3964517116546631
1772651315578011400,1.782011474609375,9.843620300292969,-1.443275809288025,-0.38686978816986084
1772651315588014000,1.79201416015625,9.838829040527344,-1.4336938858032227,-0.3964517116546631
1772651315598016500,1.8020166015625,9.8526029586792,-1.4336938858032227,-0.4012426435947418
1772651315608019200,1.812019287109375,9.848411560058594,-1.443275809288025,-0.40603360533714294
1772651315618022000,1.82202197265625,9.866975784301758,-1.443275809288025,-0.39166074991226196
1772651315628024600,1.832024658203125,9.890931129455566,-1.4528577327728271,-0.35752516984939575
1772651315638027300,1.84202734375,9.853201866149902,-1.4384849071502686,-0.38686978816986084
1772651315648029700,1.85202978515625,9.853201866149902,-1.4336938858032227,-0.39166074991226196
1772651315658032400,1.862032470703125,9.843620300292969,-1.443275809288025,-0.3964517116546631
1772651315668035000,1.87203515625,9.857394218444824,-1.4480668306350708,-0.39166074991226196
1772651315678037800,1.882037841796875,9.853201866149902,-1.4576486349105835,-0.38686978816986084
1772651315688040400,1.89204052734375,9.82924747467041,-1.4336938858032227,-0.39166074991226196
1772651315698043000,1.90204296875,9.838829040527344,-1.4289029836654663,-0.381479948759079
1772651315708045600,1.912045654296875,9.853201866149902,-1.4336938858032227,-0.38686978816986084
1772651315718048300,1.92204833984375,9.843620300292969,-1.4384849071502686,-0.37668898701667786
1772651315728051000,1.932051025390625,9.857394218444824,-1.419321060180664,-0.3623161315917969
1772651315738053600,1.9420537109375,9.838829040527344,-1.4384849071502686,-0.3820788264274597
1772651315748056000,1.95205615234375,9.8526029586792,-1.4576486349105835,-0.3964517116546631
1772651315758058800,1.962058837890625,9.871767044067383,-1.4714226722717285,-0.3820788264274597
1772651315768061200,1.972061279296875,9.8526029586792,-1.4480668306350708,-0.41082456707954407
1772651315778063600,1.982063720703125,9.86218547821045,-1.4576486349105835,-0.40603360533714294
1772651315788066300,1.99206640625,9.848411560058594,-1.4241119623184204,-0.3820788264274597
1772651315798068700,2.00206884765625,9.848411560058594,-1.419321060180664,-0.3820788264274597
1772651315808071200,2.0120712890625,9.866975784301758,-1.4528577327728271,-0.3623161315917969
1772651315818073600,2.022073486328125,9.857394218444824,-1.4289029836654663,-0.3820788264274597
1772651315828076300,2.032076171875,9.848411560058594,-1.419321060180664,-0.38686978816986084
1772651315838078700,2.04207861328125,9.82924747467041,-1.4336938858032227,-0.3820788264274597
1772651315848081200,2.0520810546875,9.8526029586792,-1.4384849071502686,-0.4012426435947418
1772651315858083600,2.06208349609375,9.843620300292969,-1.4528577327728271,-0.38686978816986084
1772651315868086300,2.072086181640625,9.843620300292969,-1.4480668306350708,-0.4012426435947418
1772651315878088700,2.082088623046875,9.8526029586792,-1.443275809288025,-0.3964517116546631
1772651315888091100,2.092091064453125,9.876558303833008,-1.443275809288025,-0.39166074991226196
1772651315898093600,2.102093505859375,9.8526029586792,-1.443275809288025,-0.3623161315917969
1772651315908096300,2.11209619140625,9.834038734436035,-1.4289029836654663,-0.3820788264274597
1772651315918098700,2.1220986328125,9.86218547821045,-1.419321060180664,-0.3964517116546631
1772651315928101000,2.13210107421875,9.872365951538086,-1.4480668306350708,-0.3910618722438812
1772651315938103800,2.142103759765625,9.843620300292969,-1.4336938858032227,-0.40064379572868347
1772651315948106200,2.152106201171875,9.862784385681152,-1.443275809288025,-0.40064379572868347
1772651315958108700,2.162108642578125,9.848411560058594,-1.4336938858032227,-0.4156155288219452
1772651315968111000,2.172111083984375,9.843620300292969,-1.4336938858032227,-0.37668898701667786
1772651315978113800,2.18211376953125,9.843620300292969,-1.4480668306350708,-0.381479948759079
1772651315988116200,2.1921162109375,9.862784385681152,-1.4528577327728271,-0.381479948759079
1772651315998118700,2.20211865234375,9.848411560058594,-1.4480668306350708,-0.37668898701667786
1772651316008121000,2.21212109375,9.853201866149902,-1.443275809288025,-0.3862709105014801
1772651316018123800,2.222123779296875,9.82924747467041,-1.443275809288025,-0.3910618722438812
1772651316028126200,2.232126220703125,9.843620300292969,-1.4576486349105835,-0.41022568941116333
1772651316038128600,2.242128662109375,9.82924747467041,-1.476812481880188,-0.3862709105014801
1772651316048131000,2.252131103515625,9.857993125915527,-1.4480668306350708,-0.41022568941116333
1772651316058133800,2.2621337890625,9.872365951538086,-1.4480668306350708,-0.41022568941116333
1772651316068136200,2.27213623046875,9.848411560058594,-1.4289029836654663,-0.3910618722438812
1772651316078138600,2.282138671875,9.867574691772461,-1.443275809288025,-0.37668898701667786
1772651316088141000,2.29214111328125,9.872365951538086,-1.4241119623184204,-0.37668898701667786
1772651316098143700,2.302143798828125,9.853201866149902,-1.4480668306350708,-0.37668898701667786
1772651316108146200,2.312146240234375,9.834038734436035,-1.443275809288025,-0.4054347574710846
1772651316118148600,2.322148681640625,9.848411560058594,-1.4336938858032227,-0.4054347574710846
1772651316128151300,2.3321513671875,9.8526029586792,-1.4474679231643677,-0.3964517116546631
1772651316138153700,2.34215380859375,9.83823013305664,-1.433095097541809,-0.39166074991226196
1772651316148156200,2.35215625,9.843021392822266,-1.4235131740570068,-0.3772878646850586
1772651316158158600,2.36215869140625,9.84781265258789,-1.4378859996795654,-0.37249690294265747
1772651316168161300,2.372161376953125,9.876558303833008,-1.4283040761947632,-0.38267770409584045
1772651316178163700,2.382163818359375,9.86218547821045,-1.418722152709961,-0.40184152126312256
1772651316188166100,2.392166259765625,9.833439826965332,-1.45704984664917,-0.4066324830055237
1772651316198168600,2.40216845703125,9.857394218444824,-1.4378859996795654,-0.38267770409584045
1772651316208171300,2.412171142578125,9.86218547821045,-1.4426769018173218,-0.3730957806110382
1772651316218173700,2.422173583984375,9.880749702453613,-1.4378859996795654,-0.38267770409584045
1772651316228176100,2.432176025390625,9.866975784301758,-1.4378859996795654,-0.3874686658382416
1772651316238178600,2.442178466796875,9.857394218444824,-1.433095097541809,-0.3922595977783203
1772651316248181200,2.45218115234375,9.84781265258789,-1.452258825302124,-0.37788674235343933
1772651316258184000,2.462183837890625,9.8526029586792,-1.433095097541809,-0.38267770409584045
1772651316268187100,2.472187255859375,9.861586570739746,-1.418722152709961,-0.4066324830055237
1772651316278190000,2.482190185546875,9.852004051208496,-1.4139312505722046,-0.3922595977783203
1772651316288193300,2.492193359375,9.861586570739746,-1.4426769018173218,-0.3922595977783203
1772651316298196500,2.502196533203125,9.847213745117188,-1.452258825302124,-0.39705055952072144
1772651316308199700,2.51219970703125,9.842422485351562,-1.4378859996795654,-0.3922595977783203
1772651316318203000,2.522202880859375,9.87116813659668,-1.4474679231643677,-0.37788674235343933
1772651316328205800,2.532205810546875,9.857394218444824,-1.452258825302124,-0.3820788264274597
1772651316338209000,2.542208984375,9.828648567199707,-1.433095097541809,-0.3820788264274597
1772651316348212200,2.552212158203125,9.881348609924316,-1.433095097541809,-0.3820788264274597
1772651316358215400,2.56221533203125,9.843021392822266,-1.433095097541809,-0.3964517116546631
1772651316368218600,2.572218505859375,9.8526029586792,-1.4426769018173218,-0.3964517116546631
1772651316378221600,2.5822216796875,9.86218547821045,-1.452258825302124,-0.40603360533714294
1772651316388224800,2.592224853515625,9.866975784301758,-1.45704984664917,-0.40603360533714294
1772651316398228000,2.60222802734375,9.81966495513916,-1.4714226722717285,-0.38686978816986084
1772651316408231200,2.612231201171875,9.8526029586792,-1.4666317701339722,-0.3820788264274597
1772651316418234400,2.622234375,9.834038734436035,-1.4480668306350708,-0.3820788264274597
1772651316428237300,2.6322373046875,9.834038734436035,-1.4336938858032227,-0.4012426435947418
1772651316438240500,2.642240478515625,9.8526029586792,-1.4384849071502686,-0.3820788264274597
1772651316448243700,2.65224365234375,9.82924747467041,-1.4384849071502686,-0.38686978816986084
1772651316458247000,2.662246826171875,9.834038734436035,-1.4384849071502686,-0.39166074991226196
1772651316468249900,2.672249755859375,9.853201866149902,-1.4576486349105835,-0.38686978816986084
1772651316478253000,2.682253173828125,9.866975784301758,-1.4672305583953857,-0.41082456707954407
1772651316488256300,2.69225634765625,9.843620300292969,-1.4336938858032227,-0.3862709105014801
1772651316498259500,2.702259521484375,9.834038734436035,-1.4480668306350708,-0.3910618722438812
1772651316508262700,2.7122626953125,9.862784385681152,-1.4480668306350708,-0.3910618722438812
1772651316518265600,2.722265625,9.862784385681152,-1.4289029836654663,-0.3862709105014801
1772651316528268800,2.732268798828125,9.843021392822266,-1.4235131740570068,-0.3874686658382416
1772651316538272000,2.74227197265625,9.833439826965332,-1.4474679231643677,-0.3922595977783203
1772651316548275200,2.752275146484375,9.866376876831055,-1.4426769018173218,-0.40184152126312256
1772651316558278100,2.762278076171875,9.866376876831055,-1.45704984664917,-0.4168132543563843
1772651316568281300,2.77228125,9.852004051208496,-1.452258825302124,-0.41202232241630554
1772651316578284500,2.782284423828125,9.856795310974121,-1.452258825302124,-0.3976494371891022
1772651316588287700,2.792287841796875,9.856795310974121,-1.4426769018173218,-0.3874686658382416
1772651316598291000,2.802291015625,9.847213745117188,-1.45704984664917,-0.3730957806110382
1772651316608294000,2.8122939453125,9.847213745117188,-1.4426769018173218,-0.3832765817642212
1772651316618297000,2.822297119140625,9.832840919494629,-1.433095097541809,-0.3880675137042999
1772651316628300300,2.83230029296875,9.847213745117188,-1.433095097541809,-0.3976494371891022
1772651316638303500,2.842303466796875,9.856795310974121,-1.433095097541809,-0.3976494371891022
1772651316648306400,2.852306396484375,9.823258399963379,-1.432496190071106,-0.41202232241630554
1772651316658309600,2.8623095703125,9.837631225585938,-1.4468690156936646,-0.4072313606739044
1772651316668312800,2.872312744140625,9.87116813659668,-1.4516600370407104,-0.3976494371891022
1772651316678316000,2.88231591796875,9.885540962219238,-1.4516600370407104,-0.3880675137042999
1772651316688319200,2.8923193359375,9.87116813659668,-1.4756147861480713,-0.4072313606739044
1772651316698322200,2.902322265625,9.866376876831055,-1.432496190071106,-0.3880675137042999
1772651316708325400,2.912325439453125,9.861586570739746,-1.42770516872406,-0.3689036965370178
1772651316718328600,2.92232861328125,9.856795310974121,-1.4468690156936646,-0.39285847544670105
1772651316728331800,2.932331787109375,9.87116813659668,-1.4618407487869263,-0.3832765817642212
1772651316738335000,2.9423349609375,9.842422485351562,-1.418722152709961,-0.3730957806110382
1772651316748338000,2.952337890625,9.880749702453613,-1.433095097541809,-0.39285847544670105
1772651316758341000,2.962341064453125,9.861586570739746,-1.4426769018173218,-0.3976494371891022
1772651316768343800,2.97234375,9.852004051208496,-1.4378859996795654,-0.39285847544670105
1772651316778346800,2.9823466796875,9.847213745117188,-1.433095097541809,-0.39285847544670105
1772651316788349400,2.992349365234375,9.87116813659668,-1.4378859996795654,-0.37369465827941895
1772651316798352400,3.002352294921875,9.875959396362305,-1.466032862663269,-0.3832765817642212
1772651316808355300,3.012355224609375,9.861586570739746,-1.452258825302124,-0.41202232241630554
1772651316818358000,3.02235791015625,9.856795310974121,-1.4612419605255127,-0.4072313606739044
1772651316828361000,3.03236083984375,9.828049659729004,-1.4378859996795654,-0.3976494371891022
1772651316838364000,3.042364013671875,9.880749702453613,-1.4372870922088623,-0.4024403989315033
1772651316848366600,3.05236669921875,9.856795310974121,-1.418722152709961,-0.3976494371891022
1772651316858369500,3.06236962890625,9.856795310974121,-1.42770516872406,-0.4072313606739044
1772651316868372500,3.07237255859375,9.861586570739746,-1.432496190071106,-0.37369465827941895
1772651316878375200,3.082375244140625,9.847213745117188,-1.4516600370407104,-0.3689036965370178
1772651316888378000,3.092378173828125,9.875959396362305,-1.42770516872406,-0.3689036965370178
1772651316898380800,3.102380859375,9.856795310974121,-1.4372870922088623,-0.37848562002182007
1772651316908383700,3.1123837890625,9.847213745117188,-1.466032862663269,-0.39285847544670105
1772651316918386700,3.12238671875,9.828049659729004,-1.4420781135559082,-0.4072313606739044
1772651316928389400,3.132389404296875,9.861586570739746,-1.4426769018173218,-0.4066324830055237
1772651316938392300,3.142392333984375,9.866376876831055,-1.4378859996795654,-0.3874686658382416
1772651316948395300,3.152395263671875,9.856795310974121,-1.4426769018173218,-0.3922595977783203
1772651316958398000,3.16239794921875,9.880749702453613,-1.433095097541809,-0.3922595977783203
1772651316968401000,3.17240087890625,9.83823013305664,-1.4283040761947632,-0.3874686658382416
1772651316978403800,3.18240380859375,9.861586570739746,-1.452258825302124,-0.39705055952072144
1772651316988406500,3.192406494140625,9.84781265258789,-1.433095097541809,-0.3874686658382416
1772651316998409500,3.202409423828125,9.875959396362305,-1.4235131740570068,-0.4066324830055237
1772651317008412200,3.212412109375,9.843021392822266,-1.4283040761947632,-0.42100536823272705
1772651317018415000,3.2224150390625,9.86218547821045,-1.4474679231643677,-0.3874686658382416
1772651317028418000,3.23241796875,9.86218547821045,-1.4426769018173218,-0.38267770409584045
1772651317038420700,3.242420654296875,9.84781265258789,-1.45704984664917,-0.3922595977783203
1772651317048423700,3.252423583984375,9.866975784301758,-1.45704984664917,-0.3874686658382416
1772651317058426600,3.262426513671875,9.866975784301758,-1.418722152709961,-0.3730957806110382
1772651317068429300,3.27242919921875,9.8526029586792,-1.4139312505722046,-0.38267770409584045
1772651317078432300,3.282432373046875,9.866975784301758,-1.4426769018173218,-0.3922595977783203
1772651317088435200,3.292435302734375,9.895122528076172,-1.4378859996795654,-0.3730957806110382
1772651317098438000,3.30243798828125,9.866975784301758,-1.4378859996795654,-0.4066324830055237
1772651317108440800,3.31244091796875,9.828648567199707,-1.4666317701339722,-0.3922595977783203
1772651317118443500,3.322443603515625,9.8526029586792,-1.433095097541809,-0.3922595977783203
1772651317128446500,3.332446533203125,9.852004051208496,-1.4235131740570068,-0.3683048188686371
1772651317138449400,3.342449462890625,9.832840919494629,-1.433095097541809,-0.37848562002182007
1772651317148452000,3.3524521484375,9.856795310974121,-1.4474679231643677,-0.3730957806110382
1772651317158455000,3.362455078125,9.847213745117188,-1.433095097541809,-0.3880675137042999
1772651317168457700,3.372457763671875,9.87116813659668,-1.4618407487869263,-0.39285847544670105
1772651317178460700,3.382460693359375,9.856795310974121,-1.45704984664917,-0.4024403989315033
1772651317188463600,3.392463623046875,9.880749702453613,-1.4426769018173218,-0.39285847544670105
1772651317198466600,3.402466552734375,9.852004051208496,-1.4378859996795654,-0.3976494371891022
1772651317208469200,3.41246923828125,9.880749702453613,-1.433095097541809,-0.4024403989315033
1772651317218472200,3.42247216796875,9.856795310974121,-1.433095097541809,-0.3976494371891022
1772651317238477800,3.442477783203125,9.856795310974121,-1.418722152709961,-0.37848562002182007
1772651317248480800,3.452480712890625,9.875959396362305,-1.4564509391784668,-0.3832765817642212
1772651317258483700,3.462483642578125,9.852004051208496,-1.4516600370407104,-0.39285847544670105
1772651317268487400,3.4724873046875,9.842422485351562,-1.4420781135559082,-0.4072313606739044
1772651317278491100,3.4824912109375,9.842422485351562,-1.4612419605255127,-0.4072313606739044
1772651317298498600,3.50249853515625,9.852004051208496,-1.4181232452392578,-0.39285847544670105
1772651317308502300,3.512502197265625,9.837631225585938,-1.4516600370407104,-0.3976494371891022
1772651317318506000,3.522506103515625,9.842422485351562,-1.432496190071106,-0.3689036965370178
1772651317328509700,3.532509765625,9.865777969360352,-1.4229142665863037,-0.39884716272354126
1772651317338513400,3.542513427734375,9.856196403503418,-1.4468690156936646,-0.41801100969314575
1772651317348517000,3.55251708984375,9.860987663269043,-1.4516600370407104,-0.4084290862083435
1772651317358520600,3.5625205078125,9.879552841186523,-1.441479206085205,-0.37968334555625916
1772651317368524300,3.572524169921875,9.869970321655273,-1.4366883039474487,-0.3844743072986603
1772651317378528000,3.582528076171875,9.865179061889648,-1.4366883039474487,-0.39884716272354126
1772651317388531700,3.59253173828125,9.846614837646484,-1.4366883039474487,-0.4036381244659424
1772651317398535400,3.602535400390625,9.837032318115234,-1.4318972826004028,-0.3892652690410614
1772651317408539100,3.6125390625,9.879552841186523,-1.441479206085205,-0.3940562307834625
1772651317418542800,3.62254296875,9.889134407043457,-1.446270227432251,-0.3946550786495209
1772651317428546600,3.632546630859375,9.874761581420898,-1.4510611295700073,-0.4042370021343231
1772651317438550300,3.64255029296875,9.855597496032715,-1.4318972826004028,-0.40902796387672424
1772651317448554000,3.652553955078125,9.855597496032715,-1.446270227432251,-0.399446040391922
1772651317458557700,3.6625576171875,9.869970321655273,-1.4318972826004028,-0.38986414670944214
1772651317468561400,3.6725615234375,9.869970321655273,-1.441479206085205,-0.3802822232246399
1772651317488568600,3.692568603515625,9.874761581420898,-1.4271063804626465,-0.399446040391922
1772651317498572300,3.702572265625,9.865179061889648,-1.4318972826004028,-0.385073184967041
1772651317508576000,3.712575927734375,9.86038875579834,-1.4366883039474487,-0.40004491806030273
1772651317518579700,3.722579833984375,9.826851844787598,-1.446270227432251,-0.41920873522758484
1772651317528583400,3.73258349609375,9.832840919494629,-1.4426769018173218,-0.3976494371891022
1772651317538587100,3.742587158203125,9.852004051208496,-1.4426769018173218,-0.3880675137042999
1772651317548590800,3.7525908203125,9.852004051208496,-1.4235131740570068,-0.39285847544670105
1772651317558594600,3.762594482421875,9.87116813659668,-1.4666317701339722,-0.38267770409584045
1772651317568598300,3.772598388671875,9.847213745117188,-1.4474679231643677,-0.3922595977783203
1772651317578602000,3.78260205078125,9.842422485351562,-1.4426769018173218,-0.37788674235343933
1772651317588605400,3.79260546875,9.828648567199707,-1.4378859996795654,-0.3730957806110382
1772651317598609200,3.802609130859375,9.833439826965332,-1.4378859996795654,-0.3730957806110382
1772651317608612900,3.81261279296875,9.880749702453613,-1.4426769018173218,-0.3683048188686371
1772651317618616600,3.822616455078125,9.843021392822266,-1.433095097541809,-0.40184152126312256
1772651317628620300,3.832620361328125,9.86218547821045,-1.4283040761947632,-0.40184152126312256
1772651317638624000,3.8426240234375,9.83823013305664,-1.4474679231643677,-0.37788674235343933
1772651317648627700,3.852627685546875,9.8526029586792,-1.4426769018173218,-0.39705055952072144
1772651317658631400,3.86263134765625,9.86218547821045,-1.452258825302124,-0.38267770409584045
1772651317668635100,3.87263525390625,9.866975784301758,-1.433095097541809,-0.39166074991226196
1772651317678638800,3.882638916015625,9.866975784301758,-1.418722152709961,-0.39166074991226196
1772651317688642600,3.892642578125,9.833439826965332,-1.4474679231643677,-0.38686978816986084
1772651317698646300,3.902646240234375,9.857394218444824,-1.4426769018173218,-0.40603360533714294
1772651317708649700,3.912649658203125,9.84781265258789,-1.433095097541809,-0.40603360533714294
1772651317718653400,3.9226533203125,9.86218547821045,-1.4426769018173218,-0.38686978816986084
1772651317728657200,3.9326572265625,9.856196403503418,-1.42770516872406,-0.3934573531150818
1772651317738660900,3.942660888671875,9.851405143737793,-1.4468690156936646,-0.38387542963027954
1772651317748664600,3.95266455078125,9.884942054748535,-1.470823884010315,-0.38866639137268066
1772651317758668300,3.962668212890625,9.870569229125977,-1.4468690156936646,-0.36950257420539856
1772651317768672000,3.972672119140625,9.823258399963379,-1.42770516872406,-0.3982483148574829
1772651317778675700,3.98267578125,9.84182357788086,-1.4229142665863037,-0.3982483148574829
1772651317788679400,3.992679443359375,9.846614837646484,-1.4229142665863037,-0.3599206507205963
1772651317798683100,4.00268310546875,9.856196403503418,-1.432496190071106,-0.38387542963027954
1772651317808686600,4.0126865234375,9.832242012023926,-1.4372870922088623,-0.38387542963027954
1772651317818690300,4.022690185546875,9.860987663269043,-1.4420781135559082,-0.38866639137268066
1772651317828694000,4.032694091796875,9.860987663269043,-1.4468690156936646,-0.3982483148574829
1772651317838697700,4.04269775390625,9.846614837646484,-1.4468690156936646,-0.3790844678878784
1772651317848701400,4.052701416015625,9.837032318115234,-1.4181232452392578,-0.38866639137268066
1772651317858705200,4.062705078125,9.851405143737793,-1.4420781135559082,-0.38866639137268066
1772651317868708900,4.072708984375,9.84182357788086,-1.4756147861480713,-0.36950257420539856
1772651317878712600,4.082712646484375,9.832242012023926,-1.466032862663269,-0.39884716272354126
1772651317888716300,4.09271630859375,9.856196403503418,-1.470823884010315,-0.3940562307834625
1772651317898720000,4.102719970703125,9.860987663269043,-1.470823884010315,-0.3940562307834625
1772651317908723500,4.112723388671875,9.884942054748535,-1.466032862663269,-0.4084290862083435
1772651317918727200,4.12272705078125,9.856196403503418,-1.3893775939941406,-0.4228019714355469
1772651317928731000,4.13273095703125,9.865777969360352,-1.2696036100387573,-0.41322004795074463
1772651317938734600,4.142734619140625,9.894524574279785,-1.2312759160995483,-0.41801100969314575
1772651317948738300,4.15273828125,9.846614837646484,-1.3079313039779663,-0.35033872723579407
1772651317958742000,4.162741943359375,9.860987663269043,-1.4181232452392578,-0.3215929865837097
1772651317968745700,4.172745849609375,9.832242012023926,-1.5235244035720825,-0.33117491006851196
1772651317978749400,4.18274951171875,9.8274507522583,-1.5139424800872803,-0.4084290862083435
1772651317988753200,4.192753173828125,9.884942054748535,-1.4468690156936646,-0.43238386511802673
1772651317998756900,4.2027568359375,9.856196403503418,-1.4564509391784668,-0.39884716272354126
1772651318008760600,4.212760498046875,9.856196403503418,-1.5229254961013794,-0.34554776549339294
1772651318018764000,4.222763916015625,9.822659492492676,-1.5708351135253906,-0.30722013115882874
1772651318028767700,4.232767822265625,9.860987663269043,-1.613953709602356,-0.36051952838897705
1772651318038771500,4.242771484375,9.822659492492676,-1.5420893430709839,-0.4617284834384918
1772651318048774700,4.252774658203125,9.88973331451416,-1.4756147861480713,-0.5090391635894775
1772651318058777900,4.26277783203125,9.865777969360352,-1.4133323431015015,-0.4850844144821167
1772651318068780800,4.27278076171875,9.899314880371094,-1.3750046491622925,-0.41322004795074463
1772651318078783700,4.28278369140625,9.865777969360352,-1.3702137470245361,-0.3359658718109131
1772651318088786700,4.29278662109375,9.884343147277832,-1.3648239374160767,-0.31740090250968933
1772651318098789600,4.30278955078125,9.836433410644531,-1.3600329160690308,-0.3317737877368927
1772651318108792600,4.31279248046875,9.874761581420898,-1.407942533493042,-0.35632744431495667
1772651318118795500,4.32279541015625,9.855597496032715,-1.4750158786773682,-0.4042370021343231
1772651318128798500,4.332798583984375,9.817270278930664,-1.5468802452087402,-0.40483587980270386
1772651318138801700,4.3428017578125,9.826851844787598,-1.584609031677246,-0.38567203283309937
1772651318148804600,4.3528046875,9.859789848327637,-1.4887899160385132,-0.409626841545105
1772651318158807600,4.3628076171875,9.845417022705078,-1.3977617025375366,-0.4198076128959656
1772651318168810500,4.372810546875,9.859789848327637,-1.349852204322815,-0.43418049812316895
1772651318178813400,4.3828134765625,9.878355026245117,-1.349852204322815,-0.39585283398628235
1772651318188816400,4.39281640625,9.859190940856934,-1.4265074729919434,-0.35273420810699463
1772651318198819300,4.4028193359375,9.849609375,-1.492982029914856,-0.3239884674549103
1772651318208822300,4.412822265625,9.849609375,-1.5025639533996582,-0.35333308577537537
1772651318218825500,4.422825439453125,9.854399681091309,-1.4786090850830078,-0.4162144064903259
1772651318228828400,4.432828369140625,9.872964859008789,-1.492982029914856,-0.48867762088775635
1772651318238831400,4.442831298828125,9.853800773620605,-1.48819100856781,-0.4838866591453552
1772651318248834300,4.452834228515625,9.865777969360352,-1.4612419605255127,-0.4509488344192505
1772651318258837000,4.4628369140625,9.851405143737793,-1.42770516872406,-0.38387542963027954
1772651318268839000,4.4728388671875,9.870569229125977,-1.3702137470245361,-0.3305760324001312
1772651318278840800,4.4828408203125,9.856196403503418,-1.3606318235397339,-0.306621253490448
1772651318288842800,4.4928427734375,9.860987663269043,-1.3462589979171753,-0.31620317697525024
1772651318298844700,4.5028447265625,9.870569229125977,-1.4037504196166992,-0.3742935359477997
1772651318308846600,4.5128466796875,9.851405143737793,-1.4995695352554321,-0.38387542963027954
1772651318318848500,4.5228486328125,9.84182357788086,-1.504360556602478,-0.38866639137268066
1772651318328850400,4.532850341796875,9.865777969360352,-1.4995695352554321,-0.3934573531150818
1772651318338852400,4.542852294921875,9.870569229125977,-1.4516600370407104,-0.4365759789943695
1772651318348854300,4.552854248046875,9.865777969360352,-1.4229142665863037,-0.4317850172519684
1772651318358856200,4.562856201171875,9.846614837646484,-1.4181232452392578,-0.417412132024765
1772651318368858000,4.572858154296875,9.846614837646484,-1.4229142665863037,-0.38387542963027954
1772651318378860300,4.5828603515625,9.870569229125977,-1.4372870922088623,-0.34554776549339294
1772651318388862200,4.5928623046875,9.846614837646484,-1.4133323431015015,-0.3359658718109131
1772651318398864100,4.602864013671875,9.865777969360352,-1.3989595174789429,-0.36471161246299744
1772651318408866000,4.612865966796875,9.865777969360352,-1.3989595174789429,-0.4126211702823639
1772651318418868000,4.622867919921875,9.851405143737793,-1.432496190071106,-0.42699405550956726
1772651318428870000,4.632869873046875,9.846614837646484,-1.4564509391784668,-0.4126211702823639
1772651318438871800,4.642871826171875,9.851405143737793,-1.4899876117706299,-0.40303927659988403
1772651318448873700,4.652873779296875,9.860987663269043,-1.4947786331176758,-0.3892652690410614
1772651318458875600,4.662875732421875,9.822659492492676,-1.4564509391784668,-0.3742935359477997
1772651318468877600,4.672877685546875,9.870569229125977,-1.4181232452392578,-0.3599206507205963
1772651318478879500,4.68287939453125,9.837032318115234,-1.4085414409637451,-0.3599206507205963
1772651318488881400,4.69288134765625,9.856196403503418,-1.4181232452392578,-0.35033872723579407
1772651318498883300,4.70288330078125,9.846614837646484,-1.4468690156936646,-0.37489238381385803
1772651318508885200,4.71288525390625,9.88015079498291,-1.4516600370407104,-0.41801100969314575
1772651318518887200,4.72288720703125,9.865777969360352,-1.4516600370407104,-0.4467567503452301
1772651318528889000,4.73288916015625,9.870569229125977,-1.4420781135559082,-0.441965788602829
1772651318538891000,4.74289111328125,9.860987663269043,-1.4420781135559082,-0.3940562307834625
1772651318548893200,4.75289306640625,9.846614837646484,-1.4420781135559082,-0.3701014220714569
1772651318558895000,4.76289501953125,9.822659492492676,-1.432496190071106,-0.3461466431617737
1772651318568897000,4.77289697265625,9.856196403503418,-1.4181232452392578,-0.3509376049041748
1772651318578899000,4.78289892578125,9.851405143737793,-1.4223153591156006,-0.37489238381385803
1772651318588900900,4.79290087890625,9.856196403503418,-1.441479206085205,-0.4036381244659424
1772651318598902800,4.80290283203125,9.856196403503418,-1.4271063804626465,-0.41801100969314575
1772651318608904700,4.81290478515625,9.846614837646484,-1.446270227432251,-0.41801100969314575
1772651318618906600,4.82290673828125,9.865777969360352,-1.465433955192566,-0.4084290862083435
1772651318628908500,4.832908447265625,9.879552841186523,-1.4558520317077637,-0.3940562307834625
1772651318638910500,4.842910400390625,9.851405143737793,-1.4558520317077637,-0.37968334555625916
1772651318658914300,4.862914306640625,9.832242012023926,-1.4516600370407104,-0.35033872723579407
1772651318668916200,4.872916259765625,9.865777969360352,-1.4564509391784668,-0.34554776549339294
1772651318678918100,4.882918212890625,9.851405143737793,-1.4612419605255127,-0.36950257420539856
1772651318688920000,4.892920166015625,9.832242012023926,-1.4804056882858276,-0.3940562307834625
1772651318698922000,4.902921875,9.860987663269043,-1.466032862663269,-0.41801100969314575
1772651318708924000,4.912923828125,9.84182357788086,-1.4133323431015015,-0.427592933177948
1772651318718925800,4.92292578125,9.856196403503418,-1.3989595174789429,-0.36471161246299744
1772651318728927700,4.932927734375,9.846614837646484,-1.4085414409637451,-0.3844743072986603
1772651318738929700,4.9429296875,9.84182357788086,-1.4516600370407104,-0.35033872723579407
1772651318748931600,4.952931640625,9.870569229125977,-1.4468690156936646,-0.31201109290122986
1772651318758934000,4.96293408203125,9.851405143737793,-1.42770516872406,-0.3599206507205963
1772651318768937000,4.97293701171875,9.846614837646484,-1.4372870922088623,-0.3892652690410614
1772651318778940000,4.98293994140625,9.856196403503418,-1.4372870922088623,-0.4659205675125122
1772651318788942800,4.99294287109375,9.88015079498291,-1.4612419605255127,-0.4659205675125122
1772651318798945500,5.002945556640625,9.870569229125977,-1.466032862663269,-0.441965788602829
1772651318808948500,5.012948486328125,9.856196403503418,-1.4468690156936646,-0.4036381244659424
1772651318818951400,5.022951416015625,9.908897399902344,-1.4085414409637451,-0.36950257420539856
1772651318828954400,5.032954345703125,9.856196403503418,-1.3989595174789429,-0.3407568335533142
1772651318838957000,5.04295703125,9.860987663269043,-1.4229142665863037,-0.36471161246299744
1772651318848960000,5.0529599609375,9.851405143737793,-1.4516600370407104,-0.36471161246299744
1772651318858963000,5.062962890625,9.865777969360352,-1.4851967096328735,-0.3940562307834625
1772651318868966000,5.0729658203125,9.865777969360352,-1.504360556602478,-0.427592933177948
1772651318878968600,5.082968505859375,9.851405143737793,-1.4612419605255127,-0.45633867383003235
1772651318888971500,5.092971435546875,9.837032318115234,-1.42770516872406,-0.43717482686042786
1772651318908977200,5.11297705078125,9.856196403503418,-1.4037504196166992,-0.3359658718109131
1772651318918980000,5.12297998046875,9.856196403503418,-1.4181232452392578,-0.3215929865837097
1772651318928983000,5.132983154296875,9.84182357788086,-1.4229142665863037,-0.3359658718109131
1772651318938986000,5.142986083984375,9.846614837646484,-1.42770516872406,-0.36471161246299744
1772651318948988700,5.15298876953125,9.88973331451416,-1.4372870922088623,-0.41322004795074463
1772651318958991600,5.16299169921875,9.865777969360352,-1.466032862663269,-0.47550249099731445
1772651318968994600,5.17299462890625,9.860987663269043,-1.432496190071106,-0.4515477120876312
1772651318978997500,5.18299755859375,9.837032318115234,-1.4468690156936646,-0.4084290862083435
1772651318989000400,5.19300048828125,9.884942054748535,-1.4804056882858276,-0.38387542963027954
1772651318999003100,5.203003173828125,9.832242012023926,-1.466032862663269,-0.36950257420539856
1772651319009006000,5.213006103515625,9.884942054748535,-1.4085414409637451,-0.3359658718109131
1772651319019009000,5.223009033203125,9.851405143737793,-1.4229142665863037,-0.33117491006851196
1772651319029012000,5.233011962890625,9.899314880371094,-1.4372870922088623,-0.36471161246299744
1772651319039014700,5.2430146484375,9.856196403503418,-1.4756147861480713,-0.3742935359477997
1772651319049017600,5.253017578125,9.875360488891602,-1.4756147861480713,-0.4228019714355469
1772651319059020500,5.2630205078125,9.84182357788086,-1.4564509391784668,-0.43238386511802673
1772651319069023500,5.2730234375,9.88015079498291,-1.4468690156936646,-0.43717482686042786
1772651319079026200,5.283026123046875,9.870569229125977,-1.4181232452392578,-0.41801100969314575
1772651319089029000,5.293029052734375,9.884942054748535,-1.42770516872406,-0.3599206507205963
1772651319099032000,5.303031982421875,9.837032318115234,-1.4420781135559082,-0.32638394832611084
1772651319109034800,5.31303466796875,9.88973331451416,-1.4564509391784668,-0.3407568335533142
1772651319119037700,5.32303759765625,9.813077926635742,-1.4612419605255127,-0.3599206507205963
1772651319139043600,5.343043701171875,9.837032318115234,-1.4804056882858276,-0.427592933177948
1772651319149046300,5.35304638671875,9.851405143737793,-1.4468690156936646,-0.4084290862083435
1772651319159049200,5.36304931640625,9.860987663269043,-1.4372870922088623,-0.4036381244659424
1772651319169052200,5.37305224609375,9.851405143737793,-1.432496190071106,-0.3940562307834625
1772651319179055000,5.38305517578125,9.865777969360352,-1.4372870922088623,-0.36051952838897705
1772651319189058000,5.39305810546875,9.851405143737793,-1.4085414409637451,-0.34554776549339294
1772651319199060700,5.403060791015625,9.856196403503418,-1.4181232452392578,-0.34554776549339294
1772651319209063700,5.413063720703125,9.860987663269043,-1.4564509391784668,-0.3557285666465759
1772651319219066600,5.423066650390625,9.870569229125977,-1.4893888235092163,-0.3844743072986603
1772651319229069600,5.433069580078125,9.856196403503418,-1.4750158786773682,-0.427592933177948
1772651319239072300,5.443072265625,9.837032318115234,-1.4564509391784668,-0.43717482686042786
1772651319249075200,5.4530751953125,9.8274507522583,-1.441479206085205,-0.43298274278640747
1772651319259078700,5.46307861328125,9.869970321655273,-1.4366883039474487,-0.4036381244659424
1772651319269083000,5.473082763671875,9.865179061889648,-1.4366883039474487,-0.3653104901313782
1772651319279087000,5.483087158203125,9.855597496032715,-1.4318972826004028,-0.3317737877368927
1772651319289091300,5.49309130859375,9.85080623626709,-1.4271063804626465,-0.3509376049041748
1772651319309100000,5.51310009765625,9.841224670410156,-1.4366883039474487,-0.4042370021343231
1772651319319104300,5.523104248046875,9.879552841186523,-1.441479206085205,-0.4234008193016052
1772651319329108500,5.5331083984375,9.865179061889648,-1.4558520317077637,-0.4377737045288086
1772651319339112700,5.54311279296875,9.831643104553223,-1.4318972826004028,-0.42819178104400635
1772651319349117000,5.553116943359375,9.817869186401367,-1.4318972826004028,-0.38986414670944214
1772651319359121200,5.56312109375,9.874761581420898,-1.4318972826004028,-0.3653104901313782
1772651319369125400,5.57312548828125,9.865179061889648,-1.446270227432251,-0.3509376049041748
1772651319379129600,5.583129638671875,9.884343147277832,-1.4941797256469727,-0.3802822232246399
1772651319389133800,5.5931337890625,9.855597496032715,-1.4989707469940186,-0.41381892561912537
1772651319399138000,5.603137939453125,9.884343147277832,-1.4510611295700073,-0.40902796387672424
1772651319409142300,5.613142333984375,9.812479019165039,-1.3983606100082397,-0.3802822232246399
1772651319419146500,5.623146484375,9.86038875579834,-1.3600329160690308,-0.385073184967041
1772651319429151000,5.63315087890625,9.841224670410156,-1.3648239374160767,-0.38986414670944214
1772651319439155200,5.6431552734375,9.889134407043457,-1.3887786865234375,-0.3946550786495209
1772651319449159400,5.653159423828125,9.870569229125977,-1.4181232452392578,-0.39884716272354126
1772651319459163600,5.66316357421875,9.860987663269043,-1.466032862663269,-0.36950257420539856
1772651319469167900,5.67316796875,9.832242012023926,-1.4899876117706299,-0.37968334555625916
1772651319479172000,5.683172119140625,9.870569229125977,-1.5091514587402344,-0.39884716272354126
1772651319489176300,5.69317626953125,9.851405143737793,-1.4516600370407104,-0.3892652690410614
1772651319499180500,5.7031806640625,9.846614837646484,-1.4420781135559082,-0.38387542963027954
1772651319509184800,5.713184814453125,9.870569229125977,-1.4037504196166992,-0.3940562307834625
1772651319519189000,5.72318896484375,9.846614837646484,-1.3797956705093384,-0.3790844678878784
1772651319529193200,5.733193115234375,9.875360488891602,-1.3845865726470947,-0.4084290862083435
1772651319539197400,5.743197509765625,9.870569229125977,-1.4420781135559082,-0.4084290862083435
1772651319549201700,5.75320166015625,9.851405143737793,-1.4516600370407104,-0.41322004795074463
1772651319559206000,5.763205810546875,9.837032318115234,-1.4804056882858276,-0.38387542963027954
1772651319569210400,5.77321044921875,9.846614837646484,-1.4947786331176758,-0.3790844678878784
1772651319579214300,5.78321435546875,9.837032318115234,-1.4995695352554321,-0.38866639137268066
1772651319589218600,5.793218505859375,9.856196403503418,-1.4947786331176758,-0.36950257420539856
1772651319599223000,5.80322314453125,9.846614837646484,-1.4516600370407104,-0.36471161246299744
1772651319609227300,5.813227294921875,9.846614837646484,-1.42770516872406,-0.40303927659988403
1772651319619231500,5.8232314453125,9.860987663269043,-1.394168496131897,-0.3982483148574829
1772651319629235700,5.833235595703125,9.875360488891602,-1.4085414409637451,-0.417412132024765
1772651319639240000,5.843239990234375,9.837032318115234,-1.394168496131897,-0.3934573531150818
1772651319649244200,5.853244140625,9.851405143737793,-1.441479206085205,-0.3892652690410614
1772651319659248400,5.863248291015625,9.851405143737793,-1.4750158786773682,-0.3940562307834625
1772651319669252600,5.873252685546875,9.837032318115234,-1.4893888235092163,-0.37968334555625916
1772651319679256800,5.8832568359375,9.860987663269043,-1.4702249765396118,-0.37489238381385803
1772651319689261000,5.893260986328125,9.860987663269043,-1.4366883039474487,-0.37489238381385803
1772651319699265300,5.903265380859375,9.870569229125977,-1.4366883039474487,-0.3892652690410614
1772651319709269500,5.91326953125,9.846614837646484,-1.407942533493042,-0.4036381244659424
1772651319719273700,5.923273681640625,9.879552841186523,-1.407942533493042,-0.41322004795074463
1772651319729278000,5.93327783203125,9.851405143737793,-1.3983606100082397,-0.41322004795074463
1772651319739282400,5.943282470703125,9.893925666809082,-1.4318972826004028,-0.3940562307834625
1772651319749286700,5.95328662109375,9.889134407043457,-1.4702249765396118,-0.4036381244659424
1772651319759290600,5.96329052734375,9.865777969360352,-1.4941797256469727,-0.4036381244659424
1772651319769294600,5.973294677734375,9.846614837646484,-1.4606430530548096,-0.3844743072986603
1772651319779298600,5.983298583984375,9.851405143737793,-1.446270227432251,-0.3653104901313782
1772651319789302500,5.993302490234375,9.84182357788086,-1.4175244569778442,-0.3892652690410614
1772651319799306500,6.003306396484375,9.856196403503418,-1.3935695886611938,-0.3940562307834625
1772651319809310500,6.013310546875,9.865179061889648,-1.403151512145996,-0.41322004795074463
1772651319819314400,6.023314453125,9.832242012023926,-1.4127334356307983,-0.4228019714355469
1772651319829318400,6.033318359375,9.84182357788086,-1.407942533493042,-0.39884716272354126
1772651319839322400,6.043322265625,9.851405143737793,-1.4510611295700073,-0.39884716272354126
1772651319849326300,6.053326416015625,9.875360488891602,-1.4702249765396118,-0.4036381244659424
1772651319859330300,6.063330322265625,9.851405143737793,-1.4558520317077637,-0.3892652690410614
1772651319869334300,6.073334228515625,9.837032318115234,-1.4558520317077637,-0.3701014220714569
1772651319879338200,6.083338134765625,9.88015079498291,-1.4510611295700073,-0.37968334555625916
1772651319889342200,6.09334228515625,9.860987663269043,-1.4420781135559082,-0.3940562307834625
1772651319899346200,6.10334619140625,9.8274507522583,-1.4229142665863037,-0.41801100969314575
1772651319909350100,6.11335009765625,9.88015079498291,-1.4181232452392578,-0.39884716272354126
1772651319919354400,6.123354248046875,9.884942054748535,-1.4510611295700073,-0.43238386511802673
1772651319929358300,6.1333583984375,9.884942054748535,-1.4750158786773682,-0.4084290862083435
1772651319939362000,6.143362060546875,9.84182357788086,-1.4516600370407104,-0.3653104901313782
1772651319949366300,6.1533662109375,9.856196403503418,-1.465433955192566,-0.3844743072986603
1772651319959370200,6.163370361328125,9.860987663269043,-1.4420781135559082,-0.37968334555625916
1772651319969374200,6.173374267578125,9.846614837646484,-1.42770516872406,-0.3844743072986603
1772651319979378200,6.183378173828125,9.846614837646484,-1.4229142665863037,-0.41322004795074463
1772651319989382100,6.193382080078125,9.856196403503418,-1.4468690156936646,-0.4084290862083435
1772651319999386000,6.20338623046875,9.865777969360352,-1.4181232452392578,-0.3940562307834625
1772651320009390000,6.21339013671875,9.851405143737793,-1.4037504196166992,-0.4036381244659424
1772651320019394000,6.22339404296875,9.870569229125977,-1.42770516872406,-0.4084290862083435
1772651320029398000,6.23339794921875,9.91308879852295,-1.4468690156936646,-0.4036381244659424
1772651320039402000,6.243402099609375,9.88015079498291,-1.4516600370407104,-0.3892652690410614
1772651320049406000,6.253406005859375,9.846614837646484,-1.4558520317077637,-0.37489238381385803
1772651320059410000,6.263409912109375,9.846614837646484,-1.4510611295700073,-0.3701014220714569
1772651320069414000,6.273413818359375,9.869970321655273,-1.4318972826004028,-0.3701014220714569
1772651320079417900,6.28341796875,9.851405143737793,-1.4606430530548096,-0.3892652690410614
1772651320089421800,6.293421875,9.86038875579834,-1.446270227432251,-0.4036381244659424
1772651320099425800,6.30342578125,9.851405143737793,-1.4366883039474487,-0.41322004795074463
1772651320109429800,6.3134296875,9.846614837646484,-1.4271063804626465,-0.4084290862083435
1772651320119433700,6.323433837890625,9.84182357788086,-1.441479206085205,-0.3892652690410614
1772651320129437700,6.333437744140625,9.865179061889648,-1.4510611295700073,-0.3892652690410614
1772651320139441700,6.343441650390625,9.846614837646484,-1.441479206085205,-0.3892652690410614
1772651320149445600,6.353445556640625,9.86038875579834,-1.4558520317077637,-0.3940562307834625
1772651320159449600,6.36344970703125,9.832242012023926,-1.4558520317077637,-0.4036381244659424
1772651320169453600,6.37345361328125,9.86038875579834,-1.4366883039474487,-0.39884716272354126
1772651320179457500,6.38345751953125,9.874761581420898,-1.4318972826004028,-0.4084290862083435
1772651320189461500,6.39346142578125,9.865179061889648,-1.441479206085205,-0.3940562307834625
1772651320199465500,6.403465576171875,9.855597496032715,-1.4558520317077637,-0.4084290862083435
1772651320209469400,6.413469482421875,9.846015930175781,-1.4223153591156006,-0.3653104901313782
1772651320219473400,6.423473388671875,9.865179061889648,-1.4510611295700073,-0.37489238381385803
1772651320229477400,6.433477294921875,9.832242012023926,-1.4558520317077637,-0.3940562307834625
1772651320239481300,6.4434814453125,9.85080623626709,-1.4366883039474487,-0.37489238381385803
1772651320249485300,6.4534853515625,9.837032318115234,-1.446270227432251,-0.3892652690410614
1772651320259489000,6.463489013671875,9.832242012023926,-1.4510611295700073,-0.39884716272354126
1772651320269492500,6.473492431640625,9.86038875579834,-1.4318972826004028,-0.3940562307834625
1772651320279496000,6.483495849609375,9.855597496032715,-1.441479206085205,-0.4084290862083435
1772651320289499400,6.49349951171875,9.846015930175781,-1.4366883039474487,-0.37489238381385803
1772651320299502800,6.5035029296875,9.86038875579834,-1.4558520317077637,-0.37968334555625916
1772651320309506000,6.513506103515625,9.86038875579834,-1.4318972826004028,-0.37489238381385803
1772651320319509500,6.523509521484375,9.841224670410156,-1.4318972826004028,-0.39884716272354126
1772651320329513000,6.533512939453125,9.85080623626709,-1.4366883039474487,-0.3892652690410614
1772651320339516400,6.543516357421875,9.855597496032715,-1.4318972826004028,-0.3844743072986603
1772651320349520000,6.553519775390625,9.869970321655273,-1.441479206085205,-0.4042370021343231
1772651320359523300,6.5635234375,9.86038875579834,-1.4558520317077637,-0.3940562307834625
1772651320379530000,6.583530029296875,9.865179061889648,-1.441479206085205,-0.399446040391922
1772651320389533400,6.593533447265625,9.86038875579834,-1.4271063804626465,-0.4042370021343231
1772651320399537000,6.603536865234375,9.855597496032715,-1.4175244569778442,-0.3892652690410614
1772651320409540400,6.613540283203125,9.874761581420898,-1.441479206085205,-0.3844743072986603
1772651320419543800,6.623543701171875,9.85080623626709,-1.446270227432251,-0.37489238381385803
1772651320429547000,6.633547119140625,9.865179061889648,-1.446270227432251,-0.3946550786495209
1772651320439550500,6.643550537109375,9.836433410644531,-1.3983606100082397,-0.4042370021343231
1772651320449554000,6.653553955078125,9.855597496032715,-1.4366883039474487,-0.41381892561912537
1772651320459557400,6.663557373046875,9.855597496032715,-1.4510611295700073,-0.3844743072986603
1772651320469560800,6.673560791015625,9.86038875579834,-1.4318972826004028,-0.3892652690410614
1772651320479564300,6.683564208984375,9.855597496032715,-1.446270227432251,-0.39884716272354126
1772651320489567700,6.693567626953125,9.86038875579834,-1.4558520317077637,-0.37968334555625916
1772651320499571200,6.7035712890625,9.837032318115234,-1.4366883039474487,-0.3844743072986603
1772651320509574400,6.713574462890625,9.869970321655273,-1.441479206085205,-0.39884716272354126
1772651320519577900,6.723577880859375,9.85080623626709,-1.446270227432251,-0.3892652690410614
1772651320529581300,6.733581298828125,9.846015930175781,-1.446270227432251,-0.37489238381385803
1772651320539584800,6.743584716796875,9.879552841186523,-1.4223153591156006,-0.39884716272354126
1772651320549588200,6.753588134765625,9.85080623626709,-1.4318972826004028,-0.40902796387672424
1772651320559591400,6.76359130859375,9.832242012023926,-1.4127334356307983,-0.3844743072986603
1772651320569595000,6.773594970703125,9.846015930175781,-1.4510611295700073,-0.37489238381385803
1772651320579598300,6.783598388671875,9.855597496032715,-1.441479206085205,-0.3701014220714569
1772651320589601800,6.793601806640625,9.841224670410156,-1.4271063804626465,-0.37968334555625916
1772651320599605200,6.803605224609375,9.86038875579834,-1.4510611295700073,-0.3940562307834625
1772651320609608700,6.813608642578125,9.841224670410156,-1.4366883039474487,-0.3892652690410614
1772651320619612200,6.823612060546875,9.879552841186523,-1.4510611295700073,-0.3844743072986603
1772651320629615400,6.833615478515625,9.879552841186523,-1.446270227432251,-0.3844743072986603
1772651320639618800,6.843618896484375,9.889134407043457,-1.446270227432251,-0.39884716272354126
1772651320649622300,6.853622314453125,9.865179061889648,-1.4223153591156006,-0.39884716272354126
1772651320659625700,6.863625732421875,9.855597496032715,-1.441479206085205,-0.3940562307834625
1772651320669629200,6.873629150390625,9.832242012023926,-1.4271063804626465,-0.39884716272354126
1772651320679632600,6.883632568359375,9.851405143737793,-1.4318972826004028,-0.4036381244659424
1772651320689636000,6.893635986328125,9.817869186401367,-1.4366883039474487,-0.3940562307834625
1772651320699639300,6.903639404296875,9.865179061889648,-1.446270227432251,-0.3940562307834625
1772651320709642800,6.913642822265625,9.832242012023926,-1.4702249765396118,-0.3940562307834625
1772651320719646200,6.923646240234375,9.84182357788086,-1.4271063804626465,-0.3940562307834625
1772651320729649700,6.933649658203125,9.846614837646484,-1.4127334356307983,-0.39884716272354126
1772651320739653000,6.943653076171875,9.86038875579834,-1.446270227432251,-0.3844743072986603
1772651320749656600,6.953656494140625,9.846614837646484,-1.4366883039474487,-0.37968334555625916
1772651320759659800,6.96365966796875,9.846614837646484,-1.446270227432251,-0.36051952838897705
1772651320769663000,6.9736630859375,9.869970321655273,-1.4318972826004028,-0.37489238381385803
1772651320779666200,6.983666259765625,9.865179061889648,-1.4271063804626465,-0.3892652690410614
1772651320789669400,6.99366943359375,9.851405143737793,-1.4366883039474487,-0.37968334555625916
1772651320799672600,7.003672607421875,9.865179061889648,-1.4366883039474487,-0.37489238381385803
1772651320809676000,7.013676025390625,9.869970321655273,-1.4366883039474487,-0.3844743072986603
1772651320819679200,7.02367919921875,9.86038875579834,-1.4318972826004028,-0.3940562307834625
1772651320829682400,7.033682373046875,9.846614837646484,-1.4318972826004028,-0.3653104901313782
1772651320839685600,7.043685546875,9.837032318115234,-1.446270227432251,-0.37489238381385803
1772651320849688800,7.053688720703125,9.84182357788086,-1.446270227432251,-0.3940562307834625
1772651320859692300,7.0636923828125,9.84182357788086,-1.4318972826004028,-0.3844743072986603
1772651320869695500,7.073695556640625,9.856196403503418,-1.446270227432251,-0.3844743072986603
1772651320879698700,7.08369873046875,9.851405143737793,-1.4318972826004028,-0.3940562307834625
1772651320889702000,7.093701904296875,9.88015079498291,-1.4558520317077637,-0.3940562307834625
1772651320899705000,7.103705078125,9.860987663269043,-1.4558520317077637,-0.3892652690410614
1772651320909708300,7.113708251953125,9.837032318115234,-1.432496190071106,-0.3844743072986603
1772651320919711500,7.12371142578125,9.870569229125977,-1.4558520317077637,-0.37968334555625916
1772651320929715000,7.13371484375,9.856196403503418,-1.4420781135559082,-0.3844743072986603
1772651320939718100,7.14371826171875,9.846614837646484,-1.4420781135559082,-0.3653104901313782
1772651320949721300,7.153721435546875,9.884942054748535,-1.432496190071106,-0.37489238381385803
1772651320959724500,7.163724609375,9.856196403503418,-1.4420781135559082,-0.3892652690410614
1772651320969727700,7.173727783203125,9.851405143737793,-1.4420781135559082,-0.3940562307834625
1772651320979731000,7.18373095703125,9.84182357788086,-1.4516600370407104,-0.3844743072986603
1772651320989734400,7.193734375,9.884942054748535,-1.4420781135559082,-0.3844743072986603
1772651320999737600,7.203737548828125,9.860987663269043,-1.4516600370407104,-0.3940562307834625
1772651321009740800,7.21374072265625,9.865777969360352,-1.4372870922088623,-0.3892652690410614
1772651321019744000,7.223743896484375,9.860987663269043,-1.42770516872406,-0.3701014220714569
1772651321029747200,7.233747314453125,9.856196403503418,-1.4516600370407104,-0.36051952838897705
1772651321039750400,7.24375048828125,9.870569229125977,-1.466032862663269,-0.3892652690410614
1772651321049753900,7.25375390625,9.86038875579834,-1.4366883039474487,-0.399446040391922
1772651321059757000,7.263757080078125,9.879552841186523,-1.4271063804626465,-0.38986414670944214
1772651321069760300,7.27376025390625,9.869970321655273,-1.446270227432251,-0.3802822232246399
1772651321079763500,7.283763427734375,9.865179061889648,-1.441479206085205,-0.4042370021343231
1772651321099769900,7.303769775390625,9.869970321655273,-1.4318972826004028,-0.3802822232246399
1772651321109773000,7.31377294921875,9.889134407043457,-1.446270227432251,-0.385073184967041
1772651321119776500,7.323776611328125,9.855597496032715,-1.4271063804626465,-0.3946550786495209
1772651321129779700,7.33377978515625,9.855597496032715,-1.441479206085205,-0.38986414670944214
1772651321139783000,7.343782958984375,9.855597496032715,-1.4318972826004028,-0.399446040391922
1772651321149786000,7.3537861328125,9.869970321655273,-1.441479206085205,-0.38986414670944214
1772651321159789300,7.363789306640625,9.85080623626709,-1.4366883039474487,-0.3946550786495209
1772651321169792500,7.37379248046875,9.869970321655273,-1.446270227432251,-0.4234008193016052
1772651321179796000,7.3837958984375,9.869970321655273,-1.446270227432251,-0.40902796387672424
1772651321189799200,7.393799072265625,9.889134407043457,-1.4223153591156006,-0.3802822232246399
1772651321199802400,7.40380224609375,9.869970321655273,-1.441479206085205,-0.3802822232246399
1772651321209805600,7.4138056640625,9.874761581420898,-1.4366883039474487,-0.37549126148223877
1772651321219808800,7.423808837890625,9.86038875579834,-1.4318972826004028,-0.37070029973983765
1772651321229812000,7.43381201171875,9.884343147277832,-1.4318972826004028,-0.38986414670944214
1772651321239815200,7.443815185546875,9.865179061889648,-1.446270227432251,-0.399446040391922
1772651321249818600,7.453818603515625,9.837032318115234,-1.4558520317077637,-0.4036381244659424
1772651321259821300,7.4638212890625,9.870569229125977,-1.4181232452392578,-0.37968334555625916
1772651321269823500,7.473823486328125,9.89871597290039,-1.42770516872406,-0.3701014220714569
1772651321279826000,7.483825927734375,9.875360488891602,-1.4420781135559082,-0.3940562307834625
1772651321289828400,7.493828369140625,9.846614837646484,-1.4420781135559082,-0.39884716272354126
1772651321299830500,7.50383056640625,9.856196403503418,-1.4372870922088623,-0.37968334555625916
1772651321309833000,7.5138330078125,9.846614837646484,-1.4516600370407104,-0.3599206507205963
1772651321319835400,7.52383544921875,9.846614837646484,-1.4516600370407104,-0.39884716272354126
1772651321329837600,7.533837646484375,9.846614837646484,-1.4564509391784668,-0.39884716272354126
1772651321339840000,7.543840087890625,9.851405143737793,-1.4229142665863037,-0.3742935359477997
1772651321349842400,7.553842529296875,9.856196403503418,-1.432496190071106,-0.36950257420539856
1772651321359844600,7.5638447265625,9.856196403503418,-1.466032862663269,-0.3742935359477997
1772651321369847000,7.573846923828125,9.875360488891602,-1.4612419605255127,-0.3940562307834625
1772651321379849500,7.583849365234375,9.846614837646484,-1.432496190071106,-0.4036381244659424
1772651321389851600,7.5938515625,9.84182357788086,-1.432496190071106,-0.41322004795074463
1772651321399854000,7.60385400390625,9.884942054748535,-1.4372870922088623,-0.4084290862083435
1772651321409856500,7.6138564453125,9.860987663269043,-1.4468690156936646,-0.38866639137268066
1772651321419858700,7.623858642578125,9.865777969360352,-1.4372870922088623,-0.3742935359477997
1772651321429861000,7.633861083984375,9.84182357788086,-1.4420781135559082,-0.3742935359477997
1772651321439863300,7.64386328125,9.865777969360352,-1.4516600370407104,-0.3934573531150818
1772651321449865700,7.65386572265625,9.846614837646484,-1.4372870922088623,-0.3844743072986603
1772651321459868200,7.6638681640625,9.860987663269043,-1.4510611295700073,-0.4084290862083435
1772651321469870300,7.673870361328125,9.856196403503418,-1.42770516872406,-0.3844743072986603
1772651321479872800,7.683872802734375,9.837032318115234,-1.42770516872406,-0.3844743072986603
1772651321489875200,7.693875244140625,9.856196403503418,-1.4558520317077637,-0.39884716272354126
1772651321499877400,7.70387744140625,9.851405143737793,-1.4468690156936646,-0.3844743072986603
1772651321509879800,7.7138798828125,9.88015079498291,-1.4468690156936646,-0.39884716272354126
1772651321519882200,7.72388232421875,9.860987663269043,-1.42770516872406,-0.4036381244659424
1772651321529884400,7.733884521484375,9.851405143737793,-1.4372870922088623,-0.3892652690410614
1772651321539886800,7.743886962890625,9.856196403503418,-1.4468690156936646,-0.3940562307834625
1772651321549889000,7.753888916015625,9.889134407043457,-1.4420781135559082,-0.4036381244659424
1772651321559891500,7.763891357421875,9.865777969360352,-1.4420781135559082,-0.39884716272354126
1772651321569894000,7.773893798828125,9.875360488891602,-1.4516600370407104,-0.3940562307834625
1772651321579896000,7.78389599609375,9.870569229125977,-1.4420781135559082,-0.3844743072986603
1772651321589898500,7.7938984375,9.889134407043457,-1.4229142665863037,-0.3892652690410614
1772651321599901000,7.80390087890625,9.88015079498291,-1.4516600370407104,-0.4036381244659424
1772651321609903000,7.813903076171875,9.846614837646484,-1.4468690156936646,-0.3892652690410614
1772651321619905500,7.823905517578125,9.860987663269043,-1.4229142665863037,-0.3940562307834625
1772651321629908000,7.833907958984375,9.870569229125977,-1.4516600370407104,-0.39884716272354126
1772651321639910100,7.84391015625,9.846614837646484,-1.4606430530548096,-0.3892652690410614
1772651321649912600,7.85391259765625,9.851405143737793,-1.42770516872406,-0.3940562307834625
1772651321659915000,7.8639150390625,9.846614837646484,-1.4372870922088623,-0.3892652690410614
1772651321669917200,7.873917236328125,9.851405143737793,-1.4372870922088623,-0.3701014220714569
1772651321679919600,7.883919677734375,9.870569229125977,-1.432496190071106,-0.3551296889781952
1772651321689922000,7.893922119140625,9.865777969360352,-1.42770516872406,-0.3653104901313782
1772651321699924200,7.90392431640625,9.832242012023926,-1.432496190071106,-0.3940562307834625
1772651321709926700,7.9139267578125,9.865777969360352,-1.4372870922088623,-0.3892652690410614
1772651321719929000,7.92392919921875,9.856196403503418,-1.4372870922088623,-0.4036381244659424
1772651321729931300,7.93393115234375,9.832242012023926,-1.4612419605255127,-0.39884716272354126
1772651321739933700,7.94393359375,9.870569229125977,-1.4516600370407104,-0.3940562307834625
1772651321749936000,7.95393603515625,9.84182357788086,-1.4612419605255127,-0.4036381244659424
1772651321759938800,7.963938720703125,9.851405143737793,-1.4372870922088623,-0.3844743072986603
1772651321769942000,7.97394189453125,9.856196403503418,-1.432496190071106,-0.3940562307834625
1772651321779945000,7.983945068359375,9.846614837646484,-1.4229142665863037,-0.3892652690410614
1772651321789948200,7.9939482421875,9.846614837646484,-1.4564509391784668,-0.3940562307834625
1772651321799951400,8.003951416015624,9.846614837646484,-1.4420781135559082,-0.4036381244659424
1772651321809954300,8.013954345703125,9.894524574279785,-1.4420781135559082,-0.3892652690410614
1772651321819957500,8.02395751953125,9.875360488891602,-1.4516600370407104,-0.4036381244659424
1772651321829960400,8.03396044921875,9.884942054748535,-1.4229142665863037,-0.39884716272354126
1772651321839963600,8.043963623046874,9.865777969360352,-1.4564509391784668,-0.4084290862083435
1772651321849966800,8.053966796875,9.855597496032715,-1.4271063804626465,-0.3892652690410614
1772651321859970000,8.063969970703125,9.855597496032715,-1.4366883039474487,-0.37489238381385803
1772651321869973000,8.073972900390626,9.869970321655273,-1.4510611295700073,-0.37489238381385803
1772651321879976200,8.08397607421875,9.822659492492676,-1.4366883039474487,-0.3892652690410614
1772651321889979100,8.093979248046875,9.855597496032715,-1.4366883039474487,-0.3844743072986603
1772651321899982300,8.103982421875,9.889134407043457,-1.446270227432251,-0.37968334555625916
1772651321909985500,8.113985595703125,9.86038875579834,-1.465433955192566,-0.37489238381385803
1772651321919988700,8.12398876953125,9.855597496032715,-1.446270227432251,-0.39884716272354126
1772651321929991700,8.13399169921875,9.86038875579834,-1.446270227432251,-0.40902796387672424
1772651321939995000,8.143994873046875,9.884343147277832,-1.446270227432251,-0.399446040391922
1772651321949998000,8.153998046875,9.846015930175781,-1.441479206085205,-0.3844743072986603
1772651321960001000,8.1640009765625,9.874761581420898,-1.4702249765396118,-0.399446040391922
1772651321970004200,8.174004150390624,9.89871597290039,-1.4510611295700073,-0.3844743072986603
1772651321980007200,8.184007080078125,9.85080623626709,-1.4318972826004028,-0.38986414670944214
1772651321990010400,8.19401025390625,9.855597496032715,-1.4366883039474487,-0.3946550786495209
1772651322000013600,8.204013671875,9.865179061889648,-1.465433955192566,-0.3946550786495209
1772651322010016800,8.214016845703124,9.889134407043457,-1.4510611295700073,-0.385073184967041
1772651322020019700,8.224019775390625,9.865179061889648,-1.4318972826004028,-0.37070029973983765
1772651322030023000,8.23402294921875,9.86038875579834,-1.446270227432251,-0.3802822232246399
1772651322040025900,8.24402587890625,9.865179061889648,-1.4366883039474487,-0.399446040391922
1772651322050029000,8.254029052734374,9.855597496032715,-1.4271063804626465,-0.3844743072986603
1772651322060032300,8.2640322265625,9.85080623626709,-1.4510611295700073,-0.3653104901313782
1772651322070035500,8.274035400390625,9.879552841186523,-1.441479206085205,-0.37968334555625916
1772651322080038400,8.284038330078126,9.874761581420898,-1.4606430530548096,-0.3892652690410614
1772651322090041600,8.29404150390625,9.8274507522583,-1.4271063804626465,-0.3844743072986603
1772651322100044500,8.30404443359375,9.879552841186523,-1.4175244569778442,-0.3844743072986603
1772651322110047700,8.3140478515625,9.879552841186523,-1.4318972826004028,-0.3892652690410614
1772651322120051000,8.324051025390625,9.846015930175781,-1.4175244569778442,-0.3701014220714569
1772651322130054000,8.334053955078126,9.846015930175781,-1.441479206085205,-0.37489238381385803
1772651322140057000,8.34405712890625,9.869970321655273,-1.4558520317077637,-0.3940562307834625
1772651322150060300,8.354060302734375,9.869970321655273,-1.4606430530548096,-0.3892652690410614
1772651322160063500,8.3640634765625,9.832242012023926,-1.465433955192566,-0.3653104901313782
1772651322170066400,8.37406640625,9.837032318115234,-1.4750158786773682,-0.37968334555625916
1772651322180069600,8.384069580078124,9.865179061889648,-1.4606430530548096,-0.39884716272354126
1772651322190072600,8.394072509765625,9.86038875579834,-1.4366883039474487,-0.40902796387672424
1772651322200075800,8.40407568359375,9.869970321655273,-1.403151512145996,-0.39884716272354126
1772651322210079000,8.414078857421876,9.841224670410156,-1.4271063804626465,-0.40902796387672424
1772651322220082200,8.424082275390624,9.846015930175781,-1.446270227432251,-0.3844743072986603
1772651322230085000,8.434085205078125,9.85080623626709,-1.4366883039474487,-0.37489238381385803
1772651322240088300,8.44408837890625,9.884343147277832,-1.441479206085205,-0.37968334555625916
1772651322250091300,8.45409130859375,9.884343147277832,-1.446270227432251,-0.399446040391922
1772651322260094700,8.4640947265625,9.855597496032715,-1.4510611295700073,-0.3946550786495209
1772651322270098000,8.474097900390625,9.869970321655273,-1.446270227432251,-0.38986414670944214
1772651322280101400,8.484101318359375,9.874761581420898,-1.4223153591156006,-0.385073184967041
1772651322290104800,8.494104736328126,9.841224670410156,-1.4318972826004028,-0.38986414670944214
1772651322300108000,8.50410791015625,9.841224670410156,-1.4271063804626465,-0.38986414670944214
1772651322310111500,8.514111572265625,9.865179061889648,-1.4223153591156006,-0.38986414670944214
1772651322320115000,8.524114990234375,9.869970321655273,-1.4271063804626465,-0.3946550786495209
1772651322330118100,8.5341181640625,9.826851844787598,-1.446270227432251,-0.399446040391922
1772651322340121600,8.54412158203125,9.869970321655273,-1.4510611295700073,-0.38986414670944214
1772651322350125000,8.554125,9.855597496032715,-1.4558520317077637,-0.399446040391922
1772651322360128300,8.564128173828125,9.865179061889648,-1.4271063804626465,-0.38986414670944214
1772651322370131700,8.574131591796874,9.865179061889648,-1.4558520317077637,-0.38986414670944214
1772651322380135000,8.584135009765625,9.846015930175781,-1.4318972826004028,-0.3802822232246399
1772651322390138400,8.594138427734375,9.883744239807129,-1.4175244569778442,-0.3802822232246399
1772651322400141800,8.604141845703126,9.841224670410156,-1.4175244569778442,-0.385073184967041
1772651322410145000,8.61414501953125,9.86038875579834,-1.4318972826004028,-0.40004491806030273
1772651322420148500,8.6241484375,9.86038875579834,-1.441479206085205,-0.38567203283309937
1772651322430152000,8.63415185546875,9.865179061889648,-1.4702249765396118,-0.37549126148223877
1772651322440155100,8.644155029296876,9.855597496032715,-1.441479206085205,-0.38088110089302063
1772651322450158600,8.65415869140625,9.856196403503418,-1.4366883039474487,-0.3940562307834625
1772651322460162000,8.664162109375,9.851405143737793,-1.4558520317077637,-0.37968334555625916
1772651322470165200,8.674165283203125,9.84182357788086,-1.4366883039474487,-0.37968334555625916
1772651322480168700,8.684168701171876,9.860987663269043,-1.42770516872406,-0.4036381244659424
1772651322490172000,8.694171875,9.88015079498291,-1.432496190071106,-0.41801100969314575
1772651322500175400,8.70417529296875,9.865777969360352,-1.432496190071106,-0.3940562307834625
1772651322510178800,8.7141787109375,9.870569229125977,-1.4372870922088623,-0.3892652690410614
1772651322520182000,8.72418212890625,9.870569229125977,-1.432496190071106,-0.3892652690410614
1772651322530185500,8.734185546875,9.865777969360352,-1.4516600370407104,-0.3940562307834625
1772651322540189000,8.74418896484375,9.884942054748535,-1.4564509391784668,-0.4084290862083435
1772651322550192000,8.754192138671876,9.884942054748535,-1.4420781135559082,-0.3892652690410614
1772651322560195600,8.764195556640624,9.865777969360352,-1.42770516872406,-0.3790844678878784
1772651322570199000,8.774198974609375,9.860987663269043,-1.4516600370407104,-0.3790844678878784
1772651322580202200,8.7842021484375,9.884942054748535,-1.4564509391784668,-0.39884716272354126
1772651322590205700,8.794205810546876,9.851405143737793,-1.4420781135559082,-0.4084290862083435
1772651322600209200,8.804209228515624,9.870569229125977,-1.4516600370407104,-0.3982483148574829
1772651322610212400,8.81421240234375,9.856196403503418,-1.432496190071106,-0.38866639137268066
1772651322620215800,8.8242158203125,9.851405143737793,-1.432496190071106,-0.38866639137268066
1772651322630219300,8.83421923828125,9.865777969360352,-1.4468690156936646,-0.3982483148574829
1772651322640222500,8.844222412109374,9.875360488891602,-1.4372870922088623,-0.36471161246299744
1772651322650226000,8.854225830078125,9.855597496032715,-1.4366883039474487,-0.3701014220714569
1772651322660229000,8.86422900390625,9.841224670410156,-1.4510611295700073,-0.3892652690410614
1772651322670232600,8.874232666015626,9.865179061889648,-1.441479206085205,-0.3892652690410614
1772651322680236000,8.884236083984375,9.86038875579834,-1.4223153591156006,-0.3844743072986603
1772651322690239200,8.8942392578125,9.869970321655273,-1.446270227432251,-0.399446040391922
1772651322700242700,8.90424267578125,9.846015930175781,-1.446270227432251,-0.3946550786495209
1772651322710246100,8.91424609375,9.85080623626709,-1.441479206085205,-0.3946550786495209
1772651322720249300,8.924249267578125,9.841224670410156,-1.4510611295700073,-0.4042370021343231
1772651322730252800,8.934252685546875,9.841224670410156,-1.4223153591156006,-0.3844743072986603
1772651322740256300,8.94425634765625,9.855597496032715,-1.441479206085205,-0.37968334555625916
1772651322750259500,8.954259521484374,9.869970321655273,-1.4318972826004028,-0.37968334555625916
1772651322760263000,8.964262939453125,9.874761581420898,-1.446270227432251,-0.399446040391922
1772651322770266000,8.97426611328125,9.874761581420898,-1.4750158786773682,-0.385073184967041
1772651322780269600,8.98426953125,9.846015930175781,-1.4510611295700073,-0.38986414670944214
1772651322790272800,8.994272705078124,9.865179061889648,-1.446270227432251,-0.37489238381385803
1772651322800276200,9.004276123046875,9.855597496032715,-1.4366883039474487,-0.3946550786495209
1772651322810279400,9.014279541015625,9.855597496032715,-1.4271063804626465,-0.40902796387672424
1772651322820283000,9.024282958984376,9.884343147277832,-1.4223153591156006,-0.40902796387672424
1772651322830286000,9.0342861328125,9.869970321655273,-1.4366883039474487,-0.385073184967041
1772651322840289500,9.04428955078125,9.865179061889648,-1.4606430530548096,-0.3653104901313782
1772651322850292700,9.054292724609375,9.869970321655273,-1.441479206085205,-0.3653104901313782
1772651322860296200,9.064296142578126,9.85080623626709,-1.4366883039474487,-0.3844743072986603
1772651322870299400,9.07429931640625,9.879552841186523,-1.4175244569778442,-0.39884716272354126
1772651322880302800,9.084302734375,9.86038875579834,-1.4366883039474487,-0.37489238381385803
1772651322890306000,9.09430615234375,9.855597496032715,-1.446270227432251,-0.3844743072986603
1772651322900309500,9.1043095703125,9.869970321655273,-1.4366883039474487,-0.39884716272354126
1772651322910312700,9.114312744140625,9.851405143737793,-1.4223153591156006,-0.3892652690410614
1772651322920316200,9.124316162109375,9.84182357788086,-1.4606430530548096,-0.4036381244659424
1772651322930319400,9.1343193359375,9.84182357788086,-1.4606430530548096,-0.37968334555625916
1772651322940322800,9.14432275390625,9.84182357788086,-1.4366883039474487,-0.4036381244659424
1772651322950326000,9.154325927734375,9.855597496032715,-1.441479206085205,-0.37968334555625916
1772651322960329500,9.16432958984375,9.889134407043457,-1.4318972826004028,-0.3940562307834625
1772651322970332700,9.174332763671876,9.874761581420898,-1.446270227432251,-0.3844743072986603
1772651322980336000,9.184336181640624,9.851405143737793,-1.4318972826004028,-0.37489238381385803
1772651322990339300,9.19433935546875,9.851405143737793,-1.4318972826004028,-0.3844743072986603
1772651323000342800,9.2043427734375,9.884343147277832,-1.446270227432251,-0.39884716272354126
1772651323010346000,9.214345947265626,9.856196403503418,-1.4606430530548096,-0.4084290862083435
1772651323020349400,9.224349365234374,9.832242012023926,-1.4175244569778442,-0.3844743072986603
1772651323030352600,9.2343525390625,9.86038875579834,-1.4318972826004028,-0.37489238381385803
1772651323040356000,9.244356201171875,9.884343147277832,-1.4175244569778442,-0.37489238381385803
1772651323050359300,9.254359375,9.879552841186523,-1.441479206085205,-0.385073184967041
1772651323060362800,9.26436279296875,9.86038875579834,-1.4318972826004028,-0.385073184967041
1772651323070366000,9.274365966796875,9.869970321655273,-1.4223153591156006,-0.3946550786495209
1772651323080369400,9.284369384765625,9.86038875579834,-1.407942533493042,-0.40902796387672424
1772651323090372900,9.294372802734374,9.86038875579834,-1.4510611295700073,-0.40902796387672424
1772651323100376000,9.3043759765625,9.846015930175781,-1.4510611295700073,-0.38986414670944214
1772651323110379500,9.314379638671875,9.85080623626709,-1.441479206085205,-0.38986414670944214
