time,seconds_elapsed,z,y,x
1772651314282572300,0.486572265625,-0.0038518905639648438,0.0056521594524383545,0.039803266525268555
1772651314302580700,0.506580810546875,0.020105361938476562,0.012938201427459717,0.037491410970687866
1772651314322589400,0.52658935546875,0.010522842407226562,0.02491384744644165,-0.04182136058807373
1772651314342598000,0.546597900390625,0.024591445922851562,-0.015922963619232178,-0.04454314708709717
1772651314362606300,0.5666064453125,-0.006247520446777344,0.012763798236846924,0.018158137798309326
1772651314382614800,0.58661474609375,0.012902259826660156,0.03171613812446594,0.03267085552215576
1772651314402623500,0.60662353515625,0.017389297485351562,0.027077168226242065,0.0015776455402374268
1772651314422632000,0.6266318359375,0.029358863830566406,-0.02104473114013672,-0.05149206519126892
1772651314442640400,0.646640380859375,0.010508537292480469,0.007956624031066895,-0.020070403814315796
1772651314462648800,0.66664892578125,0.0078125,-0.008758753538131714,0.052181243896484375
1772651314482657500,0.686657470703125,0.01768016815185547,0.02471897006034851,0.04054558277130127
1772651314502666000,0.706666015625,0.012590408325195312,0.0008669197559356689,-0.02458783984184265
1772651314522674400,0.72667431640625,0.007494926452636719,0.0032126903533935547,-0.04396185278892517
1772651314542683000,0.746682861328125,0.009896278381347656,0.0035484135150909424,0.003517061471939087
1772651314562691600,0.766691650390625,0.026662826538085938,0.023004084825515747,0.017919838428497314
1772651314582700000,0.786699951171875,0.0074977874755859375,0.011077791452407837,0.003690183162689209
1772651314602708500,0.80670849609375,0.019484519958496094,-0.005479902029037476,-0.04421424865722656
1772651314622717200,0.82671728515625,0.011996269226074219,0.001669555902481079,-0.0274103581905365
1772651314642725600,0.8467255859375,0.011993408203125,-0.0007720887660980225,0.02530321478843689
1772651314662734000,0.866734130859375,0.011699676513671875,0.01600763201713562,0.022777050733566284
1772651314682742500,0.886742431640625,0.023677825927734375,-0.02475646138191223,-0.030654698610305786
1772651314702751200,0.906751220703125,0.01648998260498047,0.003945529460906982,-0.042655348777770996
1772651314722759700,0.926759765625,-0.0023756027221679688,0.008345097303390503,0.008172005414962769
1772651314742768000,0.94676806640625,0.02427196502685547,0.015285581350326538,0.056788742542266846
1772651314762775000,0.966775146484375,0.002716064453125,-0.0038196146488189697,0.006199866533279419
1772651314782781200,0.98678125,0.01948070526123047,-0.003789842128753662,-0.03468957543373108
1772651314802787600,1.00678759765625,0.0027265548706054688,0.01074323058128357,-0.00104522705078125
1772651314822793700,1.026793701171875,0.03387165069580078,-0.012761116027832031,0.018545478582382202
1772651314842799900,1.0467998046875,0.024286270141601562,-0.01722472906112671,0.006385892629623413
1772651314862806000,1.066805908203125,0.007504463195800781,0.0013334453105926514,-0.0150223970413208
1772651314882812400,1.0868125,0.01709270477294922,0.011127293109893799,-0.03166213631629944
1772651314902818600,1.106818603515625,0.02907562255859375,-0.0006139874458312988,0.007139086723327637
1772651314922824700,1.12682470703125,0.007216453552246094,0.0020723938941955566,0.02123400568962097
1772651314942830800,1.146830810546875,0.018903732299804688,0.004870951175689697,0.006113409996032715
1772651314962837200,1.166837158203125,-0.005051612854003906,0.004772961139678955,-0.015579015016555786
1772651314982843400,1.186843505859375,0.01890850067138672,-0.007087677717208862,-0.02518165111541748
1772651315002849500,1.206849609375,0.016510009765625,0.011975467205047607,0.013109475374221802
1772651315022856000,1.22685595703125,0.0069217681884765625,0.009589344263076782,0.0037620365619659424
1772651315042862000,1.246862060546875,0.0069370269775390625,0.002571016550064087,-0.02341410517692566
1772651315062868200,1.2668681640625,0.004244804382324219,-0.011667907238006592,-0.016101598739624023
1772651315082874400,1.286874267578125,0.015924453735351562,0.017117977142333984,0.0006439089775085449
1772651315102880500,1.306880615234375,0.0015687942504882812,0.02023136615753174,0.002682238817214966
1772651315122887000,1.326886962890625,0.0042724609375,-0.006424039602279663,0.0005992352962493896
1772651315142893000,1.34689306640625,0.016553878784179688,0.0029802024364471436,-0.03528392314910889
1772651315162899200,1.366899169921875,-0.000209808349609375,0.019846856594085693,-0.008622139692306519
1772651315182905300,1.3869052734375,0.02134990692138672,0.022244751453399658,0.03954508900642395
1772651315202911700,1.406911865234375,0.006988525390625,0.005525738000869751,0.027303546667099
1772651315222918000,1.42691796875,-0.000194549560546875,-0.008890211582183838,-0.00881737470626831
1772651315242924000,1.446924072265625,0.009694099426269531,0.008037388324737549,-0.004008203744888306
1772651315262929700,1.4669296875,0.01658344268798828,0.024801522493362427,0.0030895769596099854
1772651315282935000,1.48693505859375,0.007308006286621094,0.012823104858398438,0.03162834048271179
1772651315302940200,1.506940185546875,0.009717941284179688,-0.0013315975666046143,-0.014014840126037598
1772651315322945500,1.526945556640625,0.006732940673828125,0.0038705766201019287,-0.021925806999206543
1772651315342950700,1.54695068359375,0.023202896118164062,-0.00040349364280700684,0.004106789827346802
1772651315362956000,1.5669560546875,0.008831024169921875,0.02833905816078186,0.0016802847385406494
1772651315382961400,1.58696142578125,-0.0007534027099609375,-0.0075807273387908936,0.004147857427597046
1772651315402966500,1.606966552734375,0.025609970092773438,0.002220720052719116,-0.012692064046859741
1772651315422972000,1.626971923828125,0.008844375610351562,0.016537845134735107,-0.005944639444351196
1772651315442977000,1.64697705078125,0.020826339721679688,0.016641676425933838,0.001208573579788208
1772651315462982400,1.666982421875,0.011241912841796875,0.03090783953666687,0.010760277509689331
1772651315482987500,1.686987548828125,0.008852958679199219,0.011902183294296265,-0.013468176126480103
1772651315502993000,1.706992919921875,0.0016736984252929688,0.012063592672348022,-0.0014657378196716309
1772651315522998300,1.726998291015625,0.0088653564453125,0.023900121450424194,-0.008267074823379517
1772651315543003400,1.74700341796875,0.02086162567138672,0.00943717360496521,0.015982627868652344
1772651315563008800,1.7670087890625,0.011585235595703125,0.004716813564300537,-0.003573894500732422
1772651315583014000,1.787013916015625,-0.0000896453857421875,0.01193806529045105,-0.0059967041015625
1772651315603019300,1.807019287109375,0.009190559387207031,0.011907130479812622,-0.01794534921646118
1772651315623024600,1.827024658203125,0.03763389587402344,0.0023169517517089844,0.011175990104675293
1772651315643029800,1.84702978515625,0.011892318725585938,0.014463752508163452,-0.0035371780395507812
1772651315663035100,1.86703515625,0.009194374084472656,0.0048711299896240234,-0.008244484663009644
1772651315683040300,1.887040283203125,-0.0000782012939453125,0.0051937103271484375,-0.003268301486968994
1772651315703045600,1.907045654296875,0.004717826843261719,0.01955968141555786,0.0016266107559204102
1772651315723050800,1.92705078125,0.009210586547851562,0.02205905318260193,0.016420990228652954
1772651315743056100,1.94705615234375,0.004424095153808594,0.0030069351196289062,-0.00331801176071167
1772651315763061200,1.967061279296875,0.020890235900878906,-0.008691281080245972,-0.01047864556312561
1772651315783066000,1.987066162109375,0.014002799987792969,0.010271310806274414,-0.00783008337020874
1772651315803071200,2.0070712890625,0.016397476196289062,0.015132397413253784,0.01409199833869934
1772651315823076000,2.027076171875,0.011606216430664062,0.027088314294815063,0.0018461942672729492
1772651315843081200,2.047081298828125,-0.00035762786865234375,0.015393286943435669,-0.005364835262298584
1772651315863086000,2.067086181640625,0.002349853515625,0.0012773573398590088,-0.0077731311321258545
1772651315883091200,2.08709130859375,0.02332019805908203,0.008692413568496704,-0.007751047611236572
1772651315903096000,2.107095947265625,0.002063751220703125,0.015805482864379883,0.013911902904510498
1772651315923101200,2.12710107421875,0.02601909637451172,0.018260031938552856,-0.007583320140838623
1772651315943106300,2.147106201171875,0.0119476318359375,0.013450324535369873,-0.014540642499923706
1772651315963111200,2.167111083984375,0.004771232604980469,0.018414855003356934,-0.010124921798706055
1772651315983116300,2.1871162109375,0.011954307556152344,0.0015311241149902344,0.004516780376434326
1772651316003121200,2.20712109375,0.00957489013671875,0.006599336862564087,0.004418760538101196
1772651316023126300,2.227126220703125,-0.0047931671142578125,0.0019021034240722656,-0.014762938022613525
1772651316043131100,2.247131103515625,0.0024175643920898438,-0.009837150573730469,-0.012764394283294678
1772651316063136300,2.26713623046875,0.019184112548828125,0.014094322919845581,-0.015129715204238892
1772651316083141000,2.28714111328125,0.02877330780029297,0.018898755311965942,0.008578002452850342
1772651316103146200,2.307146240234375,0.0024318695068359375,0.00711861252784729,-0.00576135516166687
1772651316123151000,2.327151123046875,0.0093231201171875,0.01217380166053772,-0.01582297682762146
1772651316143156200,2.34715625,-0.00054931640625,0.0245477557182312,0.000513225793838501
1772651316163161000,2.3671611328125,0.021012306213378906,0.019747436046600342,0.007307708263397217
1772651316183166200,2.387166259765625,0.006634712219238281,0.014935553073883057,-0.019198983907699585
1772651316203171000,2.407171142578125,0.018634796142578125,0.012551218271255493,0.00642549991607666
1772651316223176200,2.42717626953125,0.032718658447265625,0.01508110761642456,-0.0008918046951293945
1772651316243181000,2.44718115234375,0.01148223876953125,0.010514616966247559,-0.0012415945529937744
1772651316263187000,2.46718701171875,0.015984535217285156,0.027566522359848022,-0.010788053274154663
1772651316283193300,2.487193359375,0.015686988830566406,0.025171935558319092,-0.0084286630153656
1772651316303199700,2.50719970703125,0.0037050247192382812,0.008444398641586304,-0.01062723994255066
1772651316323206000,2.527205810546875,0.02316761016845703,0.0037310421466827393,0.004168570041656494
1772651316343212300,2.54721240234375,0.013880729675292969,0.020477861166000366,0.0022073686122894287
1772651316363218400,2.567218505859375,0.006697654724121094,0.01575934886932373,-0.012159466743469238
1772651316383224800,2.587224853515625,0.02346515655517578,-0.0009661316871643066,-0.021659672260284424
1772651316403231000,2.60723095703125,-0.004978179931640625,-0.01534917950630188,-0.00020825862884521484
1772651316423237400,2.6272373046875,-0.007084846496582031,0.012668251991271973,-0.0072365403175354
1772651316443243800,2.647243896484375,-0.00019359588623046875,0.015031218528747559,-0.00025707483291625977
1772651316463250000,2.66725,0.0025033950805664062,0.005437761545181274,-0.005139440298080444
1772651316483256300,2.68725634765625,0.014173507690429688,0.0028075873851776123,-0.014517158269882202
1772651316503262500,2.707262451171875,0.0072784423828125,0.005134284496307373,-0.006867706775665283
1772651316523268900,2.727268798828125,0.011774063110351562,0.027052223682403564,-0.0027261972427368164
1772651316543275300,2.747275146484375,0.008778572082519531,0.008171826601028442,-0.012889593839645386
1772651316563281400,2.767281494140625,0.01804828643798828,-0.0013820528984069824,-0.02987086772918701
1772651316583287800,2.787287841796875,0.01565837860107422,0.005842268466949463,-0.008102864027023315
1772651316603294000,2.8072939453125,0.0060710906982421875,0.0032663047313690186,0.006205946207046509
1772651316623300400,2.82730029296875,-0.0011205673217773438,0.020056188106536865,-0.008296042680740356
1772651316643306500,2.847306396484375,-0.0011157989501953125,0.02026692032814026,-0.020563721656799316
1772651316663313000,2.86731298828125,0.013245582580566406,0.0037756264209747314,-0.01784774661064148
1772651316683319000,2.887319091796875,0.03718852996826172,-0.010817259550094604,-0.012989938259124756
1772651316703325400,2.907325439453125,0.022820472717285156,0.022732675075531006,0.006005585193634033
1772651316723331600,2.92733154296875,0.022818565368652344,-0.0015955567359924316,-0.003633350133895874
1772651316743338000,2.947337890625,0.0204315185546875,0.026904910802841187,0.0012883245944976807
1772651316763344000,2.96734375,0.01562786102294922,0.012445896863937378,-0.010717988014221191
1772651316783349500,2.987349609375,0.01802539825439453,0.017210811376571655,0.0011604130268096924
1772651316803355400,3.00735546875,0.027597427368164062,-0.006667643785476685,-0.01324954628944397
1772651316823361000,3.027361083984375,0.0012426376342773438,0.0027903318405151367,-0.018081724643707275
1772651316843366700,3.04736669921875,0.027584075927734375,0.024089813232421875,-0.015835046768188477
1772651316863372300,3.067372314453125,0.01799774169921875,0.02195611596107483,-0.006146341562271118
1772651316883378200,3.087378173828125,0.020392417907714844,0.012398988008499146,0.01550629734992981
1772651316903383800,3.1073837890625,0.010807037353515625,0.0004538595676422119,-0.0011079013347625732
1772651316923389400,3.127389404296875,0.003612518310546875,0.009603947401046753,-0.022341012954711914
1772651316943395000,3.14739501953125,0.02037334442138672,0.011722713708877563,-0.0050133466720581055
1772651316963401000,3.16740087890625,0.018265724182128906,0.021211743354797363,-0.004795163869857788
1772651316983406600,3.187406494140625,0.013476371765136719,0.009262830018997192,-0.00713232159614563
1772651317003412200,3.207412109375,0.018248558044433594,0.02587619423866272,-0.028352200984954834
1772651317023417900,3.22741796875,0.02094745635986328,0.006741344928741455,0.0002854466438293457
1772651317043423700,3.247423828125,0.01615142822265625,-0.005197256803512573,-0.004287809133529663
1772651317063429400,3.267429443359375,0.01854705810546875,0.03563195466995239,0.007839351892471313
1772651317083435000,3.28743505859375,0.03981590270996094,0.011751323938369751,0.0028913915157318115
1772651317103440600,3.307440673828125,0.006577491760253906,-0.00029736757278442383,-0.013917863368988037
1772651317123446500,3.327446533203125,0.011051177978515625,0.0234086811542511,0.005400717258453369
1772651317143452200,3.3474521484375,0.0035657882690429688,0.011448532342910767,0.009924918413162231
1772651317163457800,3.367457763671875,0.017930984497070312,0.0041886866092681885,-0.004636168479919434
1772651317183463700,3.387463623046875,0.027517318725585938,0.0018229186534881592,-0.011916875839233398
1772651317203469300,3.40746923828125,0.025129318237304688,0.016369342803955078,-0.014294475317001343
1772651317223475000,3.427474853515625,0.013153076171875,0.01621994376182556,-0.009761780500411987
1772651317243480600,3.44748046875,0.02513408660888672,0.014197021722793579,0.004610568284988403
1772651317263487500,3.467487548828125,0.005972862243652344,0.004995584487915039,-0.014485985040664673
1772651317283495000,3.487494873046875,0.0011758804321289062,0.00965610146522522,-0.01931130886077881
1772651317303502300,3.50750244140625,0.003570556640625,0.01675206422805786,-0.009826332330703735
1772651317323509500,3.527509521484375,0.012852668762207031,0.02405598759651184,0.0017159581184387207
1772651317343517000,3.547516845703125,0.017322540283203125,0.0022704005241394043,-0.02727988362312317
1772651317363524400,3.5675244140625,0.03348731994628906,0.012364745140075684,0.00391426682472229
1772651317383531800,3.58753173828125,0.014623641967773438,0.01472887396812439,-0.015337109565734863
1772651317403539200,3.607539306640625,0.01701831817626953,0.014699965715408325,-0.005791217088699341
1772651317423546400,3.62754638671875,0.04067802429199219,0.0027478933334350586,-0.013664305210113525
1772651317443553800,3.6475537109375,0.014317512512207031,0.01214289665222168,-0.018437087535858154
1772651317463561200,3.667561279296875,0.02868938446044922,0.014494210481643677,0.0007129311561584473
1772651317483568600,3.687568603515625,0.02390003204345703,0.01934748888015747,-0.013644099235534668
1772651317503576000,3.707576171875,0.021501541137695312,0.016968637704849243,-0.006640374660491943
1772651317523583500,3.72758349609375,-0.011427879333496094,0.006816774606704712,-0.02269086241722107
1772651317543591000,3.7475908203125,0.010720252990722656,0.01805412769317627,-0.004662811756134033
1772651317563598000,3.76759814453125,0.017908096313476562,-0.005915194749832153,-0.001724153757095337
1772651317583605500,3.78760546875,-0.005757331848144531,0.010656088590621948,0.010281294584274292
1772651317603613000,3.807613037109375,0.015794754028320312,0.010524243116378784,0.015104740858078003
1772651317623620400,3.827620361328125,0.01129913330078125,0.019952386617660522,-0.016131848096847534
1772651317643627800,3.847627685546875,0.0041179656982421875,0.005761861801147461,-0.0016562044620513916
1772651317663635200,3.86763525390625,0.023283004760742188,0.008128255605697632,-0.001459747552871704
1772651317683642400,3.887642333984375,0.0089111328125,0.017614662647247314,-0.003713667392730713
1772651317703649800,3.90764990234375,0.01129150390625,0.012630730867385864,-0.020297706127166748
1772651317723657200,3.9276572265625,0.017876625061035156,0.01529267430305481,-0.004415154457092285
1772651317743664600,3.94766455078125,0.026861190795898438,-0.008315086364746094,-0.0005223751068115234
1772651317763672000,3.967672119140625,0.005604743957519531,0.013264238834381104,0.0018278658390045166
1772651317783679200,3.98767919921875,0.002902984619140625,0.027534008026123047,0.0066582560539245605
1772651317803686700,4.007686767578125,0.0028982162475585938,0.01547318696975708,0.0019258856773376465
1772651317823694000,4.027694091796875,0.019670486450195312,0.00612562894821167,-0.007438153028488159
1772651317843701500,4.047701416015625,0.0004930496215820312,0.017957717180252075,0.002348005771636963
1772651317863709000,4.067708984375,0.005272865295410156,-0.008505314588546753,0.007334411144256592
1772651317883716000,4.087716064453125,0.0028734207153320312,-0.018178492784500122,-0.010062724351882935
1772651317903723500,4.1077236328125,0.0316162109375,-0.018173813819885254,-0.014729708433151245
1772651317923731000,4.12773095703125,0.019624710083007812,0.12063798308372498,-0.0312979519367218
1772651317943738400,4.14773828125,0.029218673706054688,0.1804513931274414,0.002084493637084961
1772651317963745800,4.167745849609375,0.005270957946777344,-0.0205078125,0.060038983821868896
1772651317983753000,4.1877529296875,0.014853477478027344,-0.03002181649208069,-0.03389614820480347
1772651318003760400,4.207760498046875,0.014863967895507812,-0.03920385241508484,0.014127731323242188
1772651318023767800,4.227767822265625,0.0005006790161132812,-0.14179235696792603,0.05232036113739014
1772651318043774700,4.247774658203125,0.014859199523925781,-0.05838114023208618,-0.0989229679107666
1772651318063780600,4.267780517578125,0.041202545166015625,0.05614396929740906,-0.06272956728935242
1772651318083786800,4.287786865234375,0.033705711364746094,0.08259782195091248,0.059797704219818115
1772651318103792600,4.307792724609375,0.014237403869628906,0.06603419780731201,0.042453259229660034
1772651318123798500,4.327798583984375,-0.004927635192871094,-0.06096640229225159,-0.01807379722595215
1772651318143804400,4.347804443359375,0.0019683837890625,-0.086485356092453,-0.011091053485870361
1772651318163810600,4.367810546875,0.011246681213378906,0.07648143172264099,-0.040163904428482056
1772651318183816400,4.38781640625,0.02740478515625,0.06186956167221069,0.012495458126068115
1772651318203822300,4.407822265625,0.008240699768066406,-0.047709912061691284,0.04817938804626465
1772651318223828500,4.427828369140625,0.022316932678222656,-0.0354500412940979,-0.06529948115348816
1772651318243834400,4.44783447265625,0.018408775329589844,-0.02443617582321167,-0.07986980676651001
1772651318263839000,4.4678388671875,0.019609451293945312,0.051410406827926636,0.030361592769622803
1772651318283842800,4.4878427734375,0.017217636108398438,0.09702092409133911,0.07623293995857239
1772651318303846700,4.5078466796875,0.01963043212890625,-0.0008755326271057129,0.00847005844116211
1772651318323850500,4.5278505859375,0.012459754943847656,-0.05079415440559387,-0.0033798515796661377
1772651318343854300,4.547854248046875,0.02682018280029297,0.013786554336547852,-0.04627126455307007
1772651318363858200,4.567858154296875,0.0052585601806640625,0.030406147241592407,-0.012845218181610107
1772651318383862000,4.587862060546875,0.01724720001220703,0.0257909893989563,0.04693940281867981
1772651318403865900,4.607865966796875,0.02442455291748047,0.05192121863365173,-0.0010223090648651123
1772651318423870000,4.627869873046875,0.00765228271484375,0.00655713677406311,-0.03178030252456665
1772651318443873800,4.647873779296875,0.014847755432128906,-0.04119059443473816,-0.008203774690628052
1772651318463877600,4.667877685546875,0.0052547454833984375,0.013798028230667114,0.021064072847366333
1772651318483881500,4.687881591796875,0.00525665283203125,0.03755059838294983,0.03265312314033508
1772651318503885300,4.70788525390625,0.02202320098876953,0.0016751587390899658,-0.008563309907913208
1772651318523889200,4.72788916015625,0.026798248291015625,0.0038767457008361816,-0.05623829364776611
1772651318543893000,4.74789306640625,0.012414932250976562,0.008349835872650146,0.005918681621551514
1772651318563896800,4.767896728515625,-0.0019588470458984375,0.02488154172897339,0.03906300663948059
1772651318583900700,4.787900634765625,0.012413978576660156,0.01817724108695984,-0.0018225908279418945
1772651318603904800,4.80790478515625,0.010025978088378906,0.013534486293792725,-0.03053531050682068
1772651318623908600,4.82790869140625,0.03128242492675781,-0.01050710678100586,-0.01382589340209961
1772651318643912400,4.847912353515625,0.0004425048828125,0.005921751260757446,0.01269802451133728
1772651318663916300,4.867916259765625,0.0076313018798828125,-0.0037896037101745605,0.039525508880615234
1772651318683920100,4.887920166015625,0.00044155120849609375,-0.02055981755256653,0.005778014659881592
1772651318703924000,4.907924072265625,0.010003089904785156,0.010316967964172363,-0.03494289517402649
1772651318723927800,4.927927734375,0.009999275207519531,0.04618901014328003,0.013283461332321167
1772651318743931600,4.947931640625,0.014805793762207031,0.0008421242237091064,0.0564422607421875
1772651318763937000,4.96793701171875,0.007601737976074219,0.017443925142288208,0.013361841440200806
1772651318783942700,4.987942626953125,0.026746749877929688,0.000523000955581665,-0.07765695452690125
1772651318803948500,5.007948486328125,0.021965980529785156,-0.006537258625030518,-0.034662216901779175
1772651318823954200,5.0279541015625,0.04111957550048828,0.04604315757751465,0.033207207918167114
1772651318843960000,5.0479599609375,0.014775276184082031,0.01275739073753357,0.02377966046333313
1772651318863965700,5.067965576171875,0.024358749389648438,-0.04466068744659424,-0.02227357029914856
1772651318883971600,5.0879716796875,0.0027942657470703125,0.005708277225494385,-0.05791410803794861
1772651318903977200,5.107977294921875,0.021945953369140625,0.03419509530067444,0.01899576187133789
1772651318923983000,5.127983154296875,0.007587432861328125,0.02962467074394226,0.059951215982437134
1772651318943988700,5.14798876953125,0.026741981506347656,0.01773717999458313,0.00017392635345458984
1772651318963994600,5.16799462890625,0.02192974090576172,0.0008661746978759766,-0.0738820731639862
1772651318984000300,5.188000244140625,0.019545555114746094,-0.013378053903579712,-0.006673991680145264
1772651319004006100,5.208006103515625,0.01715373992919922,0.012973606586456299,0.0366784930229187
1772651319024011800,5.22801171875,0.033913612365722656,0.020131051540374756,0.04170030355453491
1772651319044017700,5.248017578125,0.02431201934814453,-0.025745242834091187,-0.00885722041130066
1772651319064023300,5.268023193359375,0.01952362060546875,-0.0016239583492279053,-0.0449213981628418
1772651319084029200,5.288029296875,0.036286354064941406,0.027031511068344116,0.0009771883487701416
1772651319104034800,5.308034912109375,0.02191925048828125,0.0006360411643981934,0.05605188012123108
1772651319124040700,5.328040771484375,-0.016417503356933594,-0.008967161178588867,0.010511785745620728
1772651319144046300,5.34804638671875,0.0027475357055664062,-0.013724833726882935,-0.02807798981666565
1772651319164052200,5.36805224609375,0.014719009399414062,0.014901459217071533,-0.008924543857574463
1772651319184057900,5.388057861328125,0.017119407653808594,0.02694326639175415,0.0368121862411499
1772651319204063700,5.408063720703125,0.01712322235107422,0.01261293888092041,0.039179831743240356
1772651319224069400,5.4280693359375,0.02191448211669922,-0.03218242526054382,-0.01604241132736206
1772651319244075300,5.4480751953125,-0.009234428405761719,0.0010116994380950928,-0.044926077127456665
1772651319264083000,5.4680830078125,0.026109695434570312,0.013331800699234009,0.005390971899032593
1772651319284091400,5.48809130859375,0.011747360229492188,0.020594924688339233,0.04830998182296753
1772651319304099800,5.508099853515625,0.014132499694824219,0.013343721628189087,-0.004437625408172607
1772651319324108500,5.528108642578125,0.030905723571777344,0.0013699829578399658,-0.040827780961990356
1772651319344117000,5.548116943359375,-0.016717910766601562,0.017958730459213257,-0.019104182720184326
1772651319364125400,5.56812548828125,0.02849864959716797,0.010876446962356567,0.03190073370933533
1772651319384134000,5.5881337890625,0.028494834899902344,-0.04652506113052368,-0.006777584552764893
1772651319404142300,5.608142333984375,0.006928443908691406,0.025145292282104492,-0.004441499710083008
1772651319424150800,5.62815087890625,0.009308815002441406,0.08702924847602844,0.0026176869869232178
1772651319444159200,5.6481591796875,0.03834342956542969,0.04582589864730835,-0.006614208221435547
1772651319464167700,5.668167724609375,0.005105018615722656,-0.028720736503601074,0.01559990644454956
1772651319484176400,5.68817626953125,0.01948261260986328,-0.030994653701782227,-0.0038647353649139404
1772651319504184800,5.708184814453125,0.017081260681152344,0.02640661597251892,0.001318424940109253
1772651319524193300,5.728193359375,0.01946258544921875,0.06676173210144043,-0.0035840272903442383
1772651319544201700,5.74820166015625,0.019453048706054688,0.001981019973754883,-0.020534247159957886
1772651319564210200,5.768210205078125,0.00030231475830078125,-0.03855714201927185,0.00867372751235962
1772651319584218600,5.788218505859375,0.005096435546875,-0.048147499561309814,0.010978370904922485
1772651319604227000,5.80822705078125,0.005087852478027344,0.00918009877204895,0.006199926137924194
1772651319624235800,5.82823583984375,0.026643753051757812,0.04742869734764099,-0.017786353826522827
1772651319644244200,5.848244140625,0.0026769638061523438,0.030648618936538696,-0.001394033432006836
1772651319664252700,5.868252685546875,0.0026884078979492188,-0.0335029661655426,0.0030727386474609375
1772651319684261000,5.88826123046875,0.01945972442626953,-0.004787862300872803,0.014907985925674438
1772651319704269600,5.90826953125,0.01705455780029297,0.0262051522731781,-0.006561160087585449
1772651319724278000,5.928278076171875,0.023931503295898438,0.045351266860961914,-0.02303716540336609
1772651319744286500,5.948286376953125,0.04998016357421875,-0.002439171075820923,-0.008397042751312256
1772651319764294700,5.968294677734375,0.014650344848632812,-0.028518110513687134,-0.003302931785583496
1772651319784302600,5.988302490234375,0.005066871643066406,0.01686999201774597,0.013317286968231201
1772651319804310500,6.008310546875,0.019140243530273438,0.05032694339752197,-0.013185381889343262
1772651319824318500,6.028318359375,-0.004513740539550781,0.03839513659477234,-0.020342141389846802
1772651319844326400,6.048326416015625,0.0218353271484375,-0.011977672576904297,-0.010800391435623169
1772651319864334300,6.068334228515625,0.0026607513427734375,-0.007418423891067505,0.010747581720352173
1772651319884342300,6.08834228515625,0.02902698516845703,0.001924365758895874,0.003134816884994507
1772651319904350200,6.10835009765625,0.012256622314453125,0.027833938598632812,-0.018599867820739746
1772651319924358100,6.128358154296875,0.043387413024902344,-0.014908254146575928,-0.030574500560760498
1772651319944366000,6.148365966796875,0.007462501525878906,-0.010440528392791748,0.014691531658172607
1772651319964374000,6.1683740234375,0.012248992919921875,0.013048678636550903,0.007365524768829346
1772651319984382000,6.1883818359375,0.009860992431640625,0.01308491826057434,-0.021540045738220215
1772651320004390000,6.208389892578125,0.01704120635986328,0.03703346848487854,-0.009446710348129272
1772651320024397800,6.228397705078125,0.050289154052734375,0.010775566101074219,-0.01681441068649292
1772651320044406000,6.248406005859375,0.021842002868652344,-0.005717486143112183,0.007131069898605347
1772651320064414000,6.2684140625,0.01674365997314453,0.006453961133956909,0.019222259521484375
1772651320084422000,6.288421875,0.014351844787597656,-0.005447715520858765,-0.007138043642044067
1772651320104429800,6.308429931640625,0.007472991943359375,0.016351759433746338,-0.021355092525482178
1772651320124437800,6.328437744140625,0.011960029602050781,0.0018906891345977783,0.0001901090145111084
1772651320144445700,6.34844580078125,0.011959075927734375,-0.000604093074798584,-0.002304553985595703
1772651320164453600,6.36845361328125,0.0047702789306640625,0.0018018782138824463,-0.011815816164016724
1772651320184461600,6.388461669921875,0.02843952178955078,0.011424392461776733,-0.012215286493301392
1772651320204469500,6.408469482421875,0.009267807006835938,0.00891759991645813,0.0022484958171844482
1772651320224477400,6.4284775390625,0.0071868896484375,-0.005331695079803467,0.0043627917766571045
1772651320244485400,6.4484853515625,0.00238800048828125,0.006378531455993652,0.0065718889236450195
1772651320264492500,6.468492431640625,0.0047760009765625,0.0064306557178497314,-0.007480233907699585
1772651320284499200,6.488499267578125,0.009252548217773438,0.008505016565322876,-0.0026955902576446533
1772651320304506000,6.508506103515625,0.01884937286376953,0.0038726627826690674,0.011437773704528809
1772651320324513000,6.528512939453125,0.004489898681640625,0.013489395380020142,-0.0056965649127960205
1772651320344520000,6.54852001953125,0.021261215209960938,0.011089622974395752,-0.006136387586593628
1772651320364526600,6.568526611328125,0.023664474487304688,-0.0009195208549499512,-0.003740280866622925
1772651320384533500,6.588533447265625,0.021268844604492188,0.013331890106201172,-0.014110356569290161
1772651320404540400,6.60854052734375,0.02367115020751953,0.01825571060180664,0.0008565187454223633
1772651320424547000,6.628547119140625,0.016485214233398438,0.0013881325721740723,0.0027794241905212402
1772651320444554000,6.648553955078125,0.0044956207275390625,0.029940247535705566,-0.02137202024459839
1772651320464561000,6.668560791015625,0.016470909118652344,0.005940824747085571,0.0007712244987487793
1772651320484567600,6.688567626953125,0.0164642333984375,-0.003783702850341797,-0.0016147792339324951
1772651320504574500,6.708574462890625,0.011982917785644531,0.00819215178489685,-0.004335910081863403
1772651320524581400,6.728581298828125,0.0069065093994140625,0.0012226402759552002,0.005142003297805786
1772651320544588300,6.74858837890625,0.023660659790039062,0.020405232906341553,-0.016277432441711426
1772651320564595000,6.768594970703125,-0.0023908615112304688,0.015644848346710205,0.008104771375656128
1772651320584601900,6.788601806640625,0.006909370422363281,0.0133877694606781,0.01254570484161377
1772651320604608500,6.8086083984375,0.009301185607910156,0.0037565231323242188,-0.004171133041381836
1772651320624615400,6.828615478515625,0.03803062438964844,-0.0012267529964447021,0.0032005608081817627
1772651320644622300,6.848622314453125,0.035635948181152344,0.013229906558990479,-0.011035799980163574
1772651320664629200,6.868629150390625,0.0024003982543945312,0.013223826885223389,-0.00872144103050232
1772651320684636000,6.888635986328125,-0.006870269775390625,0.013309717178344727,-0.011369764804840088
1772651320704642800,6.908642822265625,0.0072002410888671875,-0.010564148426055908,-0.006371289491653442
1772651320724649700,6.928649658203125,0.0027055740356445312,0.027664482593536377,-0.00881311297416687
1772651320744656400,6.948656494140625,0.011992454528808594,0.00610119104385376,0.005433022975921631
1772651320764663000,6.9686630859375,0.01677989959716797,0.008430153131484985,0.01979890465736389
1772651320784669400,6.98866943359375,0.016777992248535156,0.015649467706680298,0.0031249523162841797
1772651320804676000,7.008676025390625,0.026073455810546875,0.011100530624389648,0.007884174585342407
1772651320824682500,7.0286826171875,0.012006759643554688,0.01591944694519043,0.007752418518066406
1772651320844689000,7.04868896484375,-0.0020627975463867188,0.001660376787185669,0.0029481351375579834
1772651320864695300,7.0686953125,0.007519721984863281,0.008730113506317139,0.0027691423892974854
1772651320884702000,7.088701904296875,0.024277687072753906,0.0037771761417388916,-0.006732463836669922
1772651320904708400,7.108708251953125,0.00750732421875,0.0034224092960357666,0.00045377016067504883
1772651320924714800,7.12871484375,0.02188396453857422,-0.0013535916805267334,0.005126535892486572
1772651320944721400,7.148721435546875,0.02427387237548828,0.010155558586120605,0.017008304595947266
1772651320964727800,7.168727783203125,0.012302398681640625,0.005366593599319458,-0.004721462726593018
1772651320984734200,7.188734130859375,0.021886825561523438,0.000581890344619751,0.002364814281463623
1772651321004740900,7.208740966796875,0.021881103515625,0.002928227186203003,-0.004715621471405029
1772651321024747300,7.228747314453125,0.01708984375,0.007661908864974976,0.021583467721939087
1772651321044753700,7.248753662109375,0.02397441864013672,-0.004094958305358887,-0.007513523101806641
1772651321064760300,7.26876025390625,0.03324699401855469,0.010455697774887085,0.0019287467002868652
1772651321084766700,7.2887666015625,0.014081001281738281,0.00566592812538147,-0.005198240280151367
1772651321104773000,7.308773193359375,0.03803825378417969,0.008051633834838867,0.004315227270126343
1772651321124779800,7.32877978515625,0.014064788818359375,0.012462437152862549,-0.005281567573547363
1772651321144786200,7.3487861328125,0.021240234375,0.009841859340667725,-0.007708907127380371
1772651321164792600,7.36879248046875,0.018842697143554688,0.005007058382034302,-0.022080451250076294
1772651321184799000,7.388799072265625,0.038002967834472656,0.011958599090576172,-0.007919222116470337
1772651321204805600,7.4088056640625,0.03080463409423828,0.007065951824188232,0.009078413248062134
1772651321224812000,7.42881201171875,0.030792236328125,0.014075756072998047,0.0067875683307647705
1772651321244818400,7.448818359375,0.00951385498046875,-0.005270540714263916,-0.014150261878967285
1772651321264823600,7.468823486328125,0.043045997619628906,0.02272394299507141,0.012423783540725708
1772651321284828200,7.488828125,0.019378662109375,0.003296464681625366,-0.009183824062347412
1772651321304833000,7.5088330078125,0.00978851318359375,0.0007074475288391113,0.017461776733398438
1772651321324837600,7.528837646484375,0.0049877166748046875,-0.009049952030181885,-0.011562705039978027
1772651321344842200,7.54884228515625,0.012186050415039062,0.017434149980545044,0.015215635299682617
1772651321364847000,7.56884716796875,0.024155616760253906,-0.018552124500274658,0.0030832886695861816
1772651321384851700,7.588851806640625,0.0025968551635742188,0.012571364641189575,-0.021189332008361816
1772651321404856300,7.608856201171875,0.031357765197753906,0.003205627202987671,-0.011457204818725586
1772651321424861200,7.628861083984375,0.0121917724609375,0.005493193864822388,0.012673765420913696
1772651321444865800,7.64886572265625,0.01459503173828125,0.0008779466152191162,-0.0019530653953552246
1772651321464870400,7.668870361328125,0.016982078552246094,0.005917638540267944,-0.009243488311767578
1772651321484875000,7.688875,0.005009651184082031,0.003580421209335327,-0.00451892614364624
1772651321504879900,7.7088798828125,0.024181365966796875,-0.001395493745803833,-0.004603922367095947
1772651321524884500,7.728884521484375,0.01459503173828125,0.01296377182006836,-0.009291321039199829
1772651321544889000,7.74888916015625,0.031063079833984375,0.0008423328399658203,-0.011867105960845947
1772651321564894000,7.76889404296875,0.028952598571777344,-0.001793980598449707,-0.009394049644470215
1772651321584898600,7.788898681640625,0.038237571716308594,0.012672483921051025,0.0002995729446411133
1772651321604903200,7.808903076171875,0.02177143096923828,-0.003917872905731201,-0.009158074855804443
1772651321624907800,7.82890771484375,0.024173736572265625,0.008126586675643921,-0.009258061647415161
1772651321644912600,7.84891259765625,0.0073986053466796875,0.0011574625968933105,-0.004333138465881348
1772651321664917200,7.868917236328125,0.007391929626464844,0.007899284362792969,0.0076198577880859375
1772651321684921900,7.888921875,0.02654552459716797,0.014935821294784546,0.027157098054885864
1772651321704926700,7.9089267578125,0.0073833465576171875,0.010264158248901367,-0.0041300952434539795
1772651321724931300,7.928931396484375,0.00258636474609375,-0.004283487796783447,-0.01380118727684021
1772651321744936000,7.94893603515625,0.014565467834472656,-0.011565566062927246,-0.01160275936126709
1772651321764941800,7.96894189453125,0.012160301208496094,0.00990450382232666,-0.0018719136714935303
1772651321784948200,7.9889482421875,0.004975318908691406,0.005182504653930664,-0.004181027412414551
1772651321804954400,8.008954345703126,0.028931617736816406,0.0028264224529266357,-0.008964449167251587
1772651321824960500,8.02896044921875,0.03849315643310547,0.007354557514190674,-0.013487577438354492
1772651321844967000,8.048966796875,0.01903247833251953,0.0028432905673980713,-0.01124921441078186
1772651321864973000,8.06897314453125,0.021134376525878906,0.0008721649646759033,0.012715160846710205
1772651321884979200,8.088979248046876,-0.0025272369384765625,0.007928639650344849,0.000766068696975708
1772651321904985600,8.108985595703125,0.033107757568359375,-0.011135280132293701,0.010418176651000977
1772651321924991700,8.12899169921875,0.016330718994140625,-0.0015614330768585205,-0.015958160161972046
1772651321944998000,8.148997802734375,0.023528099060058594,0.0009097158908843994,-0.00424116849899292
1772651321965004300,8.16900439453125,0.045088768005371094,-0.015894711017608643,-0.004312455654144287
1772651321985010400,8.189010498046875,0.011561393737792969,0.010562896728515625,-0.004767656326293945
1772651322005016600,8.2090166015625,0.03551197052001953,-0.013320088386535645,-0.002123415470123291
1772651322025023000,8.22902294921875,0.021132469177246094,0.005752116441726685,0.012316793203353882
1772651322045029000,8.249029052734375,0.018741607666015625,0.013099461793899536,-0.004071861505508423
1772651322065035300,8.26903515625,0.023528099060058594,-0.0014029443264007568,0.015345275402069092
1772651322085041700,8.289041748046875,0.0094451904296875,0.000924229621887207,0.0012017786502838135
1772651322105047800,8.3090478515625,0.03787422180175781,0.01980319619178772,0.0013421475887298584
1772651322125054000,8.329053955078125,0.004329681396484375,0.015129029750823975,0.01613125205039978
1772651322145060400,8.349060302734374,0.028287887573242188,-0.013507336378097534,-0.002979844808578491
1772651322165066500,8.36906640625,-0.007044792175292969,-0.02548930048942566,0.016119807958602905
1772651322185072600,8.38907275390625,0.021099090576171875,-0.00394594669342041,-0.015240669250488281
1772651322205079000,8.4090791015625,0.013910293579101562,0.029471486806869507,-0.015316158533096313
1772651322225085200,8.429085205078126,0.006717681884765625,0.0030387043952941895,0.00901418924331665
1772651322245091300,8.44909130859375,0.04264545440673828,0.000681072473526001,-0.0006759166717529297
1772651322265098000,8.469097900390626,0.02108287811279297,-0.004029184579849243,-0.003174006938934326
1772651322285105000,8.48910498046875,0.016305923461914062,0.017732322216033936,0.0015278756618499756
1772651322305111600,8.509111572265626,0.0115203857421875,0.020154118537902832,-0.0010417699813842773
1772651322325118200,8.5291181640625,0.0067291259765625,0.008202850818634033,-0.008124053478240967
1772651322345124900,8.549124755859374,0.0211029052734375,-0.00858035683631897,-0.0058412253856658936
1772651322365131800,8.5691318359375,0.023502349853515625,0.003477722406387329,-0.0010235011577606201
1772651322385138400,8.589138427734374,0.023197174072265625,0.02001512050628662,0.00837099552154541
1772651322405145000,8.60914501953125,0.009119033813476562,0.019954979419708252,-0.0038215816020965576
1772651322425151700,8.62915185546875,0.021109580993652344,-0.010985076427459717,0.008013725280761719
1772651322445158700,8.64915869140625,0.014216423034667969,0.005600720643997192,0.0010461807250976562
1772651322465165300,8.669165283203125,0.00494384765625,-0.0015627145767211914,0.008579939603805542
1772651322485172000,8.689171875,0.028870582580566406,0.014355212450027466,-0.02205798029899597
1772651322505178600,8.7091787109375,0.026460647583007812,0.00945979356765747,-0.002588927745819092
1772651322525185500,8.729185546875,0.02644824981689453,0.002310842275619507,-0.0021319985389709473
1772651322545192200,8.749192138671875,0.04321479797363281,-0.004995822906494141,-0.009458065032958984
1772651322565198800,8.76919873046875,0.02165699005126953,0.004410356283187866,0.009950369596481323
1772651322585205800,8.789205810546875,0.02645111083984375,-0.004980027675628662,-0.014372259378433228
1772651322605212400,8.80921240234375,0.021653175354003906,0.002089887857437134,-0.004145115613937378
1772651322625219000,8.829218994140625,0.016860008239746094,0.004352062940597534,-0.004308074712753296
1772651322645226000,8.84922607421875,0.023754119873046875,0.007168769836425781,0.021730661392211914
1772651322665232600,8.869232666015625,0.011468887329101562,-0.002239227294921875,-0.0000527799129486084
1772651322685239300,8.8892392578125,0.023453712463378906,0.009798407554626465,-0.002915889024734497
1772651322705246000,8.909245849609375,0.0066890716552734375,0.0003529191017150879,-0.005460977554321289
1772651322725252900,8.9292529296875,-0.0005025863647460938,0.0075032711029052734,-0.0050653815269470215
1772651322745259500,8.949259521484375,0.021058082580566406,0.007561743259429932,0.009624719619750977
1772651322765266200,8.96926611328125,0.033028602600097656,-0.016626745462417603,-0.0030682384967803955
1772651322785272800,8.98927294921875,0.013871192932128906,-0.004613548517227173,0.006628692150115967
1772651322805279500,9.009279541015625,0.013864517211914062,0.012067556381225586,-0.01271626353263855
1772651322825286100,9.0292861328125,0.035416603088378906,0.014448344707489014,-0.007714033126831055
1772651322845292800,9.049292724609375,0.025842666625976562,-0.0070029497146606445,0.023894846439361572
1772651322865299500,9.069299560546876,0.023427963256835938,0.016636699438095093,-0.0023019015789031982
1772651322885306000,9.08930615234375,0.01624584197998047,0.002446383237838745,0.009841948747634888
1772651322905312800,9.109312744140626,0.018938064575195312,0.014413923025131226,-0.0044799745082855225
1772651322925319400,9.1293193359375,0.0000762939453125,-0.01665174961090088,-0.0020619332790374756
1772651322945326000,9.149326171875,0.006969451904296875,0.004875838756561279,-0.0022680163383483887
1772651322965332700,9.169332763671875,0.04019451141357422,0.004697144031524658,0.00021475553512573242
1772651322985339400,9.18933935546875,0.009655952453613281,0.011875927448272705,0.009649276733398438
1772651323005346000,9.209345947265625,0.028507232666015625,-0.009943336248397827,-0.014256685972213745
1772651323025352700,9.229352783203124,0.004519462585449219,0.018471091985702515,0.010234832763671875
1772651323045359400,9.249359375,0.04014110565185547,0.013534069061279297,0.01010584831237793
1772651323065366000,9.269365966796874,0.02338886260986328,0.01601618528366089,-0.00020906329154968262
1772651323085372700,9.28937255859375,0.018590927124023438,0.01352924108505249,-0.01929020881652832
1772651323105379300,9.30937939453125,0.006623268127441406,-0.0032090842723846436,-0.00035199522972106934
