time,seconds_elapsed,z,y,x
1772651314115008000,0.319008056640625,-0.006791055202484131,-0.00013315794058144093,0.0003994738217443228
1772651314135015400,0.339015380859375,0.0006657897029072046,0.0003994738217443228,-0.0011984214652329683
1772651314145019100,0.34901904296875,-0.0014647373463958502,0.0009321055840700865,-0.0027963167522102594
1772651314155022600,0.359022705078125,-0.0009321055840700865,-0.00013315794058144093,-0.0006657897029072046
1772651314165026300,0.3690263671875,-0.0003994738217443228,-0.00013315794058144093,-0.0022636849898844957
1772651314175030000,0.379030029296875,-0.0003994738217443228,-0.00013315794058144093,-0.001731053227558732
1772651314185033700,0.38903369140625,0.00013315794058144093,0.0003994738217443228,-0.0011984214652329683
1772651314195037400,0.399037353515625,0.0006657897029072046,0.0014647373463958502,-0.0011984214652329683
1772651314205041200,0.409041259765625,0.0006657897029072046,0.0003994738217443228,-0.001731053227558732
1772651314215044600,0.419044677734375,-0.0009321055840700865,0.0014647373463958502,-0.0006657897029072046
1772651314225048300,0.42904833984375,0.0006657897029072046,0.0014647373463958502,-0.0006657897029072046
1772651314235052000,0.439052001953125,-0.0003994738217443228,0.0003994738217443228,-0.0006657897029072046
1772651314245055700,0.4490556640625,-0.0009321055840700865,0.001997369108721614,-0.0011984214652329683
1772651314255059500,0.4590595703125,-0.0009321055840700865,0.0014647373463958502,-0.001731053227558732
1772651314265063700,0.469063720703125,-0.0003994738217443228,-0.00013315794058144093,-0.001731053227558732
1772651314275068200,0.479068115234375,-0.0003994738217443228,-0.0022636849898844957,-0.001731053227558732
1772651314285072400,0.489072265625,-0.0003994738217443228,0.0009321055840700865,-0.001731053227558732
1772651314295076600,0.49907666015625,0.0006657897029072046,0.0003994738217443228,-0.0011984214652329683
1772651314305080800,0.509080810546875,-0.0009321055840700865,-0.00013315794058144093,-0.001731053227558732
1772651314315085000,0.5190849609375,0.001731053227558732,0.0003994738217443228,-0.0006657897029072046
1772651314325089300,0.52908935546875,-0.0003994738217443228,0.0014647373463958502,-0.003328948514536023
1772651314335093500,0.539093505859375,-0.001997369108721614,-0.00013315794058144093,0.0009321055840700865
1772651314345097700,0.54909765625,-0.0003994738217443228,-0.00013315794058144093,-0.0011984214652329683
1772651314355102200,0.559102294921875,0.00013315794058144093,-0.0011984214652329683,-0.001731053227558732
1772651314365106400,0.5691064453125,-0.0003994738217443228,-0.00013315794058144093,-0.00013315794058144093
1772651314375110700,0.579110595703125,0.0006657897029072046,0.0009321055840700865,-0.00013315794058144093
1772651314385115000,0.589114990234375,-0.0003994738217443228,0.001997369108721614,-0.0027963167522102594
1772651314395119000,0.599119140625,0.0006657897029072046,0.0014647373463958502,-0.001731053227558732
1772651314405123300,0.609123291015625,-0.0009321055840700865,0.0014647373463958502,-0.0006657897029072046
1772651314415127800,0.6191279296875,0.0006657897029072046,-0.00013315794058144093,-0.0006657897029072046
1772651314425132000,0.629132080078125,-0.0003994738217443228,-0.00013315794058144093,-0.0011984214652329683
1772651314435136300,0.63913623046875,-0.0003994738217443228,-0.00013315794058144093,-0.003328948514536023
1772651314445140500,0.649140380859375,0.0011984214652329683,0.0003994738217443228,-0.0022636849898844957
1772651314455144700,0.659144775390625,0.0011984214652329683,0.0009321055840700865,-0.001731053227558732
1772651314465149000,0.66914892578125,-0.0009321055840700865,0.0003994738217443228,-0.0022636849898844957
1772651314475153200,0.679153076171875,0.00013315794058144093,0.001997369108721614,-0.0006657897029072046
1772651314485157400,0.689157470703125,0.00013315794058144093,0.0025300008710473776,-0.0022636849898844957
1772651314495161900,0.699161865234375,0.0011984214652329683,0.0009321055840700865,-0.001731053227558732
1772651314505166000,0.709166015625,-0.0003994738217443228,0.0009321055840700865,-0.0006657897029072046
1772651314515170300,0.71917041015625,-0.001997369108721614,0.0003994738217443228,-0.0022636849898844957
1772651314525174500,0.729174560546875,0.00013315794058144093,0.0003994738217443228,-0.0006657897029072046
1772651314535178800,0.7391787109375,0.00013315794058144093,-0.0011984214652329683,-0.001731053227558732
1772651314545183000,0.749182861328125,0.00013315794058144093,0.0009321055840700865,-0.0006657897029072046
1772651314555187200,0.759187255859375,0.00013315794058144093,-0.00013315794058144093,-0.0022636849898844957
1772651314565191400,0.76919140625,-0.0003994738217443228,0.0003994738217443228,-0.001731053227558732
1772651314575196000,0.77919580078125,0.0011984214652329683,0.0014647373463958502,-0.001731053227558732
1772651314585200000,0.7892001953125,-0.0003994738217443228,0.0003994738217443228,-0.0022636849898844957
1772651314595204400,0.799204345703125,-0.0003994738217443228,-0.00013315794058144093,-0.0022636849898844957
1772651314605208600,0.80920849609375,0.0006657897029072046,0.0014647373463958502,-0.0022636849898844957
1772651314615212800,0.819212890625,0.001731053227558732,0.0014647373463958502,-0.0022636849898844957
1772651314625217000,0.829217041015625,0.0011984214652329683,-0.0011984214652329683,-0.00013315794058144093
1772651314635221200,0.83922119140625,-0.0014647373463958502,0.001997369108721614,-0.0006657897029072046
1772651314645225700,0.849225830078125,0.0011984214652329683,-0.0006657897029072046,-0.0006657897029072046
1772651314655230000,0.85922998046875,0.0006657897029072046,0.0009321055840700865,-0.0022636849898844957
1772651314665234200,0.869234130859375,0.00013315794058144093,-0.0006657897029072046,-0.001731053227558732
1772651314675238400,0.87923828125,-0.0003994738217443228,-0.0011984214652329683,-0.0006657897029072046
1772651314685242600,0.88924267578125,0.0006657897029072046,0.0014647373463958502,-0.0011984214652329683
1772651314695246800,0.899246826171875,0.00013315794058144093,0.0003994738217443228,-0.0011984214652329683
1772651314705251000,0.9092509765625,-0.0003994738217443228,-0.0006657897029072046,-0.0006657897029072046
1772651314715255300,0.91925537109375,0.0011984214652329683,0.0003994738217443228,-0.0011984214652329683
1772651314725259800,0.929259765625,0.00013315794058144093,-0.00013315794058144093,-0.001731053227558732
1772651314735264000,0.939263916015625,-0.0003994738217443228,0.001997369108721614,-0.0011984214652329683
1772651314745268200,0.949268310546875,-0.0009321055840700865,0.0009321055840700865,-0.0022636849898844957
1772651314755272000,0.95927197265625,-0.0009321055840700865,-0.00013315794058144093,-0.0022636849898844957
1772651314765275100,0.969275146484375,0.0011984214652329683,0.001997369108721614,-0.0011984214652329683
1772651314775278000,0.979278076171875,0.0011984214652329683,0.0003994738217443228,-0.0006657897029072046
1772651314785281300,0.98928125,0.00013315794058144093,0.0014647373463958502,-0.0022636849898844957
1772651314795284500,0.999284423828125,-0.0003994738217443228,0.0003994738217443228,-0.001731053227558732
1772651314805287400,1.009287353515625,-0.0003994738217443228,-0.0011984214652329683,-0.0027963167522102594
1772651314815290600,1.01929052734375,0.00013315794058144093,0.0003994738217443228,-0.001731053227558732
1772651314825293600,1.02929345703125,0.00013315794058144093,0.001997369108721614,-0.0027963167522102594
1772651314835296800,1.039296875,0.00013315794058144093,0.0025300008710473776,-0.00013315794058144093
1772651314845300000,1.049300048828125,-0.0003994738217443228,-0.00013315794058144093,-0.0027963167522102594
1772651314855303000,1.059302978515625,0.00013315794058144093,0.0030626326333731413,-0.0006657897029072046
1772651314865306000,1.06930615234375,-0.0003994738217443228,0.001997369108721614,-0.0022636849898844957
1772651314875309300,1.079309326171875,-0.0009321055840700865,0.0014647373463958502,-0.0027963167522102594
1772651314885312300,1.089312255859375,0.0011984214652329683,0.0025300008710473776,-0.001731053227558732
1772651314895315500,1.0993154296875,0.00013315794058144093,0.0003994738217443228,-0.0022636849898844957
1772651314905318400,1.109318359375,0.0006657897029072046,0.0014647373463958502,-0.003328948514536023
1772651314915321600,1.119321533203125,0.00013315794058144093,0.0009321055840700865,-0.001731053227558732
1772651314925324800,1.12932470703125,-0.0014647373463958502,-0.0011984214652329683,-0.0011984214652329683
1772651314935327700,1.13932763671875,0.00013315794058144093,0.0003994738217443228,-0.001731053227558732
1772651314945331000,1.1493310546875,-0.001997369108721614,0.0003994738217443228,-0.003328948514536023
1772651314955334100,1.159334228515625,0.00013315794058144093,0.0009321055840700865,-0.00013315794058144093
1772651314965337000,1.169337158203125,0.0006657897029072046,-0.0006657897029072046,-0.00013315794058144093
1772651314975340300,1.17934033203125,-0.0003994738217443228,0.0003994738217443228,-0.0022636849898844957
1772651314985343500,1.189343505859375,0.0011984214652329683,-0.00013315794058144093,-0.001731053227558732
1772651314995346400,1.199346435546875,-0.0009321055840700865,-0.0006657897029072046,-0.001731053227558732
1772651315005349600,1.209349609375,0.00013315794058144093,0.0025300008710473776,-0.00013315794058144093
1772651315015352600,1.2193525390625,0.0011984214652329683,0.0014647373463958502,-0.001731053227558732
1772651315025355800,1.229355712890625,0.0006657897029072046,0.0014647373463958502,-0.001731053227558732
1772651315035359000,1.23935888671875,0.00013315794058144093,-0.00013315794058144093,-0.001731053227558732
1772651315045362000,1.24936181640625,0.0006657897029072046,-0.0011984214652329683,-0.003328948514536023
1772651315055365000,1.259365234375,0.001731053227558732,0.0009321055840700865,-0.001731053227558732
1772651315065368300,1.269368408203125,-0.0009321055840700865,0.0014647373463958502,-0.001731053227558732
1772651315075371300,1.279371337890625,0.00013315794058144093,-0.00013315794058144093,-0.0011984214652329683
1772651315085374500,1.28937451171875,0.00013315794058144093,0.0003994738217443228,-0.0022636849898844957
1772651315095377400,1.29937744140625,0.00013315794058144093,-0.0011984214652329683,-0.001731053227558732
1772651315105380600,1.309380615234375,-0.0009321055840700865,-0.0006657897029072046,-0.0022636849898844957
1772651315115383800,1.3193837890625,0.00013315794058144093,-0.0011984214652329683,-0.0011984214652329683
1772651315125386800,1.32938671875,0.00013315794058144093,-0.0011984214652329683,-0.001731053227558732
1772651315135390000,1.339389892578125,0.001731053227558732,0.0009321055840700865,-0.0027963167522102594
1772651315145393200,1.34939306640625,0.0006657897029072046,0.0014647373463958502,-0.001731053227558732
1772651315155396000,1.35939599609375,-0.001997369108721614,0.0003994738217443228,-0.0022636849898844957
1772651315165399300,1.3693994140625,0.00013315794058144093,-0.00013315794058144093,-0.0022636849898844957
1772651315175402500,1.379402587890625,0.0006657897029072046,0.0009321055840700865,-0.00013315794058144093
1772651315185405400,1.389405517578125,-0.0009321055840700865,-0.00013315794058144093,-0.0022636849898844957
1772651315195408600,1.39940869140625,-0.0014647373463958502,-0.0006657897029072046,-0.0011984214652329683
1772651315205411600,1.40941162109375,-0.0003994738217443228,-0.00013315794058144093,-0.0011984214652329683
1772651315215414800,1.419414794921875,-0.0009321055840700865,-0.0011984214652329683,-0.0006657897029072046
1772651315225418000,1.42941796875,0.00013315794058144093,0.0003994738217443228,-0.0027963167522102594
1772651315235421000,1.4394208984375,0.00013315794058144093,0.0003994738217443228,-0.001731053227558732
1772651315245424000,1.449424072265625,-0.0009321055840700865,0.0003994738217443228,-0.0022636849898844957
1772651315255427000,1.459427001953125,-0.0003994738217443228,0.0003994738217443228,-0.001731053227558732
1772651315265429500,1.469429443359375,-0.0009321055840700865,-0.0006657897029072046,-0.0011984214652329683
1772651315275432200,1.47943212890625,-0.0003994738217443228,-0.0011984214652329683,-0.0011984214652329683
1772651315285435000,1.489434814453125,-0.0009321055840700865,0.001997369108721614,-0.0022636849898844957
1772651315295437600,1.4994375,0.0006657897029072046,-0.001731053227558732,-0.0022636849898844957
1772651315305440300,1.509440185546875,-0.0003994738217443228,-0.00013315794058144093,-0.0027963167522102594
1772651315315442700,1.519442626953125,0.00013315794058144093,-0.00013315794058144093,-0.001731053227558732
1772651315325445400,1.5294453125,0.0006657897029072046,0.0009321055840700865,-0.0022636849898844957
1772651315335448000,1.539447998046875,0.00013315794058144093,0.003595264395698905,-0.003328948514536023
1772651315345450800,1.54945068359375,0.00013315794058144093,0.0003994738217443228,-0.0006657897029072046
1772651315355453400,1.559453369140625,0.00013315794058144093,0.0009321055840700865,-0.001731053227558732
1772651315365456000,1.569455810546875,-0.0003994738217443228,0.0003994738217443228,-0.0011984214652329683
1772651315375458600,1.57945849609375,0.00013315794058144093,0.0009321055840700865,-0.001731053227558732
1772651315385461200,1.589461181640625,0.0006657897029072046,-0.0006657897029072046,-0.001731053227558732
1772651315395464000,1.5994638671875,0.0011984214652329683,0.0009321055840700865,-0.0027963167522102594
1772651315405466600,1.609466552734375,-0.0003994738217443228,0.0003994738217443228,-0.0022636849898844957
1772651315415469000,1.619468994140625,0.00013315794058144093,-0.0011984214652329683,-0.001731053227558732
1772651315425471700,1.6294716796875,-0.0014647373463958502,0.0009321055840700865,-0.0006657897029072046
1772651315435474400,1.639474365234375,0.00013315794058144093,0.0014647373463958502,-0.001731053227558732
1772651315445477000,1.64947705078125,0.00013315794058144093,-0.0011984214652329683,-0.0022636849898844957
1772651315455479800,1.659479736328125,0.0006657897029072046,0.0003994738217443228,-0.00013315794058144093
1772651315465482200,1.669482177734375,0.0011984214652329683,0.0003994738217443228,-0.0022636849898844957
1772651315475485000,1.67948486328125,-0.0009321055840700865,0.0014647373463958502,-0.0011984214652329683
1772651315485487600,1.689487548828125,0.00013315794058144093,0.0009321055840700865,-0.003328948514536023
1772651315495490300,1.699490234375,0.0006657897029072046,-0.00013315794058144093,-0.0022636849898844957
1772651315505493000,1.709492919921875,0.0006657897029072046,0.001997369108721614,-0.0011984214652329683
1772651315515495400,1.719495361328125,0.0006657897029072046,0.0003994738217443228,-0.0027963167522102594
1772651315525498000,1.729498046875,0.0006657897029072046,-0.0006657897029072046,-0.003328948514536023
1772651315535500800,1.739500732421875,-0.0003994738217443228,-0.00013315794058144093,-0.0027963167522102594
1772651315545503500,1.74950341796875,-0.0009321055840700865,-0.0006657897029072046,-0.0006657897029072046
1772651315555506200,1.759506103515625,-0.0003994738217443228,-0.00013315794058144093,-0.0027963167522102594
1772651315565508600,1.769508544921875,0.00013315794058144093,0.0003994738217443228,-0.0011984214652329683
1772651315575511300,1.77951123046875,-0.0014647373463958502,0.0003994738217443228,-0.001731053227558732
1772651315585514000,1.789513916015625,0.00013315794058144093,0.0003994738217443228,-0.0022636849898844957
1772651315595516700,1.7995166015625,0.00013315794058144093,0.0003994738217443228,-0.0011984214652329683
1772651315605519400,1.809519287109375,0.0011984214652329683,0.0009321055840700865,-0.0006657897029072046
1772651315615521800,1.819521728515625,0.0011984214652329683,-0.00013315794058144093,-0.0011984214652329683
1772651315625524500,1.8295244140625,-0.0009321055840700865,0.001997369108721614,-0.0027963167522102594
1772651315635527200,1.839527099609375,-0.0003994738217443228,0.0009321055840700865,-0.0006657897029072046
1772651315645529900,1.84952978515625,-0.0003994738217443228,-0.00013315794058144093,-0.0027963167522102594
1772651315655532500,1.859532470703125,-0.0003994738217443228,0.0014647373463958502,-0.0011984214652329683
1772651315665535000,1.869534912109375,0.00013315794058144093,0.0014647373463958502,-0.0022636849898844957
1772651315675537700,1.87953759765625,0.0011984214652329683,0.0009321055840700865,-0.003861580276861787
1772651315685540400,1.889540283203125,-0.0009321055840700865,-0.00013315794058144093,-0.0011984214652329683
1772651315695543000,1.89954296875,-0.0009321055840700865,0.0003994738217443228,-0.001731053227558732
1772651315705545700,1.909545654296875,0.0011984214652329683,-0.00013315794058144093,-0.001731053227558732
1772651315715548200,1.919548095703125,0.00013315794058144093,0.0009321055840700865,-0.0022636849898844957
1772651315725550800,1.92955078125,0.00013315794058144093,0.001997369108721614,-0.001731053227558732
1772651315735553500,1.939553466796875,0.00013315794058144093,0.0003994738217443228,-0.0022636849898844957
1772651315745556200,1.94955615234375,0.0011984214652329683,0.0003994738217443228,-0.001731053227558732
1772651315755558700,1.95955859375,-0.0003994738217443228,-0.00013315794058144093,-0.0011984214652329683
1772651315765561000,1.96956103515625,0.0011984214652329683,0.0014647373463958502,-0.0011984214652329683
1772651315775563800,1.979563720703125,0.0011984214652329683,0.0025300008710473776,-0.001731053227558732
1772651315785566200,1.989566162109375,0.001731053227558732,0.0014647373463958502,-0.0022636849898844957
1772651315795568600,1.999568603515625,0.0006657897029072046,-0.00013315794058144093,-0.001731053227558732
1772651315805571000,2.009571044921875,0.00013315794058144093,0.0014647373463958502,-0.001731053227558732
1772651315815573800,2.01957373046875,0.0006657897029072046,0.0003994738217443228,-0.0006657897029072046
1772651315825576200,2.029576171875,-0.0003994738217443228,0.0009321055840700865,-0.0022636849898844957
1772651315835578600,2.03957861328125,0.0011984214652329683,-0.00013315794058144093,-0.0027963167522102594
1772651315845581000,2.0495810546875,0.001731053227558732,0.0009321055840700865,-0.0027963167522102594
1772651315855583700,2.059583740234375,0.0006657897029072046,0.0009321055840700865,-0.003861580276861787
1772651315865586200,2.069586181640625,0.0011984214652329683,-0.0011984214652329683,-0.001731053227558732
1772651315875588600,2.079588623046875,0.00013315794058144093,0.001997369108721614,-0.003328948514536023
1772651315885591300,2.08959130859375,0.00013315794058144093,0.0003994738217443228,-0.001731053227558732
1772651315895593700,2.09959375,-0.0009321055840700865,-0.001731053227558732,-0.0011984214652329683
1772651315905596200,2.10959619140625,-0.0014647373463958502,0.001997369108721614,-0.0011984214652329683
1772651315915598600,2.1195986328125,-0.0003994738217443228,0.0003994738217443228,-0.0011984214652329683
1772651315925601300,2.129601318359375,0.00013315794058144093,0.0003994738217443228,-0.0022636849898844957
1772651315935603700,2.139603759765625,-0.0003994738217443228,0.0003994738217443228,-0.0011984214652329683
1772651315945606100,2.149606201171875,-0.0003994738217443228,0.0003994738217443228,-0.001731053227558732
1772651315955608600,2.159608642578125,0.001731053227558732,-0.0006657897029072046,-0.0027963167522102594
1772651315965611300,2.169611328125,0.00013315794058144093,0.0003994738217443228,-0.001731053227558732
1772651315975613700,2.17961376953125,-0.0003994738217443228,-0.00013315794058144093,-0.0006657897029072046
1772651315985616100,2.1896162109375,-0.0009321055840700865,0.0009321055840700865,-0.0011984214652329683
1772651315995618600,2.19961865234375,0.0006657897029072046,-0.0006657897029072046,-0.0027963167522102594
1772651316005621200,2.209621337890625,-0.0009321055840700865,0.0009321055840700865,-0.0027963167522102594
1772651316015623700,2.219623779296875,-0.0009321055840700865,0.0003994738217443228,-0.0022636849898844957
1772651316025626000,2.229626220703125,0.00013315794058144093,-0.00013315794058144093,-0.0011984214652329683
1772651316035628800,2.23962890625,-0.0003994738217443228,-0.001731053227558732,-0.0027963167522102594
1772651316045631200,2.24963134765625,0.00013315794058144093,-0.0006657897029072046,-0.0027963167522102594
1772651316055633700,2.259633544921875,-0.0009321055840700865,0.0009321055840700865,-0.001731053227558732
1772651316065636000,2.269635986328125,-0.0014647373463958502,-0.00013315794058144093,-0.001731053227558732
1772651316075638800,2.279638671875,0.00013315794058144093,-0.0011984214652329683,-0.0022636849898844957
1772651316085641200,2.28964111328125,0.001731053227558732,0.0003994738217443228,-0.00013315794058144093
1772651316095643600,2.2996435546875,0.00013315794058144093,0.0003994738217443228,-0.0022636849898844957
1772651316105646000,2.30964599609375,0.00013315794058144093,0.0014647373463958502,-0.0027963167522102594
1772651316115648800,2.319648681640625,0.00013315794058144093,-0.00013315794058144093,-0.0006657897029072046
1772651316125651200,2.329651123046875,0.0006657897029072046,-0.0011984214652329683,-0.001731053227558732
1772651316135653600,2.339653564453125,0.0006657897029072046,-0.00013315794058144093,-0.0022636849898844957
1772651316145656000,2.349656005859375,0.00013315794058144093,-0.00013315794058144093,-0.001731053227558732
1772651316155658800,2.35965869140625,-0.0009321055840700865,0.0003994738217443228,-0.0011984214652329683
1772651316165661200,2.3696611328125,0.00013315794058144093,-0.00013315794058144093,-0.001731053227558732
1772651316175663600,2.37966357421875,-0.0003994738217443228,0.0003994738217443228,-0.001731053227558732
1772651316185666300,2.389666259765625,-0.0003994738217443228,0.0003994738217443228,-0.00013315794058144093
1772651316195668700,2.399668701171875,-0.0003994738217443228,-0.0022636849898844957,-0.001731053227558732
1772651316205671200,2.409671142578125,-0.0003994738217443228,-0.0022636849898844957,-0.0022636849898844957
1772651316215673600,2.419673583984375,-0.0003994738217443228,-0.00013315794058144093,-0.0027963167522102594
1772651316225676300,2.42967626953125,-0.0009321055840700865,-0.001731053227558732,-0.001731053227558732
1772651316235678700,2.4396787109375,-0.0003994738217443228,-0.00013315794058144093,-0.003328948514536023
1772651316245681200,2.44968115234375,0.0011984214652329683,-0.0006657897029072046,-0.001731053227558732
1772651316255683800,2.459683837890625,0.0006657897029072046,0.0009321055840700865,-0.003328948514536023
1772651316265687000,2.46968701171875,-0.0014647373463958502,0.0003994738217443228,-0.0027963167522102594
1772651316275690200,2.479690185546875,0.00013315794058144093,-0.0006657897029072046,-0.001731053227558732
1772651316285693400,2.489693359375,-0.0003994738217443228,0.0014647373463958502,-0.0011984214652329683
1772651316295696400,2.4996962890625,0.0006657897029072046,0.0009321055840700865,-0.0011984214652329683
1772651316305699600,2.509699462890625,0.00013315794058144093,0.0030626326333731413,-0.0022636849898844957
1772651316315702800,2.519702880859375,-0.0003994738217443228,0.0009321055840700865,-0.001731053227558732
1772651316325706000,2.5297060546875,0.0022636849898844957,0.0003994738217443228,-0.001731053227558732
1772651316335709000,2.539708984375,0.00013315794058144093,0.0014647373463958502,-0.0006657897029072046
1772651316345712000,2.549712158203125,0.0011984214652329683,0.0014647373463958502,-0.0022636849898844957
1772651316355715300,2.55971533203125,0.00013315794058144093,0.0009321055840700865,-0.0027963167522102594
1772651316365718500,2.569718505859375,-0.0009321055840700865,-0.0022636849898844957,-0.0022636849898844957
1772651316375721700,2.5797216796875,0.0011984214652329683,0.0014647373463958502,-0.0011984214652329683
1772651316385724700,2.589724609375,-0.0003994738217443228,0.0014647373463958502,-0.001731053227558732
1772651316395728000,2.599727783203125,-0.0009321055840700865,-0.0011984214652329683,-0.0022636849898844957
1772651316405731000,2.60973095703125,0.0011984214652329683,0.0009321055840700865,-0.001731053227558732
1772651316415734300,2.619734375,-0.0014647373463958502,0.0014647373463958502,-0.001731053227558732
1772651316425737500,2.629737548828125,0.0011984214652329683,0.0003994738217443228,-0.00013315794058144093
1772651316435740400,2.639740478515625,-0.0009321055840700865,-0.00013315794058144093,-0.001731053227558732
1772651316445743600,2.64974365234375,0.0006657897029072046,-0.0006657897029072046,-0.0022636849898844957
1772651316455746800,2.659746826171875,0.001731053227558732,0.0003994738217443228,-0.0006657897029072046
1772651316465750000,2.66975,0.0006657897029072046,-0.001731053227558732,-0.0022636849898844957
1772651316475753200,2.679753173828125,-0.0003994738217443228,-0.0006657897029072046,-0.0006657897029072046
1772651316485756200,2.689756103515625,-0.0009321055840700865,0.0014647373463958502,-0.0011984214652329683
1772651316495759400,2.69975927734375,-0.0009321055840700865,0.0009321055840700865,-0.0006657897029072046
1772651316505762600,2.709762451171875,0.0011984214652329683,0.0009321055840700865,-0.0027963167522102594
1772651316515765800,2.719765869140625,0.00013315794058144093,0.0003994738217443228,-0.001731053227558732
1772651316525769000,2.72976904296875,-0.0003994738217443228,0.0003994738217443228,-0.0022636849898844957
1772651316535772000,2.73977197265625,0.0006657897029072046,-0.00013315794058144093,-0.001731053227558732
1772651316545775000,2.749775146484375,0.0011984214652329683,0.0003994738217443228,-0.0027963167522102594
1772651316555778300,2.7597783203125,-0.001997369108721614,0.0025300008710473776,-0.0006657897029072046
1772651316565781500,2.769781494140625,0.00013315794058144093,0.0025300008710473776,-0.0022636849898844957
1772651316575784400,2.779784423828125,0.00013315794058144093,-0.00013315794058144093,-0.001731053227558732
1772651316585787600,2.78978759765625,0.001731053227558732,0.0003994738217443228,-0.001731053227558732
1772651316595790800,2.799790771484375,-0.0014647373463958502,0.0003994738217443228,-0.00013315794058144093
1772651316605794000,2.8097939453125,0.00013315794058144093,-0.0011984214652329683,-0.001731053227558732
1772651316615797000,2.819796875,0.00013315794058144093,0.001997369108721614,-0.0022636849898844957
1772651316625800200,2.82980029296875,0.0006657897029072046,0.0003994738217443228,-0.0022636849898844957
1772651316635803400,2.839803466796875,0.00013315794058144093,-0.001731053227558732,-0.0006657897029072046
1772651316645806600,2.849806640625,0.0006657897029072046,-0.00013315794058144093,-0.0022636849898844957
1772651316655809800,2.859809814453125,-0.001997369108721614,0.003595264395698905,-0.0022636849898844957
1772651316665812700,2.869812744140625,0.0006657897029072046,0.0003994738217443228,-0.0006657897029072046
1772651316675816000,2.87981591796875,-0.0009321055840700865,-0.0006657897029072046,-0.0011984214652329683
1772651316685819100,2.889819091796875,0.0006657897029072046,0.001997369108721614,-0.0006657897029072046
1772651316695822300,2.899822265625,-0.0009321055840700865,-0.001731053227558732,-0.0027963167522102594
1772651316705825500,2.909825439453125,0.0006657897029072046,0.0014647373463958502,-0.001731053227558732
1772651316715828500,2.919828369140625,-0.0025300008710473776,-0.00013315794058144093,-0.0011984214652329683
1772651316725831700,2.929831787109375,-0.0009321055840700865,-0.0006657897029072046,-0.0011984214652329683
1772651316735835000,2.9398349609375,-0.0009321055840700865,0.0003994738217443228,-0.0027963167522102594
1772651316745838000,2.949838134765625,-0.0014647373463958502,-0.0011984214652329683,-0.0006657897029072046
1772651316755841000,2.959841064453125,-0.0014647373463958502,0.0014647373463958502,-0.0022636849898844957
1772651316765844000,2.969843994140625,0.001731053227558732,0.0025300008710473776,-0.001731053227558732
1772651316775846700,2.9798466796875,0.0011984214652329683,-0.0011984214652329683,-0.0022636849898844957
1772651316785849600,2.989849609375,0.0011984214652329683,-0.00013315794058144093,-0.00013315794058144093
1772651316795852500,2.9998525390625,0.00013315794058144093,0.0009321055840700865,-0.0006657897029072046
1772651316805855200,3.009855224609375,-0.0009321055840700865,0.0003994738217443228,-0.001731053227558732
1772651316815858200,3.019858154296875,-0.0009321055840700865,-0.00013315794058144093,-0.0011984214652329683
1772651316825860900,3.02986083984375,-0.0003994738217443228,0.0003994738217443228,-0.0011984214652329683
1772651316835863800,3.03986376953125,0.00013315794058144093,-0.0006657897029072046,-0.00013315794058144093
1772651316845866800,3.04986669921875,-0.001997369108721614,-0.00013315794058144093,-0.0011984214652329683
1772651316855869400,3.059869384765625,-0.0014647373463958502,0.0009321055840700865,-0.001731053227558732
1772651316865872400,3.069872314453125,0.001731053227558732,0.0003994738217443228,-0.0027963167522102594
1772651316875875300,3.079875244140625,0.0006657897029072046,0.001997369108721614,-0.0011984214652329683
1772651316885878000,3.0898779296875,-0.0009321055840700865,0.0003994738217443228,-0.0022636849898844957
1772651316895881000,3.099880859375,-0.0009321055840700865,0.0003994738217443228,-0.001731053227558732
1772651316905884000,3.1098837890625,0.00013315794058144093,0.0030626326333731413,-0.0011984214652329683
1772651316915886600,3.119886474609375,0.00013315794058144093,-0.00013315794058144093,-0.0022636849898844957
1772651316925889500,3.1298896484375,0.0006657897029072046,-0.00013315794058144093,-0.0006657897029072046
1772651316935892200,3.139892333984375,-0.0003994738217443228,0.0014647373463958502,-0.0022636849898844957
1772651316945895200,3.149895263671875,-0.0009321055840700865,0.0030626326333731413,-0.0006657897029072046
1772651316955898000,3.159898193359375,0.0006657897029072046,0.0003994738217443228,-0.0011984214652329683
1772651316965900800,3.16990087890625,0.00013315794058144093,0.0014647373463958502,-0.0027963167522102594
1772651316975903700,3.17990380859375,0.00013315794058144093,0.0009321055840700865,-0.0022636849898844957
1772651316985906400,3.189906494140625,-0.0003994738217443228,0.0009321055840700865,-0.001731053227558732
1772651316995909400,3.199909423828125,0.00013315794058144093,0.0014647373463958502,-0.001731053227558732
1772651317005912300,3.209912353515625,-0.0009321055840700865,0.001997369108721614,-0.0006657897029072046
1772651317015915300,3.219915283203125,-0.0014647373463958502,-0.00013315794058144093,-0.0011984214652329683
1772651317035921000,3.2399208984375,0.0006657897029072046,0.0014647373463958502,-0.0022636849898844957
1772651317045923600,3.249923583984375,0.00013315794058144093,-0.00013315794058144093,-0.0011984214652329683
1772651317055926500,3.259926513671875,0.00013315794058144093,0.001997369108721614,-0.003328948514536023
1772651317065929500,3.269929443359375,0.00013315794058144093,0.0003994738217443228,-0.0022636849898844957
1772651317075932200,3.27993212890625,0.0006657897029072046,-0.0006657897029072046,-0.0022636849898844957
1772651317085935000,3.28993505859375,-0.0009321055840700865,-0.00013315794058144093,-0.001731053227558732
1772651317095937800,3.299937744140625,0.00013315794058144093,0.0009321055840700865,-0.0006657897029072046
1772651317105940700,3.309940673828125,-0.0003994738217443228,-0.00013315794058144093,-0.001731053227558732
1772651317115943700,3.319943603515625,0.0006657897029072046,0.0014647373463958502,-0.00013315794058144093
1772651317125946400,3.3299462890625,-0.0003994738217443228,0.0009321055840700865,-0.0027963167522102594
1772651317135949300,3.33994921875,-0.0003994738217443228,0.0003994738217443228,-0.0006657897029072046
1772651317145952300,3.3499521484375,-0.0009321055840700865,0.0009321055840700865,-0.001731053227558732
1772651317155955000,3.359954833984375,0.0006657897029072046,0.0014647373463958502,-0.0011984214652329683
1772651317165958000,3.3699580078125,-0.0009321055840700865,-0.0011984214652329683,-0.0022636849898844957
1772651317175960800,3.3799609375,0.00013315794058144093,0.0003994738217443228,-0.0022636849898844957
1772651317185963500,3.389963623046875,-0.0003994738217443228,0.0003994738217443228,-0.0022636849898844957
1772651317195966500,3.399966552734375,0.0006657897029072046,-0.00013315794058144093,-0.0027963167522102594
1772651317205969200,3.40996923828125,-0.0009321055840700865,0.0003994738217443228,-0.0027963167522102594
1772651317215972000,3.41997216796875,-0.0003994738217443228,-0.001731053227558732,-0.0006657897029072046
1772651317235977700,3.439977783203125,0.00013315794058144093,-0.0006657897029072046,-0.001731053227558732
1772651317245980700,3.449980712890625,0.0006657897029072046,0.0014647373463958502,-0.0027963167522102594
1772651317255983900,3.45998388671875,-0.0009321055840700865,0.0009321055840700865,-0.001731053227558732
1772651317265987600,3.469987548828125,0.0006657897029072046,0.0003994738217443228,-0.0027963167522102594
1772651317275991300,3.4799912109375,-0.0003994738217443228,-0.00013315794058144093,-0.0011984214652329683
1772651317295998500,3.49999853515625,-0.0009321055840700865,0.0003994738217443228,-0.0006657897029072046
1772651317306002200,3.510002197265625,0.0011984214652329683,0.0003994738217443228,-0.0011984214652329683
1772651317316006000,3.520005859375,0.0006657897029072046,0.0009321055840700865,-0.003328948514536023
1772651317326009600,3.530009521484375,0.0011984214652329683,0.001997369108721614,-0.0006657897029072046
1772651317336013300,3.540013427734375,-0.0003994738217443228,0.0014647373463958502,-0.0022636849898844957
1772651317346017000,3.55001708984375,0.001731053227558732,0.0009321055840700865,-0.0006657897029072046
1772651317356020700,3.560020751953125,0.00013315794058144093,0.0009321055840700865,-0.0011984214652329683
1772651317366024400,3.5700244140625,-0.0003994738217443228,0.0009321055840700865,-0.001731053227558732
1772651317376028200,3.580028076171875,-0.0003994738217443228,-0.00013315794058144093,-0.0027963167522102594
1772651317386031900,3.590031982421875,0.0006657897029072046,0.0003994738217443228,-0.00013315794058144093
1772651317396035300,3.600035400390625,0.0011984214652329683,-0.0006657897029072046,-0.001731053227558732
1772651317406039000,3.6100390625,-0.0003994738217443228,-0.00013315794058144093,-0.0022636849898844957
1772651317416042800,3.620042724609375,0.00013315794058144093,-0.00013315794058144093,-0.001731053227558732
1772651317426046500,3.63004638671875,0.00013315794058144093,0.0003994738217443228,-0.0022636849898844957
1772651317436050200,3.64005029296875,-0.0009321055840700865,-0.00013315794058144093,-0.0006657897029072046
1772651317446054000,3.650053955078125,-0.0009321055840700865,0.0009321055840700865,-0.0006657897029072046
1772651317456057600,3.6600576171875,-0.0009321055840700865,0.0003994738217443228,-0.001731053227558732
1772651317466061300,3.670061279296875,-0.0009321055840700865,0.0003994738217443228,-0.0022636849898844957
1772651317486068700,3.69006884765625,0.0006657897029072046,0.0014647373463958502,-0.003328948514536023
1772651317496072400,3.700072509765625,-0.0003994738217443228,0.0014647373463958502,-0.0022636849898844957
1772651317506076000,3.710075927734375,0.0011984214652329683,-0.0006657897029072046,-0.00013315794058144093
1772651317516079600,3.72007958984375,-0.0009321055840700865,-0.00013315794058144093,-0.0027963167522102594
1772651317526083300,3.730083251953125,0.0006657897029072046,-0.00013315794058144093,-0.0011984214652329683
1772651317536087000,3.740087158203125,0.0011984214652329683,0.0003994738217443228,-0.0011984214652329683
1772651317546090800,3.7500908203125,0.00013315794058144093,0.0003994738217443228,-0.001731053227558732
1772651317556094500,3.760094482421875,-0.001997369108721614,0.0003994738217443228,-0.0011984214652329683
1772651317566098200,3.77009814453125,-0.0009321055840700865,0.0003994738217443228,-0.0006657897029072046
1772651317576102000,3.780101806640625,-0.0003994738217443228,0.0009321055840700865,-0.0006657897029072046
1772651317586105600,3.790105712890625,-0.0009321055840700865,-0.00013315794058144093,-0.0027963167522102594
1772651317596109300,3.800109375,-0.0003994738217443228,0.0009321055840700865,-0.0011984214652329683
1772651317606113000,3.810113037109375,0.00013315794058144093,0.0003994738217443228,-0.0011984214652329683
1772651317616116700,3.82011669921875,-0.001997369108721614,-0.0006657897029072046,-0.0011984214652329683
1772651317626120400,3.830120361328125,-0.0009321055840700865,0.0009321055840700865,-0.0011984214652329683
1772651317636124000,3.8401240234375,-0.0003994738217443228,0.0009321055840700865,-0.0022636849898844957
1772651317646127600,3.850127685546875,0.00013315794058144093,-0.00013315794058144093,-0.003861580276861787
1772651317656131300,3.86013134765625,0.00013315794058144093,0.0009321055840700865,-0.0011984214652329683
1772651317666135000,3.870135009765625,-0.0014647373463958502,-0.0011984214652329683,-0.001731053227558732
1772651317676138800,3.880138671875,0.00013315794058144093,-0.00013315794058144093,-0.0011984214652329683
1772651317686142500,3.890142578125,-0.0003994738217443228,-0.00013315794058144093,-0.0006657897029072046
1772651317696146200,3.900146240234375,0.0006657897029072046,0.0009321055840700865,-0.0022636849898844957
1772651317706150000,3.91014990234375,-0.0003994738217443228,0.0014647373463958502,-0.0006657897029072046
1772651317716153600,3.920153564453125,0.0011984214652329683,-0.00013315794058144093,-0.001731053227558732
1772651317726157300,3.9301572265625,0.00013315794058144093,0.0009321055840700865,-0.001731053227558732
1772651317736161000,3.9401611328125,-0.0003994738217443228,0.0009321055840700865,-0.0022636849898844957
1772651317746164700,3.950164794921875,0.0006657897029072046,-0.00013315794058144093,-0.0011984214652329683
1772651317756168200,3.960168212890625,0.0006657897029072046,-0.00013315794058144093,-0.0027963167522102594
1772651317766172000,3.970171875,0.0006657897029072046,0.0003994738217443228,-0.001731053227558732
1772651317776175600,3.980175537109375,-0.0003994738217443228,0.0014647373463958502,-0.0011984214652329683
1772651317786179300,3.990179443359375,0.0006657897029072046,-0.0006657897029072046,-0.0011984214652329683
1772651317796183000,4.00018310546875,0.0006657897029072046,0.0009321055840700865,-0.0011984214652329683
1772651317806186800,4.010186767578125,0.00013315794058144093,0.0009321055840700865,-0.0022636849898844957
1772651317816190500,4.0201904296875,0.00013315794058144093,0.0009321055840700865,-0.003861580276861787
1772651317826194200,4.030194091796875,-0.0009321055840700865,0.0025300008710473776,-0.0022636849898844957
1772651317836198000,4.040197998046875,0.0006657897029072046,0.0014647373463958502,-0.0011984214652329683
1772651317846201300,4.050201416015625,-0.0009321055840700865,0.0003994738217443228,-0.0006657897029072046
1772651317856205000,4.060205078125,0.00013315794058144093,0.0014647373463958502,-0.001731053227558732
1772651317866208800,4.070208740234375,0.00013315794058144093,0.001997369108721614,-0.0011984214652329683
1772651317876212500,4.08021240234375,0.0011984214652329683,-0.00013315794058144093,-0.001731053227558732
1772651317886216200,4.09021630859375,-0.0003994738217443228,0.0003994738217443228,-0.0006657897029072046
1772651317896220000,4.100219970703125,-0.0003994738217443228,-0.00013315794058144093,-0.0011984214652329683
1772651317906223600,4.1102236328125,0.0011984214652329683,0.001997369108721614,-0.001731053227558732
1772651317916227300,4.120227294921875,0.0006657897029072046,0.001997369108721614,-0.0022636849898844957
1772651317926231000,4.13023095703125,-0.001997369108721614,0.0003994738217443228,-0.0022636849898844957
1772651317936234500,4.140234375,-0.004127896390855312,-0.0022636849898844957,-0.0027963167522102594
1772651317946238200,4.15023828125,-0.003595264395698905,-0.0011984214652329683,-0.003328948514536023
1772651317956242000,4.160241943359375,-0.0014647373463958502,0.0025300008710473776,-0.003328948514536023
1772651317966245600,4.17024560546875,-0.0003994738217443228,0.0014647373463958502,-0.0022636849898844957
1772651317976249300,4.180249267578125,-0.0003994738217443228,-0.00013315794058144093,-0.001731053227558732
1772651317986253000,4.190253173828125,-0.00519315991550684,0.001997369108721614,-0.003328948514536023
1772651317996256800,4.2002568359375,-0.0057257916778326035,-0.00013315794058144093,-0.0011984214652329683
1772651318006260500,4.210260498046875,-0.006258423440158367,-0.0011984214652329683,-0.001731053227558732
1772651318016264200,4.22026416015625,-0.0014647373463958502,-0.0006657897029072046,-0.001731053227558732
1772651318026268000,4.230267822265625,0.0027963167522102594,0.0009321055840700865,-0.001731053227558732
1772651318036271600,4.240271728515625,0.004394211806356907,0.0014647373463958502,-0.0006657897029072046
1772651318046274800,4.25027490234375,0.00013315794058144093,0.0003994738217443228,-0.0006657897029072046
1772651318056277800,4.26027783203125,-0.0030626326333731413,-0.00013315794058144093,-0.0022636849898844957
1772651318066280700,4.27028076171875,-0.003595264395698905,-0.00013315794058144093,-0.00013315794058144093
1772651318076283600,4.28028369140625,-0.001997369108721614,0.0014647373463958502,-0.001731053227558732
1772651318086286600,4.29028662109375,0.0022636849898844957,0.0009321055840700865,-0.001731053227558732
1772651318096289800,4.300289794921875,0.003861580276861787,0.0003994738217443228,-0.0011984214652329683
1772651318106292700,4.310292724609375,0.0006657897029072046,0.0009321055840700865,-0.0022636849898844957
1772651318116295700,4.320295654296875,-0.0014647373463958502,-0.00013315794058144093,-0.0006657897029072046
1772651318126298600,4.330298583984375,-0.0025300008710473776,0.0014647373463958502,-0.001731053227558732
1772651318136301600,4.340301513671875,-0.0003994738217443228,0.0009321055840700865,-0.0022636849898844957
1772651318146304500,4.350304443359375,0.0011984214652329683,-0.0006657897029072046,-0.0027963167522102594
1772651318156307500,4.360307373046875,0.0027963167522102594,0.001997369108721614,-0.0027963167522102594
1772651318166310400,4.370310302734375,0.001731053227558732,0.0009321055840700865,-0.0011984214652329683
1772651318176313600,4.380313720703125,-0.0003994738217443228,0.0009321055840700865,-0.0011984214652329683
1772651318186316500,4.390316650390625,-0.003595264395698905,0.0003994738217443228,-0.0011984214652329683
1772651318196319500,4.400319580078125,-0.001997369108721614,0.001997369108721614,-0.001731053227558732
1772651318206322400,4.410322509765625,0.0006657897029072046,0.0003994738217443228,-0.0006657897029072046
1772651318216325400,4.420325439453125,0.003861580276861787,0.001997369108721614,-0.004394211806356907
1772651318226328300,4.430328369140625,0.00013315794058144093,0.0014647373463958502,-0.001731053227558732
1772651318236331300,4.440331298828125,-0.0009321055840700865,0.0025300008710473776,-0.0006657897029072046
1772651318246334200,4.450334228515625,-0.0025300008710473776,0.0009321055840700865,-0.0022636849898844957
1772651318256337000,4.4603369140625,0.00013315794058144093,-0.00013315794058144093,-0.003328948514536023
1772651318266338800,4.4703388671875,0.0022636849898844957,0.0009321055840700865,-0.001731053227558732
1772651318276340700,4.4803408203125,0.003861580276861787,0.001997369108721614,-0.0027963167522102594
1772651318286342700,4.4903427734375,0.00013315794058144093,0.001997369108721614,-0.003328948514536023
1772651318296344800,4.5003447265625,-0.0009321055840700865,-0.0006657897029072046,-0.003861580276861787
1772651318306346800,4.5103466796875,-0.001997369108721614,0.0014647373463958502,-0.0022636849898844957
1772651318316348700,4.5203486328125,-0.001997369108721614,0.0009321055840700865,-0.003328948514536023
1772651318326350600,4.5303505859375,0.0011984214652329683,0.0003994738217443228,-0.003328948514536023
1772651318336352500,4.5403525390625,0.0027963167522102594,0.0009321055840700865,-0.0006657897029072046
1772651318346354400,4.5503544921875,0.0011984214652329683,0.0014647373463958502,-0.0011984214652329683
1772651318356356400,4.5603564453125,-0.0014647373463958502,-0.0011984214652329683,-0.0011984214652329683
1772651318366358300,4.570358154296875,-0.001997369108721614,0.001997369108721614,-0.001731053227558732
1772651318376360200,4.580360107421875,-0.001997369108721614,0.0003994738217443228,-0.0027963167522102594
1772651318386362000,4.590362060546875,0.0006657897029072046,-0.0006657897029072046,-0.0022636849898844957
1772651318396364000,4.600364013671875,0.0011984214652329683,0.0009321055840700865,-0.00013315794058144093
1772651318406366000,4.610365966796875,0.0011984214652329683,0.0009321055840700865,-0.0022636849898844957
1772651318416367900,4.620367919921875,-0.0009321055840700865,0.0009321055840700865,-0.0022636849898844957
1772651318426369800,4.630369873046875,-0.0030626326333731413,0.001997369108721614,-0.001731053227558732
1772651318436371700,4.640371826171875,-0.0014647373463958502,-0.0006657897029072046,-0.0022636849898844957
1772651318446373600,4.65037353515625,-0.0009321055840700865,0.001997369108721614,-0.0027963167522102594
1772651318456375600,4.66037548828125,0.0011984214652329683,0.0009321055840700865,-0.0011984214652329683
1772651318466377500,4.67037744140625,0.0011984214652329683,0.0003994738217443228,0.0003994738217443228
1772651318476379400,4.68037939453125,0.00013315794058144093,-0.0022636849898844957,-0.0022636849898844957
1772651318486381600,4.690381591796875,-0.0014647373463958502,0.0009321055840700865,-0.0011984214652329683
1772651318496383500,4.700383544921875,0.00013315794058144093,0.0009321055840700865,-0.0022636849898844957
1772651318506385400,4.710385498046875,0.0006657897029072046,0.0014647373463958502,-0.0011984214652329683
1772651318516387300,4.72038720703125,0.0011984214652329683,0.0009321055840700865,-0.001731053227558732
1772651318526389200,4.73038916015625,0.0011984214652329683,0.0009321055840700865,-0.00013315794058144093
1772651318536391200,4.74039111328125,0.0006657897029072046,0.0003994738217443228,0.0009321055840700865
1772651318546393000,4.75039306640625,-0.0009321055840700865,-0.001731053227558732,-0.00013315794058144093
1772651318556395000,4.76039501953125,0.00013315794058144093,-0.0006657897029072046,-0.0011984214652329683
1772651318566397000,4.77039697265625,0.0006657897029072046,-0.001731053227558732,-0.0006657897029072046
1772651318576398800,4.78039892578125,0.0011984214652329683,-0.00013315794058144093,-0.0006657897029072046
1772651318586400800,4.79040087890625,0.00013315794058144093,-0.00013315794058144093,-0.0022636849898844957
1772651318596402700,4.800402587890625,0.00013315794058144093,0.001997369108721614,-0.0027963167522102594
1772651318606404600,4.810404541015625,-0.0003994738217443228,-0.0011984214652329683,-0.0027963167522102594
1772651318616406500,4.820406494140625,-0.001997369108721614,0.0009321055840700865,-0.0011984214652329683
1772651318626408400,4.830408447265625,0.0006657897029072046,-0.0006657897029072046,-0.00013315794058144093
1772651318636410400,4.840410400390625,0.0027963167522102594,0.0003994738217443228,-0.001731053227558732
1772651318656414200,4.860414306640625,0.00013315794058144093,0.0025300008710473776,-0.003328948514536023
1772651318666416000,4.870416015625,0.0006657897029072046,0.0014647373463958502,-0.0011984214652329683
1772651318676418000,4.88041796875,0.00013315794058144093,0.0009321055840700865,-0.001731053227558732
1772651318686420200,4.890420166015625,0.0011984214652329683,-0.0011984214652329683,-0.0011984214652329683
1772651318696422100,4.900422119140625,0.0006657897029072046,0.0030626326333731413,-0.0006657897029072046
1772651318706424000,4.910424072265625,0.00013315794058144093,0.0009321055840700865,-0.0006657897029072046
1772651318716426000,4.920426025390625,0.0011984214652329683,0.0025300008710473776,-0.0011984214652329683
1772651318726428000,4.930427978515625,-0.0009321055840700865,0.0003994738217443228,-0.0027963167522102594
1772651318736429800,4.940429931640625,0.00013315794058144093,0.0014647373463958502,-0.0027963167522102594
1772651318746431700,4.950431640625,0.001731053227558732,-0.0011984214652329683,-0.00013315794058144093
1772651318756434200,4.96043408203125,0.0011984214652329683,0.0025300008710473776,-0.0022636849898844957
1772651318766436900,4.970436767578125,0.0006657897029072046,-0.00013315794058144093,-0.00013315794058144093
1772651318776439800,4.980439697265625,-0.0003994738217443228,0.0025300008710473776,-0.00013315794058144093
1772651318786442800,4.99044287109375,-0.0014647373463958502,-0.00013315794058144093,-0.003328948514536023
1772651318796445700,5.00044580078125,-0.0003994738217443228,-0.00013315794058144093,-0.001731053227558732
1772651318806448400,5.010448486328125,0.0006657897029072046,0.0003994738217443228,-0.0022636849898844957
1772651318816451300,5.020451416015625,0.00013315794058144093,0.0025300008710473776,-0.0011984214652329683
1772651318826454300,5.030454345703125,0.00013315794058144093,0.001997369108721614,-0.0022636849898844957
1772651318836457200,5.040457275390625,0.00013315794058144093,0.001997369108721614,-0.003328948514536023
1772651318856462800,5.060462890625,-0.001997369108721614,0.0003994738217443228,-0.003328948514536023
1772651318866465800,5.0704658203125,-0.0009321055840700865,0.001997369108721614,-0.0006657897029072046
1772651318876468700,5.08046875,0.0006657897029072046,0.0014647373463958502,-0.0022636849898844957
1772651318886471400,5.090471435546875,0.0022636849898844957,0.0003994738217443228,-0.001731053227558732
1772651318906477300,5.110477294921875,0.00013315794058144093,0.0025300008710473776,-0.0011984214652329683
1772651318916480300,5.120480224609375,-0.0009321055840700865,0.0003994738217443228,-0.0027963167522102594
1772651318926483000,5.13048291015625,-0.0009321055840700865,0.003595264395698905,-0.003328948514536023
1772651318936486000,5.14048583984375,0.0006657897029072046,0.0009321055840700865,-0.0022636849898844957
1772651318946488800,5.15048876953125,0.0022636849898844957,0.0025300008710473776,-0.001731053227558732
1772651318956491800,5.16049169921875,-0.0009321055840700865,0.001997369108721614,-0.0006657897029072046
1772651318966494500,5.170494384765625,-0.001997369108721614,0.001997369108721614,-0.0022636849898844957
1772651318976497400,5.180497314453125,-0.0009321055840700865,-0.0011984214652329683,-0.0027963167522102594
1772651318986500400,5.190500244140625,-0.0003994738217443228,0.0009321055840700865,-0.001731053227558732
1772651318996503300,5.20050341796875,0.0027963167522102594,-0.00013315794058144093,-0.0011984214652329683
1772651319006506000,5.210506103515625,0.0006657897029072046,0.0003994738217443228,-0.0022636849898844957
1772651319016509000,5.220509033203125,0.00013315794058144093,0.0014647373463958502,-0.001731053227558732
1772651319026512000,5.230511962890625,-0.0009321055840700865,0.004127896390855312,-0.0006657897029072046
1772651319036514800,5.240514892578125,-0.0003994738217443228,-0.00013315794058144093,0.0003994738217443228
1772651319046517500,5.250517578125,0.0011984214652329683,-0.00013315794058144093,-0.0006657897029072046
1772651319056520400,5.2605205078125,0.0006657897029072046,0.0014647373463958502,-0.003328948514536023
1772651319066523400,5.2705234375,-0.0009321055840700865,0.0009321055840700865,-0.001731053227558732
1772651319076526300,5.2805263671875,0.00013315794058144093,-0.00013315794058144093,-0.001731053227558732
1772651319086529000,5.290529052734375,0.0006657897029072046,0.0014647373463958502,-0.0011984214652329683
1772651319096532000,5.300531982421875,-0.0003994738217443228,-0.0011984214652329683,-0.0011984214652329683
1772651319106535000,5.310534912109375,-0.0014647373463958502,-0.0006657897029072046,-0.0022636849898844957
1772651319116537900,5.320537841796875,0.00013315794058144093,0.001997369108721614,-0.001731053227558732
1772651319126540500,5.33054052734375,0.0011984214652329683,0.0025300008710473776,-0.0006657897029072046
1772651319136543500,5.34054345703125,0.0006657897029072046,0.0003994738217443228,-0.001731053227558732
1772651319146546400,5.35054638671875,0.00013315794058144093,0.0014647373463958502,-0.001731053227558732
1772651319156549400,5.36054931640625,-0.0003994738217443228,-0.00013315794058144093,-0.001731053227558732
1772651319166552000,5.370552001953125,-0.0003994738217443228,-0.00013315794058144093,-0.0006657897029072046
1772651319176555000,5.380554931640625,0.00013315794058144093,0.0003994738217443228,-0.0022636849898844957
1772651319186558000,5.390557861328125,0.00013315794058144093,0.0003994738217443228,-0.0022636849898844957
1772651319196561000,5.400560791015625,-0.0003994738217443228,0.0003994738217443228,-0.0022636849898844957
1772651319206563600,5.4105634765625,0.0006657897029072046,0.0009321055840700865,-0.001731053227558732
1772651319216566500,5.42056640625,0.0011984214652329683,0.0014647373463958502,-0.0022636849898844957
1772651319226569500,5.430569580078125,0.00013315794058144093,0.0003994738217443228,-0.001731053227558732
1772651319236572400,5.440572509765625,-0.0003994738217443228,0.001997369108721614,-0.001731053227558732
1772651319246575000,5.4505751953125,0.0006657897029072046,0.0003994738217443228,-0.0022636849898844957
1772651319256578800,5.460578857421875,0.00013315794058144093,-0.0006657897029072046,-0.0006657897029072046
1772651319266583000,5.4705830078125,0.00013315794058144093,-0.0011984214652329683,-0.0022636849898844957
1772651319276587300,5.480587158203125,0.00013315794058144093,-0.0006657897029072046,-0.001731053227558732
1772651319286591500,5.490591552734375,0.0006657897029072046,0.0014647373463958502,-0.0027963167522102594
1772651319306600000,5.510599853515625,0.00013315794058144093,-0.00013315794058144093,-0.0027963167522102594
1772651319326608400,5.5306083984375,-0.0003994738217443228,-0.00013315794058144093,0.0014647373463958502
1772651319336612600,5.540612548828125,-0.0009321055840700865,0.0014647373463958502,-0.001731053227558732
1772651319346616800,5.550616943359375,0.0011984214652329683,0.0003994738217443228,-0.0027963167522102594
1772651319356621000,5.56062109375,0.001731053227558732,0.001997369108721614,-0.001731053227558732
1772651319366625300,5.570625244140625,0.0006657897029072046,0.0009321055840700865,-0.0022636849898844957
1772651319376629500,5.58062939453125,-0.0009321055840700865,0.0009321055840700865,-0.001731053227558732
1772651319386634000,5.590634033203125,0.00013315794058144093,0.001997369108721614,-0.0011984214652329683
1772651319396638200,5.60063818359375,-0.0003994738217443228,0.0014647373463958502,-0.0006657897029072046
1772651319406642400,5.610642333984375,0.00013315794058144093,-0.00013315794058144093,-0.0006657897029072046
1772651319416646700,5.620646728515625,0.0011984214652329683,-0.001731053227558732,-0.0006657897029072046
1772651319426651000,5.63065087890625,-0.0003994738217443228,0.0003994738217443228,-0.0006657897029072046
1772651319436655000,5.640655029296875,-0.0003994738217443228,-0.0006657897029072046,-0.00013315794058144093
1772651319446659300,5.650659423828125,-0.0003994738217443228,0.0014647373463958502,-0.0022636849898844957
1772651319456663600,5.66066357421875,-0.0003994738217443228,0.0014647373463958502,-0.001731053227558732
1772651319466667800,5.670667724609375,0.0011984214652329683,0.0009321055840700865,-0.0011984214652329683
1772651319476672000,5.680672119140625,0.0006657897029072046,0.0014647373463958502,-0.0011984214652329683
1772651319486676200,5.69067626953125,0.0011984214652329683,-0.0006657897029072046,-0.0027963167522102594
1772651319496680400,5.700680419921875,0.0006657897029072046,-0.00013315794058144093,-0.0011984214652329683
1772651319506684700,5.7106845703125,0.00013315794058144093,0.0009321055840700865,-0.0006657897029072046
1772651319516689000,5.72068896484375,0.0006657897029072046,-0.0006657897029072046,-0.0006657897029072046
1772651319526693400,5.730693359375,0.00013315794058144093,0.0014647373463958502,-0.00013315794058144093
1772651319536697600,5.740697509765625,0.00013315794058144093,0.0014647373463958502,-0.001731053227558732
1772651319546701800,5.750701904296875,-0.0030626326333731413,0.0009321055840700865,-0.001731053227558732
1772651319556706000,5.7607060546875,0.0006657897029072046,-0.00013315794058144093,-0.0027963167522102594
1772651319566710300,5.770710205078125,0.001731053227558732,-0.0006657897029072046,-0.0011984214652329683
1772651319576714500,5.780714599609375,-0.0003994738217443228,0.0003994738217443228,-0.0006657897029072046
1772651319586718700,5.79071875,-0.0003994738217443228,-0.0006657897029072046,-0.0022636849898844957
1772651319596723000,5.800722900390625,-0.001997369108721614,0.001997369108721614,-0.0006657897029072046
1772651319606727200,5.81072705078125,0.0006657897029072046,-0.00013315794058144093,-0.0011984214652329683
1772651319616731400,5.8207314453125,0.0006657897029072046,0.0003994738217443228,-0.001731053227558732
1772651319626735600,5.830735595703125,-0.0009321055840700865,-0.0006657897029072046,-0.0011984214652329683
1772651319636739800,5.84073974609375,-0.0014647373463958502,0.0003994738217443228,-0.0006657897029072046
1772651319646744000,5.850744140625,-0.0003994738217443228,0.0003994738217443228,-0.00013315794058144093
1772651319656748300,5.860748291015625,-0.0003994738217443228,0.0003994738217443228,-0.003861580276861787
1772651319666752500,5.87075244140625,0.0006657897029072046,-0.00013315794058144093,-0.001731053227558732
1772651319676756700,5.8807568359375,0.0006657897029072046,-0.00013315794058144093,-0.001731053227558732
1772651319686761200,5.89076123046875,0.00013315794058144093,0.0009321055840700865,-0.0011984214652329683
1772651319696765400,5.900765380859375,-0.0009321055840700865,0.0009321055840700865,-0.0011984214652329683
1772651319706769700,5.910769775390625,0.00013315794058144093,0.0003994738217443228,-0.001731053227558732
1772651319716774000,5.92077392578125,-0.0003994738217443228,0.0030626326333731413,-0.001731053227558732
1772651319726778000,5.930778076171875,0.0011984214652329683,0.0009321055840700865,-0.001731053227558732
1772651319736782300,5.9407822265625,0.0011984214652329683,0.0025300008710473776,-0.0022636849898844957
1772651319746786600,5.95078662109375,0.00013315794058144093,0.001997369108721614,-0.0027963167522102594
1772651319756790800,5.960790771484375,0.0006657897029072046,0.0009321055840700865,-0.003328948514536023
1772651319766794500,5.97079443359375,-0.0009321055840700865,0.001997369108721614,-0.001731053227558732
1772651319776798500,5.980798583984375,0.00013315794058144093,-0.0006657897029072046,-0.0011984214652329683
1772651319786802700,5.990802734375,0.00013315794058144093,-0.0011984214652329683,-0.0011984214652329683
1772651319796806700,6.000806640625,-0.0009321055840700865,0.0009321055840700865,-0.0011984214652329683
1772651319806810600,6.010810546875,0.0011984214652329683,-0.0006657897029072046,-0.0022636849898844957
1772651319816814600,6.020814697265625,0.0006657897029072046,-0.00013315794058144093,-0.0027963167522102594
1772651319826818600,6.030818603515625,0.0006657897029072046,0.0003994738217443228,-0.001731053227558732
1772651319836822500,6.040822509765625,0.0022636849898844957,0.0009321055840700865,-0.0011984214652329683
1772651319846826500,6.050826416015625,-0.0009321055840700865,-0.00013315794058144093,-0.0006657897029072046
1772651319856830500,6.06083056640625,0.0011984214652329683,0.0009321055840700865,0.0003994738217443228
1772651319866834400,6.07083447265625,0.0006657897029072046,-0.0011984214652329683,-0.0022636849898844957
1772651319876838400,6.08083837890625,0.00013315794058144093,-0.0011984214652329683,-0.0022636849898844957
1772651319886842400,6.09084228515625,0.00013315794058144093,-0.00013315794058144093,-0.0006657897029072046
1772651319896846300,6.100846435546875,0.0011984214652329683,-0.00013315794058144093,-0.0027963167522102594
1772651319906850300,6.110850341796875,0.001731053227558732,-0.0006657897029072046,0.0009321055840700865
1772651319916854300,6.120854248046875,-0.0003994738217443228,0.0009321055840700865,-0.0006657897029072046
1772651319926858200,6.130858154296875,-0.0009321055840700865,-0.0006657897029072046,-0.00013315794058144093
1772651319936862200,6.1408623046875,0.00013315794058144093,-0.0011984214652329683,-0.0011984214652329683
1772651319946866200,6.1508662109375,-0.0003994738217443228,0.0009321055840700865,-0.003328948514536023
1772651319956870100,6.1608701171875,0.0006657897029072046,-0.0006657897029072046,-0.0011984214652329683
1772651319966874000,6.1708740234375,0.00013315794058144093,0.0009321055840700865,-0.00013315794058144093
1772651319976878000,6.180878173828125,0.0011984214652329683,-0.0011984214652329683,-0.0027963167522102594
1772651319986882000,6.190882080078125,-0.0009321055840700865,-0.0006657897029072046,-0.0011984214652329683
1772651319996886000,6.200885986328125,0.00013315794058144093,0.001997369108721614,-0.001731053227558732
1772651320006890000,6.210889892578125,0.0006657897029072046,0.001997369108721614,-0.0022636849898844957
1772651320016894000,6.22089404296875,-0.0003994738217443228,-0.0011984214652329683,-0.003328948514536023
1772651320026898000,6.23089794921875,0.0006657897029072046,-0.00013315794058144093,-0.0011984214652329683
1772651320036902000,6.24090185546875,0.001731053227558732,0.0014647373463958502,-0.0011984214652329683
1772651320046905900,6.25090576171875,-0.0003994738217443228,0.0003994738217443228,-0.001731053227558732
1772651320056909800,6.260909912109375,0.0011984214652329683,0.0009321055840700865,-0.0011984214652329683
1772651320066913800,6.270913818359375,-0.0003994738217443228,0.001997369108721614,-0.00013315794058144093
1772651320076917800,6.280917724609375,0.00013315794058144093,0.0003994738217443228,-0.0022636849898844957
1772651320086921700,6.290921630859375,-0.0003994738217443228,0.0003994738217443228,-0.0027963167522102594
1772651320096925700,6.30092578125,0.00013315794058144093,0.0009321055840700865,-0.0027963167522102594
1772651320106929700,6.3109296875,0.001731053227558732,0.001997369108721614,-0.003328948514536023
1772651320116933600,6.32093359375,0.0006657897029072046,0.0003994738217443228,-0.00013315794058144093
1772651320126937600,6.3309375,0.00013315794058144093,0.0003994738217443228,-0.0022636849898844957
1772651320136941600,6.340941650390625,-0.0014647373463958502,0.0009321055840700865,-0.0006657897029072046
1772651320146945500,6.350945556640625,-0.0003994738217443228,-0.0006657897029072046,-0.0011984214652329683
1772651320156949500,6.360949462890625,0.0006657897029072046,0.0014647373463958502,-0.0022636849898844957
1772651320166953500,6.370953369140625,0.00013315794058144093,0.0003994738217443228,-0.0022636849898844957
1772651320176957400,6.38095751953125,0.0006657897029072046,-0.0027963167522102594,-0.0022636849898844957
1772651320186961700,6.390961669921875,-0.0003994738217443228,-0.00013315794058144093,-0.0006657897029072046
1772651320196965400,6.40096533203125,-0.0009321055840700865,0.0009321055840700865,-0.0022636849898844957
1772651320206969300,6.41096923828125,0.0006657897029072046,0.0009321055840700865,-0.00013315794058144093
1772651320216973600,6.4209736328125,0.00013315794058144093,-0.0006657897029072046,-0.0027963167522102594
1772651320226977500,6.4309775390625,-0.0009321055840700865,-0.0011984214652329683,-0.0011984214652329683
1772651320236981500,6.4409814453125,-0.0003994738217443228,0.0003994738217443228,-0.0006657897029072046
1772651320246985500,6.4509853515625,-0.0009321055840700865,0.0003994738217443228,-0.001731053227558732
1772651320256989000,6.460989013671875,0.00013315794058144093,0.0030626326333731413,-0.001731053227558732
1772651320266992400,6.470992431640625,0.00013315794058144093,0.001997369108721614,-0.0006657897029072046
1772651320276995800,6.480995849609375,-0.0014647373463958502,-0.00013315794058144093,-0.00013315794058144093
1772651320286999300,6.490999267578125,0.0011984214652329683,0.0003994738217443228,-0.0011984214652329683
1772651320297002800,6.501002685546875,-0.0003994738217443228,0.0003994738217443228,-0.0022636849898844957
1772651320307006200,6.511006103515625,-0.0003994738217443228,-0.0011984214652329683,-0.0027963167522102594
1772651320317009700,6.521009765625,-0.0003994738217443228,-0.0022636849898844957,-0.0022636849898844957
1772651320327012900,6.531012939453125,0.00013315794058144093,0.0003994738217443228,-0.0011984214652329683
1772651320337016300,6.541016357421875,0.0011984214652329683,-0.0011984214652329683,-0.0022636849898844957
1772651320347019800,6.551019775390625,0.001731053227558732,0.0003994738217443228,-0.001731053227558732
1772651320357023200,6.561023193359375,0.001731053227558732,-0.001731053227558732,-0.001731053227558732
1772651320367026700,6.571026611328125,0.00013315794058144093,-0.00013315794058144093,-0.0006657897029072046
1772651320377030100,6.581030029296875,-0.0009321055840700865,-0.0011984214652329683,-0.0011984214652329683
1772651320387033600,6.59103369140625,0.0011984214652329683,0.0009321055840700865,-0.0011984214652329683
1772651320397036800,6.601036865234375,0.0006657897029072046,0.0009321055840700865,-0.003328948514536023
1772651320407040300,6.611040283203125,-0.0009321055840700865,0.0003994738217443228,-0.001731053227558732
1772651320417043700,6.621043701171875,-0.0003994738217443228,-0.0006657897029072046,-0.0027963167522102594
1772651320427047200,6.631047119140625,0.0011984214652329683,0.0009321055840700865,0.0009321055840700865
1772651320437050600,6.641050537109375,0.001731053227558732,0.001997369108721614,-0.0011984214652329683
1772651320447054000,6.65105419921875,0.0011984214652329683,-0.0011984214652329683,-0.001731053227558732
1772651320457057300,6.661057373046875,0.0006657897029072046,0.001997369108721614,-0.001731053227558732
1772651320467060700,6.671060791015625,0.0006657897029072046,-0.00013315794058144093,-0.0011984214652329683
1772651320477064200,6.681064208984375,-0.0003994738217443228,0.0009321055840700865,-0.00013315794058144093
1772651320487067600,6.691067626953125,-0.0003994738217443228,0.0003994738217443228,-0.0022636849898844957
1772651320497071000,6.701071044921875,0.00013315794058144093,-0.0011984214652329683,-0.0011984214652329683
1772651320507074600,6.711074462890625,0.0006657897029072046,-0.0006657897029072046,-0.001731053227558732
1772651320517078000,6.721078125,0.0006657897029072046,-0.0006657897029072046,-0.0027963167522102594
1772651320527081200,6.731081298828125,-0.0003994738217443228,0.001997369108721614,-0.003328948514536023
1772651320537084700,6.741084716796875,-0.0003994738217443228,0.0030626326333731413,-0.0011984214652329683
1772651320547088100,6.751088134765625,0.00013315794058144093,0.001997369108721614,-0.0027963167522102594
1772651320557091600,6.761091552734375,-0.0003994738217443228,0.0025300008710473776,-0.001731053227558732
1772651320567095000,6.771094970703125,-0.0003994738217443228,-0.0006657897029072046,-0.0011984214652329683
1772651320577098500,6.781098388671875,-0.0014647373463958502,-0.0011984214652329683,-0.003328948514536023
1772651320587101700,6.791101806640625,0.0011984214652329683,0.0014647373463958502,-0.0022636849898844957
1772651320597105200,6.801105224609375,-0.0009321055840700865,-0.00013315794058144093,-0.0011984214652329683
1772651320607108600,6.811108642578125,0.00013315794058144093,0.0009321055840700865,-0.00013315794058144093
1772651320617112000,6.821112060546875,-0.0003994738217443228,0.0014647373463958502,-0.001731053227558732
1772651320627115500,6.831115478515625,0.0011984214652329683,0.0014647373463958502,-0.0011984214652329683
1772651320637119000,6.841118896484375,0.00013315794058144093,0.001997369108721614,-0.0027963167522102594
1772651320647122400,6.851122314453125,0.0011984214652329683,-0.00013315794058144093,-0.0022636849898844957
1772651320657125600,6.861125732421875,0.001731053227558732,-0.0006657897029072046,-0.0011984214652329683
1772651320667129000,6.871129150390625,-0.0003994738217443228,0.001997369108721614,-0.0011984214652329683
1772651320677132500,6.881132568359375,0.00013315794058144093,-0.001731053227558732,-0.0022636849898844957
1772651320687136000,6.891135986328125,-0.0009321055840700865,0.0003994738217443228,-0.0027963167522102594
1772651320697139500,6.901139404296875,-0.0009321055840700865,0.0014647373463958502,-0.0027963167522102594
1772651320707143000,6.911142822265625,-0.0003994738217443228,0.0014647373463958502,-0.00013315794058144093
1772651320717146000,6.92114599609375,0.00013315794058144093,-0.0006657897029072046,-0.0022636849898844957
1772651320727149600,6.931149658203125,-0.0009321055840700865,0.0014647373463958502,-0.0022636849898844957
1772651320737153000,6.941153076171875,-0.0003994738217443228,-0.00013315794058144093,-0.0011984214652329683
1772651320747156500,6.951156494140625,-0.0025300008710473776,0.0009321055840700865,-0.0011984214652329683
1772651320757159700,6.96115966796875,0.00013315794058144093,-0.00013315794058144093,-0.0022636849898844957
1772651320767163000,6.971162841796875,-0.0003994738217443228,0.001997369108721614,-0.0006657897029072046
1772651320777166300,6.981166259765625,0.0006657897029072046,0.0009321055840700865,-0.003328948514536023
1772651320787169500,6.99116943359375,-0.0003994738217443228,0.0014647373463958502,-0.0011984214652329683
1772651320797172700,7.0011728515625,-0.0009321055840700865,0.0003994738217443228,-0.003861580276861787
1772651320807176000,7.011176025390625,-0.0003994738217443228,0.0014647373463958502,-0.0027963167522102594
1772651320817179100,7.02117919921875,-0.0009321055840700865,-0.0011984214652329683,-0.0011984214652329683
1772651320827182300,7.031182373046875,0.00013315794058144093,-0.00013315794058144093,-0.0022636849898844957
1772651320837185500,7.041185546875,0.0006657897029072046,0.0009321055840700865,-0.0022636849898844957
1772651320847189000,7.05118896484375,-0.0009321055840700865,0.0003994738217443228,-0.001731053227558732
1772651320857192200,7.061192138671875,-0.0014647373463958502,-0.00013315794058144093,-0.0011984214652329683
1772651320867195400,7.0711953125,-0.0009321055840700865,0.0009321055840700865,-0.0011984214652329683
1772651320877198600,7.081198486328125,-0.0014647373463958502,0.0014647373463958502,-0.0011984214652329683
1772651320887201800,7.091201904296875,-0.0009321055840700865,0.0003994738217443228,-0.0011984214652329683
1772651320897205200,7.101205322265625,-0.0009321055840700865,0.0009321055840700865,-0.0011984214652329683
1772651320907208400,7.11120849609375,-0.0003994738217443228,-0.00013315794058144093,-0.0022636849898844957
1772651320917211600,7.121211669921875,0.00013315794058144093,0.0003994738217443228,-0.0011984214652329683
1772651320927214800,7.13121484375,0.0006657897029072046,-0.00013315794058144093,-0.001731053227558732
1772651320937218000,7.141218017578125,-0.0009321055840700865,0.0014647373463958502,-0.0011984214652329683
1772651320947221200,7.15122119140625,0.0006657897029072046,-0.0006657897029072046,-0.0006657897029072046
1772651320957224400,7.161224365234375,0.00013315794058144093,-0.0006657897029072046,-0.0022636849898844957
1772651320967228000,7.171227783203125,-0.0003994738217443228,0.0009321055840700865,-0.0011984214652329683
1772651320977231000,7.181231201171875,-0.0003994738217443228,0.0003994738217443228,-0.001731053227558732
1772651320987234300,7.191234375,0.0011984214652329683,-0.00013315794058144093,-0.0011984214652329683
1772651320997237500,7.201237548828125,-0.0009321055840700865,0.0014647373463958502,-0.0027963167522102594
1772651321007240700,7.21124072265625,0.00013315794058144093,0.0003994738217443228,0.0003994738217443228
1772651321017244000,7.221243896484375,0.00013315794058144093,0.0014647373463958502,-0.0011984214652329683
1772651321027247400,7.231247314453125,0.00013315794058144093,-0.00013315794058144093,-0.0022636849898844957
1772651321037250600,7.24125048828125,0.0006657897029072046,-0.0006657897029072046,-0.001731053227558732
1772651321047253800,7.251253662109375,0.0006657897029072046,0.001997369108721614,-0.0011984214652329683
1772651321057257000,7.261257080078125,-0.0009321055840700865,0.001997369108721614,-0.0011984214652329683
1772651321067260200,7.27126025390625,0.0006657897029072046,0.0009321055840700865,-0.001731053227558732
1772651321077263400,7.281263427734375,0.00013315794058144093,0.0014647373463958502,-0.0011984214652329683
1772651321087266800,7.291266845703125,0.0006657897029072046,0.0009321055840700865,-0.0011984214652329683
1772651321097270000,7.30127001953125,-0.0003994738217443228,-0.00013315794058144093,-0.0027963167522102594
1772651321107273200,7.311273193359375,0.0006657897029072046,0.0009321055840700865,-0.0006657897029072046
1772651321117276400,7.3212763671875,-0.0009321055840700865,-0.00013315794058144093,0.0003994738217443228
1772651321127279600,7.331279541015625,-0.0003994738217443228,0.0009321055840700865,-0.0006657897029072046
1772651321137282800,7.34128271484375,-0.0014647373463958502,0.0003994738217443228,-0.0006657897029072046
1772651321147286000,7.3512861328125,0.001731053227558732,-0.00013315794058144093,-0.00013315794058144093
1772651321157289500,7.36128955078125,0.0011984214652329683,0.0003994738217443228,-0.001731053227558732
1772651321167292700,7.371292724609375,0.00013315794058144093,-0.00013315794058144093,-0.0006657897029072046
1772651321177296000,7.3812958984375,-0.0014647373463958502,0.0003994738217443228,-0.0011984214652329683
1772651321187299000,7.391299072265625,-0.0003994738217443228,0.0003994738217443228,-0.0011984214652329683
1772651321197302300,7.40130224609375,0.0006657897029072046,0.001997369108721614,-0.001731053227558732
1772651321207305700,7.4113056640625,0.0006657897029072046,0.0014647373463958502,-0.0006657897029072046
1772651321217309000,7.421308837890625,0.0011984214652329683,0.0009321055840700865,-0.0011984214652329683
1772651321227312000,7.43131201171875,0.00013315794058144093,0.001997369108721614,-0.0006657897029072046
1772651321237315300,7.4413154296875,0.00013315794058144093,0.0009321055840700865,-0.0006657897029072046
1772651321247318500,7.451318603515625,0.00013315794058144093,0.0030626326333731413,-0.0006657897029072046
1772651321257321200,7.4613212890625,-0.0009321055840700865,0.0003994738217443228,-0.0006657897029072046
1772651321267323600,7.47132373046875,-0.0009321055840700865,0.0003994738217443228,-0.0006657897029072046
1772651321277325800,7.481325927734375,-0.0009321055840700865,-0.00013315794058144093,-0.00013315794058144093
1772651321287328300,7.491328369140625,0.00013315794058144093,0.0009321055840700865,-0.001731053227558732
1772651321297330700,7.50133056640625,0.00013315794058144093,0.001997369108721614,-0.0006657897029072046
1772651321307332900,7.511332763671875,0.00013315794058144093,-0.00013315794058144093,-0.0006657897029072046
1772651321317335300,7.521335205078125,0.0006657897029072046,0.0003994738217443228,-0.0011984214652329683
1772651321327337700,7.531337646484375,0.00013315794058144093,0.0009321055840700865,-0.00013315794058144093
1772651321337340000,7.54133984375,0.0022636849898844957,-0.0006657897029072046,-0.0022636849898844957
1772651321347342300,7.55134228515625,0.00013315794058144093,0.0009321055840700865,-0.0022636849898844957
1772651321357344800,7.5613447265625,-0.0003994738217443228,0.0009321055840700865,-0.0011984214652329683
1772651321367347000,7.571346923828125,0.00013315794058144093,0.0014647373463958502,-0.0006657897029072046
1772651321377349400,7.581349365234375,-0.0003994738217443228,0.0003994738217443228,-0.0022636849898844957
1772651321387351800,7.591351806640625,0.00013315794058144093,-0.0006657897029072046,-0.0027963167522102594
1772651321397354000,7.60135400390625,0.00013315794058144093,-0.00013315794058144093,-0.003328948514536023
1772651321407356400,7.6113564453125,0.0006657897029072046,0.0009321055840700865,-0.001731053227558732
1772651321417358800,7.62135888671875,-0.0003994738217443228,0.0003994738217443228,-0.0011984214652329683
1772651321427361000,7.631361083984375,0.0006657897029072046,-0.00013315794058144093,-0.0011984214652329683
1772651321437363500,7.641363525390625,0.0006657897029072046,0.0014647373463958502,-0.0022636849898844957
1772651321447366000,7.651365966796875,0.001731053227558732,0.0003994738217443228,-0.0027963167522102594
1772651321457368000,7.6613681640625,0.0011984214652329683,0.0025300008710473776,-0.001731053227558732
1772651321467370500,7.67137060546875,0.0006657897029072046,0.0003994738217443228,-0.0027963167522102594
1772651321477372700,7.68137255859375,0.0006657897029072046,0.0009321055840700865,-0.001731053227558732
1772651321487375000,7.691375,-0.0003994738217443228,-0.00013315794058144093,-0.0006657897029072046
1772651321497377500,7.70137744140625,0.00013315794058144093,-0.00013315794058144093,-0.0027963167522102594
1772651321507379700,7.711379638671875,0.00013315794058144093,0.0003994738217443228,-0.001731053227558732
1772651321517382100,7.721382080078125,0.00013315794058144093,0.001997369108721614,-0.0011984214652329683
1772651321527384600,7.731384521484375,0.00013315794058144093,0.0003994738217443228,-0.0022636849898844957
1772651321537386800,7.74138671875,0.0006657897029072046,-0.0011984214652329683,-0.0006657897029072046
1772651321547389200,7.75138916015625,0.0011984214652329683,0.0003994738217443228,-0.0011984214652329683
1772651321557391600,7.7613916015625,0.0011984214652329683,0.0014647373463958502,0.0003994738217443228
1772651321567393800,7.771393798828125,0.0011984214652329683,0.0003994738217443228,-0.0011984214652329683
1772651321577396200,7.781396240234375,0.001731053227558732,-0.00013315794058144093,-0.001731053227558732
1772651321587398400,7.7913984375,0.0011984214652329683,0.0025300008710473776,-0.0027963167522102594
1772651321597400800,7.80140087890625,-0.0009321055840700865,0.0014647373463958502,-0.003328948514536023
1772651321607403300,7.8114033203125,0.00013315794058144093,0.0009321055840700865,-0.001731053227558732
1772651321617405400,7.821405517578125,0.0006657897029072046,-0.00013315794058144093,-0.0022636849898844957
1772651321627408000,7.831407958984375,-0.0003994738217443228,-0.00013315794058144093,-0.001731053227558732
1772651321637410300,7.841410400390625,-0.0014647373463958502,0.0009321055840700865,-0.0011984214652329683
1772651321647412500,7.85141259765625,-0.0014647373463958502,0.0014647373463958502,-0.0011984214652329683
1772651321657415000,7.861414794921875,0.0011984214652329683,-0.0006657897029072046,-0.0006657897029072046
1772651321667417300,7.871417236328125,-0.0003994738217443228,0.001997369108721614,-0.0006657897029072046
1772651321677419500,7.88141943359375,0.00013315794058144093,-0.0006657897029072046,-0.0011984214652329683
1772651321687422000,7.891421875,0.00013315794058144093,0.0025300008710473776,-0.0011984214652329683
1772651321697424400,7.90142431640625,0.00013315794058144093,0.0025300008710473776,-0.0022636849898844957
1772651321707426600,7.911426513671875,0.0011984214652329683,-0.00013315794058144093,-0.0022636849898844957
1772651321717429000,7.921428955078125,-0.0009321055840700865,0.0003994738217443228,-0.00013315794058144093
1772651321727431400,7.931431396484375,0.0011984214652329683,-0.0022636849898844957,-0.00013315794058144093
1772651321737433600,7.94143359375,0.00013315794058144093,0.0003994738217443228,-0.0006657897029072046
1772651321747436000,7.95143603515625,0.00013315794058144093,0.0003994738217443228,-0.001731053227558732
1772651321757438700,7.961438720703125,0.001731053227558732,0.0003994738217443228,-0.0011984214652329683
1772651321767442000,7.97144189453125,-0.0009321055840700865,0.0014647373463958502,-0.0022636849898844957
1772651321777444900,7.98144482421875,-0.0009321055840700865,0.0009321055840700865,-0.0022636849898844957
1772651321787448000,7.991447998046875,0.00013315794058144093,0.0003994738217443228,-0.0006657897029072046
1772651321797451300,8.001451171875,0.0011984214652329683,0.0014647373463958502,-0.0022636849898844957
1772651321807454500,8.011454345703125,0.00013315794058144093,-0.00013315794058144093,-0.001731053227558732
1772651321817457400,8.02145751953125,-0.001997369108721614,0.001997369108721614,-0.00013315794058144093
1772651321827460600,8.031460693359374,-0.0003994738217443228,0.0014647373463958502,0.0003994738217443228
1772651321837463800,8.0414638671875,0.00013315794058144093,-0.00013315794058144093,-0.0027963167522102594
1772651321847466800,8.051466796875,-0.0009321055840700865,-0.0006657897029072046,-0.0011984214652329683
1772651321857470000,8.061469970703126,-0.0003994738217443228,-0.00013315794058144093,-0.003328948514536023
1772651321867473200,8.07147314453125,0.0006657897029072046,0.001997369108721614,-0.0006657897029072046
1772651321877476000,8.08147607421875,-0.0003994738217443228,0.0003994738217443228,-0.0006657897029072046
1772651321887479300,8.091479248046875,0.00013315794058144093,0.0003994738217443228,-0.001731053227558732
1772651321897482500,8.101482421875,0.0006657897029072046,0.0014647373463958502,-0.001731053227558732
1772651321907485400,8.1114853515625,0.00013315794058144093,0.0014647373463958502,-0.0011984214652329683
1772651321917488600,8.121488525390625,-0.0009321055840700865,0.0014647373463958502,-0.0022636849898844957
1772651321927491600,8.13149169921875,0.00013315794058144093,0.0009321055840700865,-0.001731053227558732
1772651321937494800,8.141494873046875,0.0006657897029072046,-0.001731053227558732,-0.001731053227558732
1772651321947498000,8.151498046875,-0.0003994738217443228,0.0003994738217443228,-0.0022636849898844957
1772651321957501200,8.161501220703125,0.00013315794058144093,-0.00013315794058144093,-0.0006657897029072046
1772651321967504100,8.171504150390625,-0.0014647373463958502,-0.00013315794058144093,-0.001731053227558732
1772651321977507300,8.18150732421875,0.0006657897029072046,-0.0006657897029072046,-0.0027963167522102594
1772651321987510300,8.19151025390625,0.00013315794058144093,-0.00013315794058144093,-0.0022636849898844957
1772651321997513500,8.201513427734374,-0.0003994738217443228,0.0009321055840700865,-0.001731053227558732
1772651322007516700,8.2115166015625,0.0011984214652329683,0.0025300008710473776,-0.0011984214652329683
1772651322017519900,8.221519775390625,0.00013315794058144093,0.0014647373463958502,-0.0006657897029072046
1772651322027522800,8.231522705078126,-0.0003994738217443228,0.0003994738217443228,-0.0022636849898844957
1772651322037526000,8.241526123046874,-0.0003994738217443228,0.001997369108721614,-0.0022636849898844957
1772651322047529200,8.251529296875,-0.0009321055840700865,-0.00013315794058144093,-0.0022636849898844957
1772651322057532200,8.2615322265625,-0.0003994738217443228,0.0014647373463958502,-0.0006657897029072046
1772651322067535400,8.271535400390626,0.00013315794058144093,-0.00013315794058144093,-0.0011984214652329683
1772651322077538300,8.281538330078124,-0.001997369108721614,0.0014647373463958502,-0.0011984214652329683
1772651322087541500,8.29154150390625,0.0011984214652329683,0.0014647373463958502,-0.0011984214652329683
1772651322097544700,8.301544677734375,-0.0003994738217443228,0.0014647373463958502,0.0009321055840700865
1772651322107548000,8.3115478515625,0.0006657897029072046,0.0009321055840700865,-0.001731053227558732
1772651322117550800,8.32155078125,0.0006657897029072046,0.004127896390855312,-0.0022636849898844957
1772651322127554000,8.331553955078125,0.00013315794058144093,0.0014647373463958502,-0.0022636849898844957
1772651322137557000,8.341556884765625,0.0011984214652329683,0.0009321055840700865,-0.003328948514536023
1772651322147560200,8.351560302734375,-0.0003994738217443228,0.0003994738217443228,-0.00013315794058144093
1772651322157563400,8.3615634765625,0.00013315794058144093,0.0014647373463958502,-0.0022636849898844957
1772651322167566600,8.371566650390625,-0.0003994738217443228,-0.0006657897029072046,-0.0006657897029072046
1772651322177569500,8.381569580078125,0.0011984214652329683,0.0009321055840700865,-0.001731053227558732
1772651322187572700,8.39157275390625,0.00013315794058144093,-0.00013315794058144093,-0.0011984214652329683
1772651322197576000,8.401575927734376,0.0022636849898844957,0.0009321055840700865,-0.0011984214652329683
1772651322207579000,8.411578857421874,0.0011984214652329683,-0.0006657897029072046,-0.0011984214652329683
1772651322217582000,8.42158203125,0.0006657897029072046,0.0003994738217443228,-0.0011984214652329683
1772651322227585300,8.431585205078125,0.001731053227558732,0.0009321055840700865,-0.0006657897029072046
1772651322237588200,8.441588134765626,0.0006657897029072046,0.0025300008710473776,-0.001731053227558732
1772651322247591400,8.45159130859375,-0.0014647373463958502,0.0009321055840700865,-0.0022636849898844957
1772651322257594600,8.4615947265625,-0.0009321055840700865,0.0014647373463958502,-0.001731053227558732
1772651322267598000,8.47159814453125,-0.0014647373463958502,0.001997369108721614,-0.003328948514536023
1772651322277601300,8.481601318359376,0.00013315794058144093,-0.0011984214652329683,-0.0011984214652329683
1772651322287604700,8.491604736328124,-0.0014647373463958502,0.0009321055840700865,-0.003328948514536023
1772651322297608200,8.501608154296875,-0.0014647373463958502,-0.00013315794058144093,-0.001731053227558732
1772651322307611400,8.511611328125,0.0006657897029072046,-0.0006657897029072046,-0.001731053227558732
1772651322317614800,8.52161474609375,-0.0009321055840700865,0.001997369108721614,-0.001731053227558732
1772651322327618300,8.531618408203125,0.0011984214652329683,-0.00013315794058144093,-0.0022636849898844957
1772651322337621500,8.54162158203125,-0.0009321055840700865,-0.0011984214652329683,-0.0011984214652329683
1772651322347625000,8.551625,-0.0003994738217443228,0.0009321055840700865,-0.0006657897029072046
1772651322357628400,8.56162841796875,-0.0009321055840700865,0.0009321055840700865,-0.0022636849898844957
1772651322367631600,8.571631591796875,-0.0009321055840700865,0.0003994738217443228,-0.0027963167522102594
1772651322377635000,8.581635009765625,-0.0003994738217443228,-0.001731053227558732,-0.00013315794058144093
1772651322387638300,8.59163818359375,0.0006657897029072046,0.0014647373463958502,-0.0006657897029072046
1772651322397641700,8.601641845703124,-0.0003994738217443228,-0.0006657897029072046,-0.0027963167522102594
1772651322407645200,8.611645263671875,-0.0009321055840700865,0.001997369108721614,-0.0006657897029072046
1772651322417648400,8.6216484375,-0.0009321055840700865,-0.00013315794058144093,-0.003328948514536023
1772651322427651800,8.63165185546875,-0.0009321055840700865,-0.0006657897029072046,-0.0006657897029072046
1772651322437655300,8.6416552734375,-0.0009321055840700865,0.0014647373463958502,-0.0011984214652329683
1772651322447658500,8.651658447265625,0.0006657897029072046,-0.0006657897029072046,-0.0011984214652329683
1772651322457662000,8.661661865234375,-0.0009321055840700865,-0.0011984214652329683,-0.001731053227558732
1772651322467665400,8.67166552734375,-0.0003994738217443228,0.001997369108721614,-0.001731053227558732
1772651322477668600,8.681668701171875,0.00013315794058144093,0.0025300008710473776,0.0003994738217443228
1772651322487672000,8.691672119140625,0.00013315794058144093,0.0009321055840700865,-0.0011984214652329683
1772651322497675500,8.701675537109375,-0.0003994738217443228,0.0025300008710473776,-0.00013315794058144093
1772651322507678700,8.7116787109375,0.00013315794058144093,0.001997369108721614,-0.0022636849898844957
1772651322517682200,8.72168212890625,0.00013315794058144093,0.0030626326333731413,-0.0022636849898844957
1772651322527685600,8.731685546875,0.0006657897029072046,0.001997369108721614,-0.0011984214652329683
1772651322537688800,8.741688720703126,0.0011984214652329683,-0.00013315794058144093,-0.0006657897029072046
1772651322547692300,8.7516923828125,0.0006657897029072046,-0.0011984214652329683,-0.0006657897029072046
1772651322557695500,8.761695556640625,0.0006657897029072046,-0.001731053227558732,-0.0011984214652329683
1772651322567699000,8.771698974609375,-0.0003994738217443228,-0.00013315794058144093,-0.0006657897029072046
1772651322577702400,8.781702392578126,0.0006657897029072046,0.0014647373463958502,-0.0022636849898844957
1772651322587705600,8.79170556640625,-0.0003994738217443228,0.003595264395698905,-0.0027963167522102594
1772651322597709000,8.801708984375,0.0006657897029072046,-0.00013315794058144093,-0.0006657897029072046
1772651322607712300,8.811712158203125,0.0006657897029072046,-0.0006657897029072046,-0.0011984214652329683
1772651322617715700,8.8217158203125,-0.0014647373463958502,-0.00013315794058144093,-0.00013315794058144093
1772651322627719200,8.83171923828125,0.001731053227558732,-0.0006657897029072046,-0.001731053227558732
1772651322637722400,8.841722412109375,0.0011984214652329683,-0.00013315794058144093,-0.0022636849898844957
1772651322647725800,8.851725830078125,-0.0003994738217443228,0.0014647373463958502,-0.0022636849898844957
1772651322657729300,8.861729248046874,-0.0014647373463958502,0.0025300008710473776,-0.0006657897029072046
1772651322667732500,8.871732421875,-0.0009321055840700865,-0.0006657897029072046,-0.0011984214652329683
1772651322677736000,8.88173583984375,-0.0009321055840700865,-0.0006657897029072046,-0.001731053227558732
1772651322687739400,8.891739501953126,0.0006657897029072046,-0.00013315794058144093,-0.0022636849898844957
1772651322697742600,8.90174267578125,0.00013315794058144093,0.0025300008710473776,-0.0011984214652329683
1772651322707746000,8.91174609375,-0.0003994738217443228,-0.00013315794058144093,-0.003328948514536023
1772651322717749500,8.92174951171875,-0.0003994738217443228,0.0003994738217443228,-0.0011984214652329683
1772651322727752700,8.931752685546876,0.00013315794058144093,0.0014647373463958502,-0.001731053227558732
1772651322737756200,8.941756103515624,0.00013315794058144093,0.0003994738217443228,-0.0022636849898844957
1772651322747759600,8.951759521484375,0.0011984214652329683,0.0009321055840700865,-0.001731053227558732
1772651322757762800,8.9617626953125,-0.0009321055840700865,-0.0006657897029072046,0.0003994738217443228
1772651322767766000,8.97176611328125,0.00013315794058144093,0.0003994738217443228,-0.0006657897029072046
1772651322777769500,8.98176953125,0.00013315794058144093,-0.0006657897029072046,-0.0022636849898844957
1772651322787772700,8.991772705078125,0.0006657897029072046,-0.0006657897029072046,-0.0011984214652329683
1772651322797776100,9.001776123046875,0.0011984214652329683,0.001997369108721614,-0.0011984214652329683
1772651322807779600,9.011779541015626,-0.0003994738217443228,0.0003994738217443228,-0.0011984214652329683
1772651322817782800,9.02178271484375,0.0006657897029072046,0.001997369108721614,-0.0006657897029072046
1772651322827786200,9.0317861328125,-0.001997369108721614,0.0009321055840700865,-0.0027963167522102594
1772651322837789400,9.04178955078125,-0.0009321055840700865,-0.00013315794058144093,-0.0022636849898844957
1772651322847793000,9.05179296875,0.0011984214652329683,0.0003994738217443228,-0.001731053227558732
1772651322857796000,9.061796142578125,0.001731053227558732,0.0009321055840700865,0.0003994738217443228
1772651322867799600,9.071799560546875,0.00013315794058144093,0.0014647373463958502,-0.0006657897029072046
1772651322877802800,9.081802734375,-0.0009321055840700865,0.0025300008710473776,-0.0027963167522102594
1772651322887806200,9.09180615234375,0.0006657897029072046,0.0003994738217443228,-0.0022636849898844957
1772651322897809400,9.101809326171875,-0.0009321055840700865,0.0014647373463958502,-0.0011984214652329683
1772651322907812900,9.111812744140625,0.0011984214652329683,-0.0006657897029072046,-0.0022636849898844957
1772651322917816000,9.121816162109376,-0.0014647373463958502,0.0025300008710473776,-0.0022636849898844957
1772651322927819500,9.131819580078124,-0.0009321055840700865,-0.0006657897029072046,-0.0011984214652329683
1772651322937822700,9.14182275390625,0.001731053227558732,-0.0011984214652329683,-0.0006657897029072046
1772651322947826200,9.151826171875,0.0006657897029072046,-0.0006657897029072046,-0.001731053227558732
1772651322957829400,9.161829345703126,0.00013315794058144093,0.0014647373463958502,-0.0011984214652329683
1772651322967832800,9.171832763671874,0.0006657897029072046,0.0009321055840700865,-0.0006657897029072046
1772651322977836000,9.1818359375,-0.0003994738217443228,0.0003994738217443228,-0.0011984214652329683
1772651322987839500,9.191839599609375,-0.0025300008710473776,-0.0011984214652329683,-0.0022636849898844957
1772651322997842700,9.2018427734375,-0.0014647373463958502,0.0009321055840700865,-0.00013315794058144093
1772651323007846100,9.21184619140625,-0.0003994738217443228,0.0009321055840700865,-0.00013315794058144093
1772651323017849300,9.221849365234375,-0.0003994738217443228,0.003595264395698905,0.0009321055840700865
1772651323027852800,9.231852783203125,0.0011984214652329683,0.004127896390855312,-0.0006657897029072046
1772651323037856000,9.24185595703125,0.00013315794058144093,0.0025300008710473776,-0.0006657897029072046
1772651323047859500,9.251859375,0.0006657897029072046,-0.0006657897029072046,-0.001731053227558732
1772651323057862700,9.261862548828125,-0.0003994738217443228,-0.0022636849898844957,-0.0022636849898844957
1772651323067866000,9.2718662109375,-0.0009321055840700865,-0.001731053227558732,-0.0022636849898844957
1772651323077869300,9.281869384765624,0.001731053227558732,-0.00013315794058144093,-0.0011984214652329683
1772651323087872800,9.291872802734375,0.00013315794058144093,0.001997369108721614,-0.0011984214652329683
1772651323097876000,9.3018759765625,0.00013315794058144093,-0.0011984214652329683,-0.0022636849898844957
1772651323107879400,9.31187939453125,-0.0009321055840700865,-0.0011984214652329683,-0.00013315794058144093
