time,seconds_elapsed,z,y,x
1772651394328581600,0.34758154296875,0.01236724853515625,0.011540710926055908,0.0027164816856384277
1772651394348588500,0.367588623046875,0.031524658203125,-0.003046363592147827,0.0050122737884521484
1772651394368595700,0.387595703125,0.026737213134765625,0.0016769468784332275,-0.019460529088974
1772651394388603000,0.407602783203125,0.043793678283691406,-0.003279358148574829,-0.0043322741985321045
1772651394408609800,0.42760986328125,0.02013397216796875,-0.018064290285110474,-0.0016896724700927734
1772651394428617000,0.447616943359375,0.024924278259277344,-0.02556300163269043,-0.006487935781478882
1772651394448624000,0.4676240234375,0.029715538024902344,0.010412037372589111,-0.025598526000976562
1772651394468631300,0.48763134765625,0.039290428161621094,-0.008761733770370483,-0.013414323329925537
1772651394488638200,0.50763818359375,0.041706085205078125,0.0011123120784759521,0.0037785768508911133
1772651394508645400,0.527645263671875,0.015369415283203125,-0.013069838285446167,0.0036589205265045166
1772651394528652500,0.547652587890625,0.03692626953125,-0.001156836748123169,0.0059967041015625
1772651394548659700,0.56765966796875,0.036919593811035156,0.0011756420135498047,-0.010668963193893433
1772651394568666600,0.58766650390625,0.0324249267578125,-0.00597032904624939,-0.0057259202003479
1772651394588673800,0.607673828125,0.012967109680175781,-0.020163238048553467,0.005326330661773682
1772651394608681000,0.627680908203125,0.012372970581054688,-0.00529402494430542,-0.0005108416080474854
1772651394628688000,0.64768798828125,0.014774322509765625,-0.0004126429557800293,0.00421983003616333
1772651394648695000,0.667695068359375,0.03603363037109375,-0.010009080171585083,-0.005371421575546265
1772651394668702200,0.6877021484375,0.02196979522705078,-0.00014188885688781738,-0.005731254816055298
1772651394688709000,0.707709228515625,0.035747528076171875,-0.018906712532043457,0.008707165718078613
1772651394708716300,0.72771630859375,0.023759841918945312,-0.004698812961578369,0.0015848278999328613
1772651394728723500,0.747723388671875,0.03812408447265625,-0.002463787794113159,-0.013312965631484985
1772651394748730600,0.767730712890625,0.011775016784667969,-0.0071010589599609375,-0.008344560861587524
1772651394768737500,0.787737548828125,0.006984710693359375,-0.012055367231369019,0.020148783922195435
1772651394788744700,0.80774462890625,0.026744842529296875,-0.010012209415435791,-0.010122478008270264
1772651394808751900,0.827751953125,0.024954795837402344,-0.019740700721740723,-0.011602818965911865
1772651394828759000,0.847759033203125,0.03693675994873047,0.0068041980266571045,-0.009041666984558105
1772651394848766200,0.86776611328125,0.022562026977539062,-0.0004940629005432129,0.007583200931549072
1772651394868773400,0.8877734375,0.027349472045898438,-0.015276789665222168,0.012331515550613403
1772651394888780500,0.907780517578125,0.01537322998046875,-0.010744810104370117,-0.001984119415283203
1772651394908787700,0.92778759765625,0.0321502685546875,0.011014759540557861,-0.013941049575805664
1772651394928795000,0.947794921875,0.003391265869140625,-0.013205200433731079,-0.013923227787017822
1772651394948801800,0.9678017578125,-0.006173133850097656,-0.00821751356124878,0.0007919669151306152
1772651394968809000,0.98780908203125,0.03216361999511719,-0.01770007610321045,0.0030424296855926514
1772651394988816100,1.007816162109375,0.02467632293701172,-0.003034442663192749,-0.014306426048278809
1772651395008823300,1.0278232421875,0.026762962341308594,-0.0003992617130279541,0.002085953950881958
1772651395028830500,1.04783056640625,0.017181396484375,-0.0052484869956970215,0.006785273551940918
1772651395048837600,1.067837646484375,0.009993553161621094,-0.01727887988090515,-0.0004361271858215332
1772651395068844800,1.0878447265625,0.00041484832763671875,-0.00526013970375061,0.00670313835144043
1772651395088852000,1.10785205078125,0.01239776611328125,0.006761491298675537,-0.01972830295562744
1772651395108859100,1.127859130859375,0.041149139404296875,0.00930437445640564,0.013821512460708618
1772651395128866000,1.147865966796875,0.02918243408203125,-0.004977047443389893,-0.003149688243865967
1772651395148873200,1.167873291015625,0.029180526733398438,-0.007475465536117554,-0.0008336305618286133
1772651395168880400,1.18788037109375,0.012411117553710938,-0.016951441764831543,-0.010183840990066528
1772651395188887600,1.207887451171875,0.03396797180175781,-0.0024341940879821777,-0.021885544061660767
1772651395208894700,1.227894775390625,0.02678680419921875,0.002403825521469116,-0.0004628300666809082
1772651395228902000,1.24790185546875,0.010009765625,0.009476721286773682,-0.012314468622207642
1772651395248909000,1.267908935546875,0.021988868713378906,-0.016832947731018066,-0.007520914077758789
1772651395268915700,1.287915771484375,0.02198314666748047,-0.009701192378997803,-0.01702702045440674
1772651395288922600,1.307922607421875,0.024376869201660156,-0.0000782310962677002,0.009433835744857788
1772651395308929300,1.32792919921875,0.024379730224609375,-0.0023711323738098145,-0.012345641851425171
1772651395328936200,1.347936279296875,0.01720428466796875,-0.00238114595413208,-0.0103016197681427
1772651395348943000,1.367943115234375,0.026767730712890625,-0.014617979526519775,0.0018513798713684082
1772651395368949800,1.38794970703125,0.031563758850097656,0.0021937191486358643,-0.01769399642944336
1772651395388956400,1.407956298828125,0.02227783203125,-0.004996776580810547,-0.017317771911621094
1772651395408963300,1.42796337890625,0.02496623992919922,-0.009895741939544678,-0.009162157773971558
1772651395428970200,1.44797021484375,0.03455066680908203,-0.007350265979766846,-0.006594717502593994
1772651395448977000,1.467976806640625,0.012988090515136719,0.002157360315322876,-0.004254728555679321
1772651395468983800,1.48798388671875,0.02259063720703125,-0.014447301626205444,-0.009431600570678711
1772651395488990500,1.507990478515625,0.03696727752685547,-0.0025292038917541504,-0.0024377107620239258
1772651395508997400,1.527997314453125,0.02978038787841797,-0.007679402828216553,-0.00013658404350280762
1772651395529004000,1.548004150390625,0.024988174438476562,-0.024497896432876587,-0.004964977502822876
1772651395549011000,1.568010986328125,0.013010025024414062,-0.00797542929649353,-0.009624838829040527
1772651395569017600,1.588017578125,0.020196914672851562,0.006386518478393555,-0.004868894815444946
1772651395589024500,1.6080244140625,0.027390480041503906,-0.017113476991653442,0.002328813076019287
1772651395609031200,1.62803125,0.008234977722167969,-0.0047407448291778564,-0.00016131997108459473
1772651395629038000,1.6480380859375,0.02500438690185547,-0.016662001609802246,-0.002535611391067505
1772651395649045000,1.668044921875,0.02500438690185547,-0.002391725778579712,-0.00750395655632019
1772651395669051600,1.6880517578125,0.008240699768066406,-0.011813044548034668,-0.004979521036148071
1772651395689058600,1.70805859375,0.036980628967285156,-0.0047349631786346436,-0.00017091631889343262
1772651395709065200,1.728065185546875,0.027395248413085938,-0.01660025119781494,-0.01669660210609436
1772651395729072000,1.748072021484375,0.013017654418945312,-0.009525775909423828,-0.014285892248153687
1772651395749078800,1.768078857421875,0.032179832458496094,-0.002342700958251953,-0.014257937669754028
1772651395769086000,1.7880859375,-0.0061435699462890625,-0.002405822277069092,-0.009715408086776733
1772651395789093000,1.808093017578125,0.0034236907958984375,-0.004753679037094116,-0.02114427089691162
1772651395809100500,1.8281005859375,0.020204544067382812,-0.01168021559715271,-0.023563355207443237
1772651395829107700,1.848107666015625,0.010616302490234375,0.00019344687461853027,0.0004703700542449951
1772651395849115000,1.868114990234375,0.02737712860107422,-0.007200390100479126,0.007570415735244751
1772651395869122000,1.8881220703125,0.015402793884277344,-0.01902100443840027,-0.021048307418823242
1772651395889129200,1.908129150390625,0.012999534606933594,0.002428293228149414,-0.004205524921417236
1772651395909136400,1.928136474609375,0.03456306457519531,0.004920244216918945,-0.0041828155517578125
1772651395929143600,1.9481435546875,0.04893684387207031,-0.014137566089630127,-0.0016639530658721924
1772651395949151000,1.96815087890625,0.008213043212890625,-0.011735349893569946,-0.01360812783241272
1772651395969158100,1.988158203125,0.00103759765625,-0.018853068351745605,-0.004252433776855469
1772651395989165300,2.008165283203125,0.015419960021972656,-0.0044363439083099365,0.007521092891693115
1772651396009172500,2.02817236328125,0.02019977569580078,-0.01172742247581482,0.0002066493034362793
1772651396029179600,2.0481796875,0.008213996887207031,0.007316172122955322,-0.014394223690032959
1772651396049186800,2.068186767578125,0.015390396118164062,-0.023926258087158203,-0.011826813220977783
1772651396069194000,2.088194091796875,0.029173851013183594,0.009649515151977539,-0.0024865269660949707
1772651396089201200,2.108201171875,0.021984100341796875,-0.01908785104751587,-0.007200390100479126
1772651396109208600,2.12820849609375,0.036355018615722656,-0.0023751556873321533,-0.00478130578994751
1772651396129215700,2.1482158203125,0.021979331970214844,-0.00015079975128173828,-0.016950517892837524
1772651396149223000,2.168222900390625,0.031554222106933594,-0.007184058427810669,-0.006931036710739136
1772651396169230000,2.18822998046875,0.024356842041015625,-0.028985053300857544,0.00022813677787780762
1772651396189237200,2.2082373046875,0.03423595428466797,-0.00513768196105957,0.0028865933418273926
1772651396209244400,2.228244384765625,0.024946212768554688,-0.0076760053634643555,-0.01839888095855713
1772651396229251800,2.248251953125,0.027334213256835938,-0.017313390970230103,-0.011070340871810913
1772651396249259000,2.268259033203125,0.0225372314453125,-0.008189409971237183,-0.008705437183380127
1772651396269265400,2.288265380859375,0.005774497985839844,-0.010835021734237671,0.0007812976837158203
1772651396289271800,2.308271728515625,0.027338027954101562,-0.017908364534378052,-0.01595476269721985
1772651396309278200,2.3282783203125,0.03212928771972656,-0.008224189281463623,-0.0062483251094818115
1772651396329284600,2.34828466796875,0.012969970703125,-0.008124738931655884,-0.022988945245742798
1772651396349291000,2.368291015625,0.005774497985839844,-0.013014018535614014,-0.006091803312301636
1772651396369297400,2.38829736328125,0.0297393798828125,0.003795027732849121,-0.006332516670227051
1772651396389303800,2.4083037109375,0.029433250427246094,-0.008091866970062256,-0.01633957028388977
1772651396409310200,2.428310302734375,0.014760017395019531,0.0018952786922454834,-0.0020779073238372803
1772651396429316600,2.448316650390625,0.033919334411621094,-0.01975792646408081,-0.006846755743026733
1772651396449323000,2.468322998046875,0.017142295837402344,-0.019847571849822998,-0.01628980040550232
1772651396469329400,2.488329345703125,-0.0020170211791992188,-0.01489207148551941,-0.018601983785629272
1772651396489336000,2.508336181640625,-0.004408836364746094,0.004272580146789551,-0.006747454404830933
1772651396509342500,2.528342529296875,0.0051727294921875,0.016329169273376465,0.007781386375427246
1772651396529348900,2.548348876953125,0.014757156372070312,-0.014853298664093018,-0.03609299659729004
1772651396549355300,2.568355224609375,0.014758110046386719,-0.0028766393661499023,-0.014554828405380249
1772651396569361700,2.588361572265625,-0.011588096618652344,-0.00038185715675354004,-0.014581471681594849
1772651396589368000,2.6083681640625,0.03393077850341797,0.009293943643569946,-0.01903480291366577
1772651396609374500,2.62837451171875,0.02495574951171875,-0.021630048751831055,-0.0013057291507720947
1772651396629380900,2.648380859375,0.034229278564453125,-0.01922154426574707,-0.012991547584533691
1772651396649387300,2.66838720703125,0.020148277282714844,-0.0049505531787872314,-0.005726516246795654
1772651396669393700,2.6883935546875,0.012971878051757812,-0.0025022923946380615,0.006057858467102051
1772651396689400000,2.708400146484375,0.008182525634765625,-0.0024542510509490967,-0.0011141598224639893
1772651396709406500,2.728406494140625,0.017769813537597656,-0.023952960968017578,-0.017966538667678833
1772651396729412900,2.748412841796875,0.03931999206542969,-0.007397651672363281,-0.017992675304412842
1772651396749419500,2.76841943359375,0.020160675048828125,-0.0028480589389801025,-0.001298755407333374
1772651396769425400,2.78842529296875,0.0201416015625,0.003819793462753296,-0.010595977306365967
1772651396789431300,2.808431396484375,0.036614418029785156,-0.0174313485622406,-0.015813618898391724
1772651396809437200,2.828437255859375,0.02014446258544922,-0.012384891510009766,-0.013737887144088745
1772651396829443000,2.848443115234375,0.033931732177734375,-0.002604365348815918,-0.001557081937789917
1772651396849449000,2.868448974609375,0.038725852966308594,-0.002760976552963257,-0.006984233856201172
1772651396869455000,2.888455078125,0.024641036987304688,-0.005321681499481201,-0.014100641012191772
1772651396889461000,2.9084609375,0.012968063354492188,-0.01494455337524414,-0.026242375373840332
1772651396909467000,2.928466796875,0.01535797119140625,-0.00541272759437561,0.007657051086425781
1772651396929472800,2.94847265625,0.017449378967285156,0.0017634034156799316,-0.011678934097290039
1772651396949479000,2.96847900390625,0.012668609619140625,-0.021915137767791748,-0.006763190031051636
1772651396969484800,2.98848486328125,0.010268211364746094,-0.005148142576217651,-0.009031623601913452
1772651396989490700,3.00849072265625,0.031528472900390625,-0.017062127590179443,-0.01403886079788208
1772651397009496600,3.02849658203125,0.03631877899169922,0.009323060512542725,0.005186289548873901
1772651397029502500,3.04850244140625,0.019548416137695312,0.0020804107189178467,-0.0047210752964019775
1772651397049508600,3.068508544921875,0.03151130676269531,-0.010205388069152832,-0.0023064017295837402
1772651397069514500,3.088514404296875,0.014737129211425781,-0.003125101327896118,-0.011859625577926636
1772651397089520400,3.108520263671875,0.03869056701660156,-0.017487555742263794,0.0025772154331207275
1772651397109526300,3.1285263671875,0.050065040588378906,-0.005507856607437134,0.005041986703872681
1772651397129532400,3.148532470703125,-0.0020303726196289062,-0.012038052082061768,-0.004628568887710571
1772651397149538300,3.168538330078125,0.0027561187744140625,-0.014425963163375854,-0.009242236614227295
1772651397169544200,3.188544189453125,0.021325111389160156,-0.014471471309661865,-0.016660183668136597
1772651397189550000,3.208550048828125,0.028822898864746094,-0.007427334785461426,-0.011699408292770386
1772651397209556000,3.228555908203125,0.012358665466308594,-0.007669597864151001,-0.011421054601669312
1772651397229562000,3.24856201171875,0.009966850280761719,-0.002886950969696045,-0.006773114204406738
1772651397249568000,3.268568115234375,0.01714801788330078,-0.012507349252700806,-0.025832384824752808
1772651397269574400,3.288574462890625,0.03630828857421875,0.00893479585647583,-0.011529207229614258
1772651397289580800,3.308580810546875,0.017148971557617188,-0.015058755874633789,-0.002134770154953003
1772651397309587200,3.328587158203125,0.0027780532836914062,-0.005369246006011963,-0.011633217334747314
1772651397329593600,3.348593505859375,0.012361526489257812,-0.012652397155761719,-0.011814892292022705
1772651397349600000,3.36860009765625,0.01953887939453125,-0.008014172315597534,-0.018963396549224854
1772651397369606400,3.3886064453125,0.026724815368652344,-0.00800749659538269,0.000221937894821167
1772651397389612800,3.40861279296875,0.021924972534179688,-0.02246260643005371,-0.009173929691314697
1772651397409619200,3.428619140625,0.019537925720214844,-0.00558549165725708,-0.01886916160583496
1772651397429625600,3.44862548828125,0.02432537078857422,-0.01036497950553894,-0.006755530834197998
1772651397449632000,3.468632080078125,-0.004132270812988281,-0.017585307359695435,-0.004076361656188965
1772651397469638400,3.488638427734375,0.017119407653808594,-0.015225976705551147,-0.0014491081237792969
1772651397489644800,3.508644775390625,0.021904945373535156,0.0014307796955108643,-0.015838921070098877
1772651397509651000,3.52865087890625,0.01711559295654297,-0.015218794345855713,-0.0037338733673095703
1772651397529657300,3.5486572265625,0.02429676055908203,0.003985106945037842,-0.015522003173828125
1772651397549664000,3.5686640625,0.019506454467773438,-0.010126888751983643,0.004008859395980835
1772651397569670400,3.58867041015625,0.02669525146484375,-0.0029914677143096924,-0.005701005458831787
1772651397589676800,3.6086767578125,0.017113685607910156,0.00429224967956543,-0.005568563938140869
1772651397609683000,3.628682861328125,0.014727592468261719,-0.014648586511611938,-0.007935523986816406
1772651397629689300,3.648689453125,0.021913528442382812,-0.017026901245117188,-0.015084445476531982
1772651397649695700,3.66869580078125,0.017114639282226562,-0.021846681833267212,-0.007660895586013794
1772651397669702100,3.6887021484375,0.014711380004882812,0.009027332067489624,-0.002991586923599243
1772651397689708500,3.70870849609375,0.0027313232421875,-0.0028499960899353027,-0.007605642080307007
1772651397709715000,3.72871484375,0.0027132034301757812,0.01368802785873413,0.009375423192977905
1772651397729721300,3.748721435546875,0.0030202865600585938,-0.014831364154815674,-0.007258594036102295
1772651397749727700,3.768727783203125,0.0027246475219726562,-0.01252371072769165,-0.021893441677093506
1772651397769734400,3.788734375,0.02428722381591797,0.001839280128479004,-0.010045617818832397
1772651397789740800,3.80874072265625,0.007523536682128906,-0.01247522234916687,-0.010076254606246948
1772651397809747500,3.82874755859375,0.033885955810546875,0.014054298400878906,-0.0006404519081115723
1772651397829754000,3.848754150390625,0.012323379516601562,-0.00020891427993774414,-0.009917587041854858
1772651397849760500,3.868760498046875,0.01950359344482422,0.004568874835968018,-0.012477874755859375
1772651397869767200,3.88876708984375,0.029081344604492188,0.009235769510269165,-0.0026309192180633545
1772651397889773600,3.908773681640625,0.029076576232910156,-0.014808446168899536,0.004569023847579956
1772651397909780200,3.9287802734375,0.007540702819824219,-0.004862993955612183,0.001674264669418335
1772651397929786600,3.94878662109375,0.012331962585449219,-0.005016237497329712,-0.003653585910797119
1772651397949793300,3.968793212890625,0.0075511932373046875,-0.019159644842147827,-0.0009413063526153564
1772651397969800000,3.988800048828125,0.0057525634765625,-0.004781633615493774,-0.0125294029712677
1772651397989806300,4.008806396484375,0.015329360961914062,-0.0096779465675354,-0.010142087936401367
1772651398009813000,4.02881298828125,0.0222015380859375,0.0021899044513702393,-0.009872615337371826
1772651398029819400,4.0488193359375,0.038659095764160156,-0.002703547477722168,-0.007233768701553345
1772651398049826000,4.068825927734375,0.03655719757080078,-0.009886443614959717,-0.014232069253921509
1772651398069832400,4.08883251953125,0.0009136199951171875,0.002023369073867798,-0.011309564113616943
1772651398089839000,4.108839111328125,0.022462844848632812,-0.012494683265686035,0.003426969051361084
1772651398109845800,4.128845703125,0.0056896209716796875,-0.01975962519645691,-0.0012890994548797607
1772651398129852200,4.14885205078125,0.012875556945800781,-0.00543484091758728,-0.01094144582748413
1772651398149858800,4.16885888671875,0.010486602783203125,0.0017929375171661377,-0.0015028417110443115
1772651398169865200,4.188865234375,0.014675140380859375,0.0016871392726898193,0.002642333507537842
1772651398189871900,4.208871826171875,0.029044151306152344,-0.005492150783538818,-0.004388988018035889
1772651398209878500,4.22887841796875,0.03173255920410156,-0.01754993200302124,-0.006730318069458008
1772651398229885000,4.248885009765625,0.029038429260253906,-0.003218621015548706,-0.01639103889465332
1772651398249891600,4.2688916015625,0.036224365234375,-0.012833833694458008,0.0003719031810760498
1772651398269898200,4.288898193359375,0.010163307189941406,0.003774791955947876,-0.009150773286819458
1772651398289905200,4.3089052734375,0.033824920654296875,-0.017657369375228882,-0.004363447427749634
1772651398309912000,4.328912109375,0.014657020568847656,-0.013000547885894775,-0.006804555654525757
1772651398329918700,4.348918701171875,0.02663421630859375,-0.001072615385055542,-0.004512190818786621
1772651398349925600,4.368925537109375,0.029044151306152344,-0.012920856475830078,0.002412170171737671
1772651398369932500,4.3889326171875,0.012279510498046875,0.008626401424407959,0.002295970916748047
1772651398389939500,4.408939453125,0.03384971618652344,-0.012965410947799683,0.009098947048187256
1772651398409946000,4.428946044921875,0.02665996551513672,-0.010657578706741333,-0.005323529243469238
1772651398429953000,4.448953125,0.01947498321533203,0.0013212859630584717,-0.0077628493309021
1772651398449960000,4.4689599609375,0.012291908264160156,-0.01546567678451538,-0.003065347671508789
1772651398469966800,4.488966796875,0.00750732421875,0.0015116631984710693,0.004213094711303711
1772651398489973500,4.508973388671875,0.033855438232421875,-0.005665630102157593,-0.0172731876373291
1772651398509980400,4.52898046875,0.043425559997558594,-0.010541915893554688,-0.017038434743881226
1772651398529987300,4.5489873046875,0.029068946838378906,-0.0009577274322509766,-0.0031875967979431152
1772651398549994000,4.568993896484375,0.024274826049804688,-0.012971311807632446,-0.015102773904800415
1772651398570001000,4.5890009765625,0.012284278869628906,-0.006089985370635986,-0.006121277809143066
1772651398590007800,4.6090078125,0.026659011840820312,-0.0035819709300994873,-0.02519741654396057
1772651398610014700,4.6290146484375,-0.006869316101074219,-0.008353233337402344,-0.013462245464324951
1772651398630021400,4.649021484375,0.007506370544433594,-0.008332908153533936,-0.0015332996845245361
1772651398650028300,4.6690283203125,-0.006861686706542969,-0.00786137580871582,-0.015836328268051147
1772651398670035200,4.68903515625,0.02397441864013672,-0.0028645992279052734,-0.010974198579788208
1772651398690041900,4.709041748046875,-0.016449928283691406,-0.017201483249664307,-0.006121337413787842
1772651398710048800,4.729048828125,0.04283714294433594,0.011469066143035889,-0.006175726652145386
1772651398730055700,4.7490556640625,0.023677825927734375,-0.005289644002914429,-0.013801932334899902
1772651398750062600,4.7690625,0.01171112060546875,-0.01245272159576416,-0.002137690782546997
1772651398770069800,4.78906982421875,0.031459808349609375,-0.010847270488739014,-0.008261114358901978
1772651398790077000,4.809076904296875,0.0176849365234375,-0.022835731506347656,-0.008248746395111084
1772651398810084400,4.82908447265625,0.003307342529296875,-0.006107151508331299,-0.008137822151184082
1772651398830091500,4.849091552734375,0.019783973693847656,-0.00832626223564148,0.004433333873748779
1772651398850098700,4.8690986328125,0.012896537780761719,0.010766983032226562,-0.005255460739135742
1772651398870105900,4.88910595703125,0.010510444641113281,-0.003438413143157959,0.004318654537200928
1772651398890113300,4.90911328125,0.022498130798339844,-0.0008835494518280029,0.006593853235244751
1772651398910120400,4.929120361328125,0.027280807495117188,-0.012892931699752808,-0.009957313537597656
1772651398930127600,4.949127685546875,0.044055938720703125,-0.015410274267196655,-0.007506698369979858
1772651398950135000,4.969135009765625,0.029679298400878906,0.0011585652828216553,-0.0072440505027771
1772651398970142200,4.98914208984375,0.02429962158203125,-0.019662588834762573,-0.0007623434066772461
1772651398990149400,5.0091494140625,0.019510269165039062,-0.012447595596313477,0.003727555274963379
1772651399010156800,5.02915673828125,0.0051364898681640625,-0.010081857442855835,-0.0037534236907958984
1772651399030164000,5.0491640625,0.00034809112548828125,-0.0004355013370513916,0.0034332275390625
1772651399050171100,5.069171142578125,0.012327194213867188,-0.014881134033203125,0.008056014776229858
1772651399070178300,5.08917822265625,0.021905899047851562,-0.017246782779693604,-0.0013724267482757568
1772651399090185700,5.109185791015625,0.0027313232421875,-0.002972215414047241,0.003612428903579712
1772651399110193000,5.12919287109375,0.02909374237060547,-0.007599860429763794,-0.008522242307662964
1772651399130200000,5.149199951171875,0.01921844482421875,-0.011506766080856323,-0.013083159923553467
1772651399150207500,5.16920751953125,0.02400684356689453,-0.01377210021018982,-0.012803524732589722
1772651399170214700,5.189214599609375,0.026696205139160156,0.009410738945007324,-0.005420506000518799
1772651399190221800,5.209221923828125,0.02430248260498047,-0.007445007562637329,-0.00048598647117614746
1772651399210229000,5.22922900390625,0.031495094299316406,-0.00009953975677490234,-0.01304250955581665
1772651399230236400,5.249236328125,0.029104232788085938,-0.007168978452682495,-0.005500048398971558
1772651399250243600,5.26924365234375,0.026711463928222656,-0.0022672712802886963,-0.010223954916000366
1772651399270249700,5.289249755859375,0.03389739990234375,-0.0022581517696380615,-0.010502606630325317
1772651399290256100,5.309256103515625,0.017127037048339844,0.0025352537631988525,0.009350359439849854
1772651399310262300,5.32926220703125,0.02431488037109375,0.009707778692245483,-0.0054197609424591064
1772651399330268700,5.3492685546875,0.009942054748535156,0.004907369613647461,-0.01528581976890564
1772651399350275000,5.369275146484375,0.012338638305664062,-0.004713296890258789,0.0017260909080505371
1772651399370281200,5.38928125,0.005444526672363281,-0.009584516286849976,-0.0003159940242767334
1772651399390287600,5.40928759765625,0.024300575256347656,-0.007331877946853638,0.0021229088306427
1772651399410293800,5.429293701171875,0.03148841857910156,-0.004927515983581543,0.009288519620895386
1772651399430300200,5.449300048828125,0.021917343139648438,-0.012147128582000732,-0.007893651723861694
1772651399450306300,5.469306396484375,0.005436897277832031,0.0021219253540039062,0.009115904569625854
1772651399470312700,5.489312744140625,0.01980876922607422,-0.00042450428009033203,-0.0030653178691864014
1772651399490318800,5.50931884765625,0.019817352294921875,-0.021885156631469727,-0.01277664303779602
1772651399510325200,5.5293251953125,0.012953758239746094,-0.007283627986907959,-0.008334606885910034
1772651399530331400,5.549331298828125,0.029117584228515625,0.004585325717926025,-0.0059806108474731445
1772651399550337800,5.569337890625,0.008151054382324219,-0.00019949674606323242,-0.012936443090438843
1772651399570344200,5.58934423828125,0.01682758331298828,-0.0044862329959869385,-0.011073559522628784
1772651399590350300,5.609350341796875,0.026409149169921875,-0.004475772380828857,-0.003882676362991333
1772651399610356700,5.629356689453125,0.018929481506347656,-0.013975799083709717,-0.008710622787475586
1772651399630363000,5.64936279296875,-0.01399993896484375,0.005282014608383179,0.0007507205009460449
1772651399650369300,5.669369384765625,0.016547203063964844,0.010159134864807129,0.0004424452781677246
1772651399670375400,5.68937548828125,0.030902862548828125,-0.00920155644416809,-0.00439116358757019
1772651399690381800,5.7093818359375,0.01653003692626953,-0.006842613220214844,-0.009272724390029907
1772651399710388000,5.729387939453125,0.023726463317871094,0.002839505672454834,0.0025384128093719482
1772651399730394400,5.749394287109375,0.009363174438476562,-0.013950109481811523,-0.00017082691192626953
1772651399750400500,5.769400390625,0.023744583129882812,0.00770220160484314,-0.012284994125366211
1772651399770406700,5.78940673828125,0.031525611877441406,0.0023606419563293457,-0.01385226845741272
1772651399790412500,5.80941259765625,0.024339675903320312,-0.007269322872161865,0.0003955364227294922
1772651399810418700,5.829418701171875,0.0027933120727539062,-0.028615087270736694,0.005121171474456787
1772651399830424600,5.849424560546875,0.017164230346679688,0.009593814611434937,-0.018958330154418945
1772651399850430500,5.869430419921875,0.01955890655517578,-0.007208764553070068,-0.00462949275970459
1772651399870436600,5.8894365234375,0.02436351776123047,-0.0070400238037109375,-0.004784584045410156
1772651399890442500,5.9094423828125,0.002803802490234375,-0.006970405578613281,-0.014239519834518433
1772651399910448400,5.929448486328125,0.03634452819824219,-0.013976126909255981,-0.004499524831771851
1772651399930454500,5.94945458984375,0.017165184020996094,-0.014162629842758179,-0.00431177020072937
1772651399950460400,5.96946044921875,0.009954452514648438,-0.0001093149185180664,-0.006416678428649902
1772651399970466600,5.989466552734375,0.009951591491699219,0.007612854242324829,-0.008815228939056396
1772651399990472400,6.009472412109375,0.014748573303222656,-0.011526346206665039,-0.011365234851837158
1772651400010478600,6.029478515625,0.005167961120605469,-0.0067157745361328125,-0.016192764043807983
1772651400030484500,6.049484375,0.007569313049316406,-0.001761317253112793,-0.016129791736602783
1772651400050490400,6.069490478515625,0.005179405212402344,0.0030193328857421875,-0.011505931615829468
1772651400070496500,6.08949658203125,0.014463424682617188,-0.011441737413406372,0.005116671323776245
1772651400090502400,6.10950244140625,0.012065887451171875,-0.009032905101776123,-0.016388624906539917
1772651400110508500,6.129508544921875,0.028533935546875,-0.0018446743488311768,-0.009208142757415771
1772651400130514400,6.149514404296875,0.0120697021484375,0.0029958784580230713,0.012308239936828613
1772651400150520600,6.1695205078125,0.009668350219726562,0.00543135404586792,-0.001827329397201538
1772651400170526500,6.1895263671875,0.026737213134765625,-0.01675701141357422,0.008249610662460327
1772651400190532400,6.209532470703125,0.033924102783203125,-0.009604871273040771,-0.018138617277145386
1772651400210538500,6.22953857421875,0.009967803955078125,0.00236627459526062,-0.006124258041381836
1772651400230544400,6.24954443359375,0.017148971557617188,-0.01209181547164917,0.01548054814338684
1772651400250550500,6.269550537109375,0.036309242248535156,0.009490519762039185,-0.005946069955825806
1772651400270556400,6.289556396484375,0.0003757476806640625,-0.002437680959701538,0.008529335260391235
1772651400290562300,6.309562255859375,0.019542694091796875,-0.0071652233600616455,0.0037568509578704834
1772651400310568200,6.329568115234375,0.021935462951660156,0.016812950372695923,0.0038373172283172607
1772651400330574000,6.349573974609375,0.036296844482421875,-0.009575188159942627,-0.0030032694339752197
1772651400350580000,6.369580078125,0.053071022033691406,-0.0022284984588623047,-0.014968425035476685
1772651400370585900,6.3895859375,0.026716232299804688,0.004948228597640991,-0.005838304758071899
1772651400390591700,6.409591796875,0.0171356201171875,-0.0021353960037231445,-0.022489696741104126
1772651400410597600,6.42959765625,0.009940147399902344,0.004935264587402344,-0.012805193662643433
1772651400430603500,6.449603515625,0.02431488037109375,-0.00936862826347351,-0.0031884312629699707
1772651400450609400,6.469609375,0.019525527954101562,-0.006963759660720825,-0.01038309931755066
1772651400470615300,6.489615234375,0.019519805908203125,-0.004662752151489258,-0.01038399338722229
1772651400490621400,6.509621337890625,0.019516944885253906,0.00236472487449646,-0.0033142268657684326
1772651400510627300,6.52962744140625,0.038689613342285156,0.007246285676956177,0.0037426352500915527
1772651400530633200,6.54963330078125,0.019524574279785156,-0.011894911527633667,-0.02253440022468567
1772651400550639000,6.56963916015625,0.01952075958251953,-0.019148647785186768,-0.008169114589691162
1772651400570645000,6.58964501953125,0.02430438995361328,-0.0024813413619995117,0.003881514072418213
1772651400590651000,6.60965087890625,0.007534980773925781,-0.00012755393981933594,0.011088043451309204
1772651400610656800,6.62965673828125,0.012337684631347656,0.009638339281082153,-0.0034141838550567627
1772651400630662700,6.64966259765625,0.029102325439453125,-0.01673254370689392,0.0014549791812896729
1772651400650668500,6.66966845703125,0.03868389129638672,-0.009738117456436157,-0.003560185432434082
1772651400670674400,6.68967431640625,0.0075435638427734375,-0.012110650539398193,-0.00597071647644043
1772651400690680300,6.709680419921875,0.021915435791015625,-0.019358515739440918,-0.0012978017330169678
1772651400710686200,6.729686279296875,0.021932601928710938,-0.011996060609817505,0.005639940500259399
1772651400730692000,6.749692138671875,0.005162239074707031,-0.0023586153984069824,-0.01575806736946106
1772651400750698200,6.7696982421875,0.029134750366210938,-0.009324371814727783,-0.015965014696121216
1772651400770705700,6.78970556640625,0.021947860717773438,-0.018582195043563843,0.0056462883949279785
1772651400790713300,6.80971337890625,0.038425445556640625,-0.02536320686340332,-0.006437540054321289
1772651400810721000,6.829720947265625,-0.004395484924316406,-0.01570075750350952,-0.01108202338218689
1772651400830728400,6.849728515625,0.02195453643798828,0.013171374797821045,-0.010877102613449097
1772651400850736000,6.869736083984375,0.02882862091064453,-0.0013555586338043213,-0.010719239711761475
1772651400870743600,6.88974365234375,0.016845703125,-0.0014593899250030518,-0.003500044345855713
1772651400890751200,6.909751220703125,0.02613544464111328,0.003373473882675171,-0.008456021547317505
1772651400910759000,6.929759033203125,0.023736000061035156,0.0008702576160430908,-0.008514076471328735
1772651400930766300,6.949766357421875,0.009676933288574219,-0.013211190700531006,-0.013297021389007568
1772651400950774000,6.96977392578125,0.019263267517089844,-0.01563084125518799,-0.008725553750991821
1772651400970781700,6.98978173828125,0.011785507202148438,-0.006031692028045654,-0.0065420567989349365
1772651400990789000,7.0097890625,0.02854442596435547,-0.0013510584831237793,-0.01417452096939087
1772651401010796800,7.029796875,-0.004979133605957031,0.00598415732383728,-0.009293973445892334
1772651401030804200,7.04980419921875,0.03335857391357422,-0.0035439133644104004,-0.014590531587600708
1772651401050812000,7.06981201171875,0.03096771240234375,-0.0035320520401000977,0.007434666156768799
1772651401070819300,7.0898193359375,0.028570175170898438,-0.010704904794692993,-0.009840726852416992
1772651401090827000,7.109826904296875,-0.004979133605957031,-0.001169830560684204,0.012334376573562622
1772651401110834700,7.129834716796875,0.009692192077636719,0.0011725127696990967,-0.011968821287155151
1772651401130842000,7.149842041015625,0.016571998596191406,0.0059500932693481445,0.007416278123855591
1772651401150849800,7.169849853515625,0.016571998596191406,-0.006017148494720459,0.014597713947296143
1772651401170857500,7.189857421875,0.01955699920654297,0.005296796560287476,-0.013336002826690674
1772651401190865000,7.209864990234375,0.019553184509277344,0.019785076379776,-0.008287936449050903
1772651401210872600,7.22987255859375,0.041115760803222656,-0.013726115226745605,-0.010735154151916504
1772651401230880000,7.2498798828125,0.0027818679809570312,-0.01130262017250061,0.0014800727367401123
1772651401250887700,7.2698876953125,0.01715087890625,-0.011437475681304932,0.0037889182567596436
1772651401270895000,7.28989501953125,0.026735305786132812,0.0005855560302734375,-0.027374446392059326
1772651401290902800,7.30990283203125,0.03391742706298828,0.005369275808334351,-0.005659371614456177
1772651401310910200,7.32991015625,0.038689613342285156,0.002749502658843994,-0.014980942010879517
1772651401330918000,7.34991796875,0.021921157836914062,0.0027909278869628906,-0.012535005807876587
1772651401350925300,7.36992529296875,0.026714324951171875,-0.018678128719329834,-0.005308181047439575
1772651401370932700,7.3899326171875,0.026129722595214844,-0.003491997718811035,-0.012595266103744507
1772651401390940400,7.4099404296875,0.0285186767578125,0.003576934337615967,0.0065784454345703125
1772651401410947800,7.42994775390625,0.016832351684570312,-0.008433759212493896,-0.009981155395507812
1772651401430955300,7.449955322265625,0.026419639587402344,-0.017723441123962402,-0.009729862213134766
1772651401450963000,7.469962890625,0.00995635986328125,0.0013815760612487793,-0.0027756094932556152
1772651401470970400,7.489970458984375,0.024030685424804688,0.01811090111732483,-0.007675439119338989
1772651401490978000,7.50997802734375,0.009682655334472656,-0.015187621116638184,0.0015084445476531982
1772651401510985500,7.5299853515625,0.02135753631591797,-0.007933229207992554,-0.010313570499420166
1772651401530993000,7.549992919921875,0.02376270294189453,-0.012646228075027466,-0.02003195881843567
1772651401551000600,7.57000048828125,0.02616405487060547,0.006605714559555054,-0.0009415745735168457
1772651401571008000,7.590008056640625,0.03365516662597656,0.003894716501235962,-0.010687053203582764
1772651401591015400,7.610015380859375,0.002811431884765625,0.003482133150100708,0.0011559724807739258
1772651401611023000,7.630023193359375,0.02167224884033203,-0.015103459358215332,0.0036243796348571777
1772651401631030500,7.650030517578125,0.02885723114013672,-0.012684077024459839,-0.022649705410003662
1772651401651038200,7.6700380859375,0.012383460998535156,0.010700106620788574,-0.00802263617515564
1772651401671045600,7.690045654296875,0.03603649139404297,-0.01765260100364685,0.004140794277191162
1772651401691053300,7.71005322265625,0.009993553161621094,-0.0010793507099151611,-0.01273074746131897
1772651401711060700,7.730060791015625,0.009992599487304688,-0.0010792911052703857,-0.012677282094955444
1772651401731068200,7.750068115234375,0.01717662811279297,0.005993276834487915,0.0015714764595031738
1772651401751075600,7.77007568359375,0.017167091369628906,0.010597854852676392,-0.003191530704498291
1772651401771082200,7.790082275390625,0.01955890655517578,-0.01767486333847046,0.0039007365703582764
1772651401791089000,7.8100888671875,0.02643585205078125,0.005511671304702759,-0.0031948983669281006
1772651401811095600,7.830095458984375,-0.016396522521972656,0.010182827711105347,-0.010168671607971191
1772651401831102000,7.85010205078125,0.03840827941894531,-0.02011162042617798,-0.007624447345733643
1772651401851108600,7.870108642578125,0.03810596466064453,0.008319467306137085,-0.007567673921585083
1772651401871115300,7.890115234375,0.012060165405273438,-0.010520786046981812,0.006664454936981201
1772651401891121700,7.91012158203125,0.021942138671875,-0.001237630844116211,-0.0053243935108184814
1772651401911128300,7.93012841796875,0.019545555114746094,0.0035370588302612305,-0.002903759479522705
1772651401931135000,7.950135009765625,0.014752388000488281,0.0034759342670440674,0.001859217882156372
1772651401951141600,7.9701416015625,0.05007648468017578,0.0009708702564239502,-0.014790624380111694
1772651401971148300,7.990148193359375,0.043488502502441406,-0.018505901098251343,-0.00760650634765625
1772651401991154700,8.01015478515625,0.012332916259765625,-0.013891875743865967,-0.007402688264846802
1772651402011161300,8.030161376953124,0.009951591491699219,0.003129720687866211,0.002396881580352783
1772651402031168000,8.05016796875,0.029128074645996094,-0.003890782594680786,-0.005251646041870117
1772651402051174700,8.070174560546874,0.03871726989746094,0.0009901821613311768,0.009663760662078857
1772651402071181000,8.09018115234375,0.029140472412109375,-0.001248776912689209,-0.007358133792877197
1772651402091187700,8.110187744140624,0.014768600463867188,0.020312458276748657,-0.012150555849075317
1772651402111194400,8.1301943359375,0.03872108459472656,-0.01574954390525818,-0.0023977458477020264
1772651402131201000,8.150200927734375,0.033935546875,-0.005999118089675903,-0.016999363899230957
1772651402151207400,8.17020751953125,0.021956443786621094,0.0012902319431304932,0.00987061858177185
1772651402171214000,8.190214111328125,0.02194976806640625,0.015518158674240112,-0.004819214344024658
1772651402191220700,8.210220703125,0.036309242248535156,0.01053968071937561,0.0027896463871002197
1772651402211227400,8.230227294921875,0.02670574188232422,-0.006378233432769775,0.0008314549922943115
1772651402231234000,8.250234130859376,0.02190876007080078,-0.010892093181610107,-0.0036576688289642334
1772651402251240400,8.270240478515625,0.024316787719726562,0.00123518705368042,-0.025692224502563477
1772651402271246800,8.290246826171876,0.014752388000488281,-0.010567694902420044,-0.008597612380981445
1772651402291253200,8.310253173828125,0.031556129455566406,0.004156172275543213,0.012386441230773926
1772651402311259600,8.330259765625,0.02678680419921875,-0.007547318935394287,0.01451459527015686
