time,seconds_elapsed,z,y,x
1772651394176026600,0.195026611328125,0.003728422336280346,-0.00026631588116288185,0.0023968429304659367
1772651394196033800,0.21503369140625,-0.0005326317623257637,-0.0013315794058144093,-0.0007989476434886456
1772651394206037200,0.225037353515625,0.0005326317623257637,-0.0013315794058144093,0.0013315794058144093
1772651394216040700,0.235040771484375,-0.0010652635246515274,-0.00026631588116288185,-0.0013315794058144093
1772651394226044400,0.24504443359375,0,0.00026631588116288185,-0.00026631588116288185
1772651394236048000,0.2550478515625,-0.001597895286977291,0.0007989476434886456,-0.00026631588116288185
1772651394246051300,0.26505126953125,-0.001597895286977291,0.00026631588116288185,-0.00026631588116288185
1772651394256055000,0.275054931640625,0,0.0013315794058144093,-0.00026631588116288185
1772651394266058500,0.28505859375,-0.0005326317623257637,-0.00026631588116288185,-0.0013315794058144093
1772651394276062000,0.29506201171875,0.0010652635246515274,-0.00026631588116288185,-0.0007989476434886456
1772651394286065700,0.305065673828125,-0.0005326317623257637,0.0007989476434886456,-0.00026631588116288185
1772651394296069000,0.315069091796875,0,0.0007989476434886456,0.0007989476434886456
1772651394306072600,0.325072509765625,-0.0010652635246515274,-0.0013315794058144093,-0.0007989476434886456
1772651394316076300,0.335076171875,0,-0.0013315794058144093,-0.0007989476434886456
1772651394326079700,0.345079833984375,0,-0.0007989476434886456,-0.0007989476434886456
1772651394336083500,0.35508349609375,0.0010652635246515274,-0.00026631588116288185,0.0013315794058144093
1772651394346087000,0.3650869140625,0.0010652635246515274,-0.0013315794058144093,0.0007989476434886456
1772651394356090400,0.37509033203125,0,-0.00026631588116288185,0.0007989476434886456
1772651394366094000,0.385093994140625,-0.0005326317623257637,-0.00026631588116288185,0.00026631588116288185
1772651394376097500,0.39509765625,0,-0.0007989476434886456,0.00026631588116288185
1772651394386101000,0.40510107421875,0.001597895286977291,0.0007989476434886456,0.0007989476434886456
1772651394396104700,0.415104736328125,-0.0005326317623257637,0.0013315794058144093,0.0013315794058144093
1772651394406108200,0.425108154296875,0.0005326317623257637,-0.0013315794058144093,0.00026631588116288185
1772651394416111600,0.435111572265625,0.0005326317623257637,-0.0007989476434886456,-0.00026631588116288185
1772651394426115300,0.445115234375,0,0.00026631588116288185,-0.00026631588116288185
1772651394436118800,0.455118896484375,0,0.0007989476434886456,0.0007989476434886456
1772651394446122200,0.465122314453125,0.0005326317623257637,-0.00026631588116288185,-0.0007989476434886456
1772651394456126000,0.4751259765625,0.0005326317623257637,0.001864211168140173,0.00026631588116288185
1772651394466129400,0.48512939453125,0.0005326317623257637,0.00026631588116288185,0.00026631588116288185
1772651394476132900,0.4951328125,-0.0010652635246515274,0.0013315794058144093,-0.0013315794058144093
1772651394486136600,0.505136474609375,-0.001597895286977291,-0.0013315794058144093,-0.0013315794058144093
1772651394496140000,0.51514013671875,-0.0010652635246515274,-0.00026631588116288185,-0.0023968429304659367
1772651394506143500,0.5251435546875,-0.001597895286977291,-0.0007989476434886456,-0.0007989476434886456
1772651394516147200,0.535147216796875,0,-0.0013315794058144093,0.00026631588116288185
1772651394526150700,0.545150634765625,0,0.00026631588116288185,0.00026631588116288185
1772651394536154400,0.555154296875,0.0010652635246515274,-0.0007989476434886456,-0.0007989476434886456
1772651394546157800,0.56515771484375,0.0005326317623257637,0.0013315794058144093,-0.00026631588116288185
1772651394556161300,0.575161376953125,-0.001597895286977291,0.00026631588116288185,0.0013315794058144093
1772651394566165000,0.5851650390625,0.0005326317623257637,0.0007989476434886456,-0.0007989476434886456
1772651394576168400,0.59516845703125,0.0005326317623257637,0.00026631588116288185,0.0007989476434886456
1772651394586172000,0.605171875,-0.0010652635246515274,-0.001864211168140173,0.00026631588116288185
1772651394596175600,0.615175537109375,-0.0010652635246515274,-0.00026631588116288185,-0.00026631588116288185
1772651394606179000,0.625178955078125,-0.0005326317623257637,0.0013315794058144093,-0.0013315794058144093
1772651394616182500,0.6351826171875,0.0005326317623257637,0.00026631588116288185,-0.00026631588116288185
1772651394626186200,0.645186279296875,-0.0010652635246515274,-0.00026631588116288185,-0.0007989476434886456
1772651394636189700,0.655189697265625,0,-0.0013315794058144093,-0.00026631588116288185
1772651394646193400,0.665193359375,0,0.0013315794058144093,0.0007989476434886456
1772651394656196900,0.67519677734375,-0.0010652635246515274,-0.0023968429304659367,-0.0007989476434886456
1772651394666200300,0.685200439453125,-0.0003994738217443228,-0.0011984214652329683,-0.00026631588116288185
1772651394676204000,0.6952041015625,-0.0014647373463958502,-0.0011984214652329683,-0.00026631588116288185
1772651394686207500,0.70520751953125,0.0006657897029072046,0.0003994738217443228,-0.00026631588116288185
1772651394696211000,0.7152109375,0.00013315794058144093,0.001997369108721614,0.0007989476434886456
1772651394706214700,0.725214599609375,0.0006657897029072046,-0.00013315794058144093,-0.00026631588116288185
1772651394716218000,0.735218017578125,-0.0009321055840700865,0.0009321055840700865,0.0007989476434886456
1772651394726221600,0.7452216796875,0.0006657897029072046,0.0009321055840700865,0.0007989476434886456
1772651394736225300,0.755225341796875,0.0011984214652329683,-0.00013315794058144093,0.00026631588116288185
1772651394746228700,0.765228759765625,0.0011984214652329683,0.0009321055840700865,-0.0007989476434886456
1772651394756232200,0.775232177734375,-0.0009321055840700865,-0.0006657897029072046,0.00026631588116288185
1772651394766236000,0.78523583984375,0.0006657897029072046,-0.001731053227558732,0.0007989476434886456
1772651394776239400,0.7952392578125,0.00013315794058144093,0.0003994738217443228,0.0007989476434886456
1772651394786243000,0.8052431640625,0.0006657897029072046,-0.0011984214652329683,0.0007989476434886456
1772651394796246500,0.81524658203125,0.0011984214652329683,0.0003994738217443228,-0.0007989476434886456
1772651394806250200,0.825250244140625,-0.0003994738217443228,0.0003994738217443228,-0.0013315794058144093
1772651394816253700,0.835253662109375,0.00013315794058144093,-0.00013315794058144093,-0.00026631588116288185
1772651394826257200,0.845257080078125,-0.0009321055840700865,0.0009321055840700865,-0.0013315794058144093
1772651394836260900,0.8552607421875,-0.0009321055840700865,0.0009321055840700865,-0.0007989476434886456
1772651394846264300,0.865264404296875,0.0006657897029072046,-0.0006657897029072046,0.001864211168140173
1772651394856268000,0.87526806640625,-0.0003994738217443228,-0.0011984214652329683,-0.00026631588116288185
1772651394866271500,0.885271484375,-0.0003994738217443228,0.0003994738217443228,0.0007989476434886456
1772651394876275200,0.895275146484375,0.00013315794058144093,0.0003994738217443228,0.00026631588116288185
1772651394886278700,0.905278564453125,-0.0009321055840700865,-0.0006657897029072046,-0.0013315794058144093
1772651394896282400,0.915282470703125,-0.0003994738217443228,0.0014647373463958502,0.00026631588116288185
1772651394906285800,0.925285888671875,0.00013315794058144093,-0.00013315794058144093,-0.001864211168140173
1772651394916289300,0.935289306640625,0.00013315794058144093,-0.0006657897029072046,0.00026631588116288185
1772651394926293000,0.94529296875,0.00013315794058144093,0.0009321055840700865,0.001864211168140173
1772651394936296700,0.955296630859375,0.00013315794058144093,-0.0006657897029072046,-0.00026631588116288185
1772651394946300200,0.965300048828125,-0.0009321055840700865,-0.0011984214652329683,-0.0007989476434886456
1772651394956303600,0.9753037109375,-0.0003994738217443228,-0.0006657897029072046,-0.0007989476434886456
1772651394966307300,0.985307373046875,-0.0003994738217443228,-0.0006657897029072046,-0.00026631588116288185
1772651394976310800,0.995310791015625,0.00013315794058144093,-0.0011984214652329683,-0.0007989476434886456
1772651394986314500,1.005314453125,0.0006657897029072046,0.0009321055840700865,0.00026631588116288185
1772651394996318000,1.01531787109375,0.0006657897029072046,0.0009321055840700865,0.00026631588116288185
1772651395006321400,1.0253212890625,-0.0003994738217443228,0.0009321055840700865,0.00026631588116288185
1772651395016325000,1.0353251953125,-0.0009321055840700865,0.0003994738217443228,0.00026631588116288185
1772651395026328600,1.04532861328125,0.0006657897029072046,-0.00013315794058144093,-0.0007989476434886456
1772651395036332300,1.055332275390625,0.0006657897029072046,-0.0006657897029072046,0.001864211168140173
1772651395046335700,1.065335693359375,0.00013315794058144093,-0.0006657897029072046,0.00026631588116288185
1772651395056339500,1.07533935546875,-0.0003994738217443228,0.0014647373463958502,-0.0013315794058144093
1772651395066343000,1.085343017578125,-0.0003994738217443228,-0.0006657897029072046,-0.00026631588116288185
1772651395076346600,1.0953466796875,0.00013315794058144093,-0.0011984214652329683,0.00026631588116288185
1772651395086350000,1.10535009765625,0.00013315794058144093,-0.00013315794058144093,-0.00026631588116288185
1772651395096353800,1.115353759765625,0.00013315794058144093,-0.00013315794058144093,-0.00026631588116288185
1772651395106357200,1.125357177734375,0.0006657897029072046,-0.00013315794058144093,-0.0013315794058144093
1772651395116360700,1.135360595703125,-0.0003994738217443228,0.0009321055840700865,-0.0007989476434886456
1772651395126364400,1.145364501953125,0.00013315794058144093,-0.001731053227558732,-0.00026631588116288185
1772651395136367900,1.155367919921875,-0.001997369108721614,-0.0011984214652329683,0.00026631588116288185
1772651395146371600,1.16537158203125,0.001731053227558732,-0.0006657897029072046,0.0007989476434886456
1772651395156375000,1.175375,0.0027963167522102594,0.0003994738217443228,-0.00026631588116288185
1772651395166378800,1.185378662109375,-0.0003994738217443228,0.0014647373463958502,-0.0013315794058144093
1772651395176382200,1.19538232421875,0.00013315794058144093,0.001997369108721614,0.00026631588116288185
1772651395186386000,1.205385986328125,-0.0009321055840700865,0.0014647373463958502,-0.0007989476434886456
1772651395196389400,1.215389404296875,0.0006657897029072046,0.0003994738217443228,0.0007989476434886456
1772651395206392800,1.225392822265625,-0.0003994738217443228,-0.0006657897029072046,-0.0007989476434886456
1772651395216396500,1.235396484375,0.00013315794058144093,-0.0006657897029072046,-0.0007989476434886456
1772651395226400000,1.24539990234375,0.001731053227558732,0.0009321055840700865,0.00026631588116288185
1772651395236403700,1.25540380859375,-0.0009321055840700865,-0.00013315794058144093,0.0007989476434886456
1772651395246407200,1.2654072265625,-0.0014647373463958502,0.0009321055840700865,-0.00026631588116288185
1772651395256410600,1.27541064453125,-0.0003994738217443228,0.0003994738217443228,-0.00026631588116288185
1772651395266414000,1.2854140625,0.0006657897029072046,-0.0006657897029072046,-0.00026631588116288185
1772651395276417500,1.29541748046875,-0.0003994738217443228,0.0003994738217443228,0.00026631588116288185
1772651395286421000,1.3054208984375,-0.0009321055840700865,0.0014647373463958502,-0.00026631588116288185
1772651395296424200,1.315424072265625,0.00013315794058144093,0.0014647373463958502,-0.0013315794058144093
1772651395306427600,1.325427734375,0.001731053227558732,-0.00013315794058144093,0.00026631588116288185
1772651395316431000,1.33543115234375,0.00013315794058144093,-0.0011984214652329683,-0.0007989476434886456
1772651395326434600,1.3454345703125,-0.0003994738217443228,-0.0011984214652329683,0.00026631588116288185
1772651395336437800,1.355437744140625,0.00013315794058144093,-0.0011984214652329683,0.0007989476434886456
1772651395346441200,1.365441162109375,0.00013315794058144093,0.001997369108721614,0.0013315794058144093
1772651395356444700,1.375444580078125,0.0011984214652329683,0.0003994738217443228,0.0007989476434886456
1772651395366448000,1.3854482421875,0.00013315794058144093,-0.0011984214652329683,0.00026631588116288185
1772651395376451600,1.39545166015625,-0.0009321055840700865,-0.00013315794058144093,-0.0007989476434886456
1772651395386454800,1.405454833984375,0.00013315794058144093,-0.00013315794058144093,-0.00026631588116288185
1772651395396458200,1.415458251953125,0.0011984214652329683,0.0014647373463958502,0.0007989476434886456
1772651395406461700,1.425461669921875,0.00013315794058144093,0.0014647373463958502,0.00026631588116288185
1772651395416465000,1.43546484375,0.0006657897029072046,-0.0011984214652329683,0.00026631588116288185
1772651395426468400,1.44546826171875,-0.0014647373463958502,0.0009321055840700865,-0.00026631588116288185
1772651395436471800,1.455471923828125,-0.0003994738217443228,0.001997369108721614,-0.0013315794058144093
1772651395446475300,1.465475341796875,-0.0025300008710473776,-0.0011984214652329683,0.00026631588116288185
1772651395456478700,1.475478759765625,0.00013315794058144093,-0.0006657897029072046,0.0007989476434886456
1772651395466482000,1.48548193359375,0.001731053227558732,-0.001731053227558732,-0.0013315794058144093
1772651395476485400,1.4954853515625,0.0011984214652329683,-0.0027963167522102594,-0.0013315794058144093
1772651395486488800,1.50548876953125,0.00013315794058144093,-0.0006657897029072046,0.001864211168140173
1772651395496492300,1.5154921875,-0.0003994738217443228,-0.0006657897029072046,-0.0007989476434886456
1772651395506495500,1.52549560546875,-0.0003994738217443228,0.0003994738217443228,0.00026631588116288185
1772651395516499000,1.5354990234375,-0.0009321055840700865,0.0003994738217443228,0.0007989476434886456
1772651395526502400,1.54550244140625,0.00013315794058144093,-0.0011984214652329683,0.0007989476434886456
1772651395536505900,1.555505859375,0.0011984214652329683,0.0009321055840700865,-0.0007989476434886456
1772651395546509300,1.56550927734375,0.0011984214652329683,0.0003994738217443228,-0.00026631588116288185
1772651395556512500,1.575512451171875,-0.0003994738217443228,-0.0006657897029072046,-0.0007989476434886456
1772651395566516000,1.585515869140625,-0.0009321055840700865,-0.00013315794058144093,0.00026631588116288185
1772651395576519400,1.59551953125,0.001731053227558732,0.0009321055840700865,0.00026631588116288185
1772651395586523000,1.60552294921875,-0.0003994738217443228,-0.0006657897029072046,-0.0013315794058144093
1772651395596526000,1.615526123046875,0.00013315794058144093,0.0003994738217443228,0.00026631588116288185
1772651395606529500,1.625529541015625,-0.0009321055840700865,-0.0011984214652329683,-0.0007989476434886456
1772651395616533000,1.635532958984375,-0.0003994738217443228,-0.0006657897029072046,-0.0007989476434886456
1772651395626536400,1.645536376953125,0.0006657897029072046,-0.00013315794058144093,-0.0007989476434886456
1772651395636539600,1.65553955078125,0.001731053227558732,0.0003994738217443228,0.0007989476434886456
1772651395646543000,1.665543212890625,0.0011984214652329683,-0.0006657897029072046,-0.00026631588116288185
1772651395656546600,1.675546630859375,0.00013315794058144093,-0.0006657897029072046,0.00026631588116288185
1772651395666550000,1.685550048828125,0.0011984214652329683,0.0003994738217443228,-0.0013315794058144093
1772651395676553500,1.695553466796875,0.0006657897029072046,0.0025300008710473776,0.0007989476434886456
1772651395686556700,1.705556640625,0.0006657897029072046,-0.0006657897029072046,0.0007989476434886456
1772651395696560000,1.71556005859375,0.0006657897029072046,0.0009321055840700865,-0.00026631588116288185
1772651395706563600,1.7255634765625,0.0011984214652329683,0.001997369108721614,-0.00026631588116288185
1772651395716567000,1.735567138671875,0.0006657897029072046,0.0003994738217443228,-0.0007989476434886456
1772651395726570200,1.7455703125,0.00013315794058144093,-0.0006657897029072046,0.0013315794058144093
1772651395736573700,1.75557373046875,0.00013315794058144093,-0.0006657897029072046,-0.00026631588116288185
1772651395746577200,1.7655771484375,0.00013315794058144093,0.0009321055840700865,-0.00026631588116288185
1772651395756580600,1.77558056640625,-0.0003994738217443228,-0.0006657897029072046,0.0007989476434886456
1772651395766584300,1.785584228515625,0.00013315794058144093,-0.0006657897029072046,0.0007989476434886456
1772651395776587800,1.795587890625,0.00013315794058144093,0.0014647373463958502,-0.00026631588116288185
1772651395786591500,1.805591552734375,-0.0009321055840700865,0.0030626326333731413,-0.0007989476434886456
1772651395796595000,1.815594970703125,0.0006657897029072046,0.0009321055840700865,-0.00026631588116288185
1772651395806598700,1.8255986328125,-0.0003994738217443228,-0.00013315794058144093,-0.0023968429304659367
1772651395816602000,1.83560205078125,0.0006657897029072046,-0.0006657897029072046,0.00026631588116288185
1772651395826605800,1.845605712890625,0.0022636849898844957,0.0014647373463958502,0.00026631588116288185
1772651395836609500,1.855609619140625,0.0006657897029072046,-0.0011984214652329683,0.00026631588116288185
1772651395846613000,1.865613037109375,0.0006657897029072046,-0.00013315794058144093,0.001864211168140173
1772651395856616700,1.87561669921875,0.00013315794058144093,-0.00013315794058144093,0.0007989476434886456
1772651395866620200,1.8856201171875,0.0006657897029072046,0.0003994738217443228,-0.0013315794058144093
1772651395876624000,1.895623779296875,-0.0009321055840700865,0.0003994738217443228,-0.0013315794058144093
1772651395886627600,1.905627685546875,0.0011984214652329683,0.0003994738217443228,0.0013315794058144093
1772651395896631000,1.915631103515625,0.00013315794058144093,0.0014647373463958502,0.0007989476434886456
1772651395906634800,1.925634765625,0.0006657897029072046,-0.001731053227558732,-0.0013315794058144093
1772651395916638200,1.93563818359375,0.0006657897029072046,0.001997369108721614,-0.00026631588116288185
1772651395926642000,1.945641845703125,0.00013315794058144093,-0.0006657897029072046,-0.00026631588116288185
1772651395936645400,1.955645263671875,0.0011984214652329683,0.0025300008710473776,-0.0007989476434886456
1772651395946649000,1.965649169921875,0.001731053227558732,-0.001731053227558732,0.00026631588116288185
1772651395956652800,1.97565283203125,0.0006657897029072046,0.0003994738217443228,0.00026631588116288185
1772651395966656300,1.98565625,0.0027963167522102594,-0.0011984214652329683,-0.0007989476434886456
1772651395976660000,1.995659912109375,-0.0003994738217443228,-0.0027963167522102594,-0.0007989476434886456
1772651395986663400,2.005663330078125,-0.0003994738217443228,0.0009321055840700865,0.0013315794058144093
1772651395996667100,2.015667236328125,0.0011984214652329683,-0.0011984214652329683,-0.0007989476434886456
1772651396006670600,2.025670654296875,-0.0009321055840700865,0.0009321055840700865,0.0007989476434886456
1772651396016674300,2.03567431640625,0.00013315794058144093,0.0014647373463958502,0.0007989476434886456
1772651396026677800,2.045677734375,0.00013315794058144093,-0.0006657897029072046,0.00026631588116288185
1772651396036681500,2.055681396484375,-0.0014647373463958502,0.001997369108721614,0.00026631588116288185
1772651396046685200,2.065685302734375,-0.0003994738217443228,0.0003994738217443228,-0.00026631588116288185
1772651396056688600,2.075688720703125,-0.0003994738217443228,0.0009321055840700865,0.0013315794058144093
1772651396066692400,2.0856923828125,0.0006657897029072046,-0.0027963167522102594,-0.00026631588116288185
1772651396076695800,2.09569580078125,0.0006657897029072046,0.0003994738217443228,-0.0007989476434886456
1772651396086699500,2.105699462890625,0.00013315794058144093,-0.00013315794058144093,0.00026631588116288185
1772651396096703000,2.115702880859375,0.0011984214652329683,-0.00013315794058144093,-0.00026631588116288185
1772651396106706700,2.125706787109375,0.0006657897029072046,0.0003994738217443228,0.0007989476434886456
1772651396116710400,2.13571044921875,0.00013315794058144093,-0.0006657897029072046,0.00026631588116288185
1772651396126713900,2.1457138671875,-0.0009321055840700865,-0.0011984214652329683,0.0013315794058144093
1772651396136717600,2.155717529296875,-0.0003994738217443228,0.001997369108721614,-0.00026631588116288185
1772651396146721000,2.165720947265625,-0.0003994738217443228,0.001997369108721614,-0.0013315794058144093
1772651396156724700,2.175724853515625,0.001731053227558732,-0.00013315794058144093,0.0007989476434886456
1772651396166728200,2.185728271484375,0.0011984214652329683,0.0003994738217443228,0.001864211168140173
1772651396176732000,2.19573193359375,0.0006657897029072046,-0.00013315794058144093,-0.00026631588116288185
1772651396186735600,2.205735595703125,0.00013315794058144093,-0.0006657897029072046,0.0007989476434886456
1772651396196739000,2.215739013671875,0.0011984214652329683,0.0009321055840700865,0.0013315794058144093
1772651396206742800,2.22574267578125,-0.0003994738217443228,0.0003994738217443228,0.00026631588116288185
1772651396216746200,2.235746337890625,0.0011984214652329683,-0.0006657897029072046,0.00026631588116288185
1772651396226750000,2.24575,0.0011984214652329683,-0.00013315794058144093,0.0013315794058144093
1772651396236753400,2.25575341796875,0.00013315794058144093,0.0014647373463958502,-0.00026631588116288185
1772651396246757000,2.265757080078125,0.00013315794058144093,-0.00013315794058144093,0.0007989476434886456
1772651396256760600,2.275760498046875,0.00013315794058144093,-0.00013315794058144093,-0.00026631588116288185
1772651396266763800,2.285763671875,-0.0009321055840700865,-0.0006657897029072046,0.00026631588116288185
1772651396276767000,2.29576708984375,0.0006657897029072046,-0.00013315794058144093,-0.0013315794058144093
1772651396286770200,2.305770263671875,0.001731053227558732,0.0003994738217443228,0.00026631588116288185
1772651396296773400,2.3157734375,-0.0003994738217443228,-0.00013315794058144093,-0.00026631588116288185
1772651396306776600,2.325776611328125,0.00013315794058144093,0.0014647373463958502,-0.00026631588116288185
1772651396316779800,2.33577978515625,-0.0009321055840700865,0.0003994738217443228,-0.0013315794058144093
1772651396326783000,2.345782958984375,-0.0003994738217443228,0.0003994738217443228,-0.00026631588116288185
1772651396336786200,2.3557861328125,0.00013315794058144093,-0.00013315794058144093,0.00026631588116288185
1772651396346789400,2.365789306640625,0.00013315794058144093,0.0003994738217443228,0.00026631588116288185
1772651396356792600,2.37579248046875,0.001731053227558732,0.0003994738217443228,0.0007989476434886456
1772651396366795800,2.385795654296875,0.0006657897029072046,-0.0006657897029072046,-0.00026631588116288185
1772651396376799000,2.395799072265625,-0.0014647373463958502,-0.001731053227558732,0.00026631588116288185
1772651396386802200,2.40580224609375,0.0006657897029072046,-0.0006657897029072046,0.0007989476434886456
1772651396396805400,2.415805419921875,0.0011984214652329683,0.0003994738217443228,-0.0007989476434886456
1772651396406808600,2.42580859375,0.003328948514536023,0.0003994738217443228,-0.00026631588116288185
1772651396416811800,2.435811767578125,-0.0006657897029072046,-0.0006657897029072046,0.0007989476434886456
1772651396426815000,2.44581494140625,-0.00013315794058144093,0.0009321055840700865,0.0007989476434886456
1772651396436818200,2.455818115234375,-0.0011984214652329683,0.0003994738217443228,-0.00026631588116288185
1772651396446821400,2.4658212890625,0.001997369108721614,0.0003994738217443228,0.0013315794058144093
1772651396456824800,2.475824951171875,-0.0006657897029072046,0.001997369108721614,-0.00026631588116288185
1772651396466828000,2.485828125,0.0003994738217443228,-0.00013315794058144093,-0.00026631588116288185
1772651396476831200,2.495831298828125,0.0003994738217443228,0.0003994738217443228,-0.0013315794058144093
1772651396486834400,2.50583447265625,0.001997369108721614,-0.0011984214652329683,0.00026631588116288185
1772651396496837600,2.515837646484375,-0.0006657897029072046,-0.00013315794058144093,0.00026631588116288185
1772651396506840800,2.5258408203125,-0.0011984214652329683,0.0009321055840700865,-0.0013315794058144093
1772651396516844000,2.535843994140625,-0.0006657897029072046,-0.0006657897029072046,-0.00026631588116288185
1772651396526847200,2.54584716796875,0.0014647373463958502,-0.0006657897029072046,0.0007989476434886456
1772651396536850400,2.555850341796875,-0.0006657897029072046,-0.0006657897029072046,0.00026631588116288185
1772651396546853600,2.565853515625,0.0009321055840700865,-0.0006657897029072046,0.00026631588116288185
1772651396556856800,2.57585693359375,-0.0011984214652329683,0.0014647373463958502,-0.0013315794058144093
1772651396566860000,2.585860107421875,-0.00013315794058144093,-0.00013315794058144093,-0.00026631588116288185
1772651396576863200,2.59586328125,0.0003994738217443228,-0.0011984214652329683,-0.00026631588116288185
1772651396586866400,2.605866455078125,0.0003994738217443228,0.0003994738217443228,0.00026631588116288185
1772651396596869600,2.61586962890625,-0.00013315794058144093,0.0009321055840700865,-0.0023968429304659367
1772651396606872800,2.625872802734375,-0.0011984214652329683,0.0003994738217443228,-0.00026631588116288185
1772651396616876000,2.6358759765625,-0.0006657897029072046,0.0009321055840700865,-0.0007989476434886456
1772651396626879200,2.645879150390625,0.0003994738217443228,0.0009321055840700865,0.00026631588116288185
1772651396636882400,2.65588232421875,-0.0011984214652329683,0.0014647373463958502,0.00026631588116288185
1772651396646885600,2.6658857421875,0.0014647373463958502,-0.00013315794058144093,0.0007989476434886456
1772651396656888800,2.675888916015625,0.0003994738217443228,0.0009321055840700865,0.00026631588116288185
1772651396666892000,2.68589208984375,-0.00013315794058144093,-0.001731053227558732,-0.00026631588116288185
1772651396676895200,2.695895263671875,0.0014647373463958502,-0.0006657897029072046,-0.0013315794058144093
1772651396686898400,2.7058984375,-0.0006657897029072046,0.0003994738217443228,-0.00026631588116288185
1772651396696901600,2.715901611328125,-0.001731053227558732,-0.00013315794058144093,0.0007989476434886456
1772651396706904800,2.72590478515625,-0.0022636849898844957,-0.0006657897029072046,-0.0007989476434886456
1772651396716908000,2.735907958984375,-0.00013315794058144093,-0.0006657897029072046,0.00026631588116288185
1772651396726911500,2.745911376953125,-0.0011984214652329683,0.0003994738217443228,0.001864211168140173
1772651396736914400,2.75591455078125,-0.00013315794058144093,-0.00013315794058144093,-0.00026631588116288185
1772651396746918000,2.76591796875,0.0014647373463958502,-0.0006657897029072046,-0.0007989476434886456
1772651396756920800,2.7759208984375,0.0014647373463958502,0.0009321055840700865,0.0007989476434886456
1772651396766923800,2.785923828125,-0.0011984214652329683,0.0009321055840700865,0.0013315794058144093
1772651396776926700,2.7959267578125,-0.0006657897029072046,0.0009321055840700865,0.0007989476434886456
1772651396786929700,2.8059296875,-0.00013315794058144093,-0.001731053227558732,-0.00026631588116288185
1772651396796932600,2.8159326171875,-0.00013315794058144093,0.0003994738217443228,-0.00026631588116288185
1772651396806935800,2.825935791015625,-0.00013315794058144093,0.0003994738217443228,0.0007989476434886456
1772651396816938800,2.835938720703125,0.0003994738217443228,-0.001731053227558732,-0.0007989476434886456
1772651396826941700,2.845941650390625,-0.0011984214652329683,0.0003994738217443228,-0.0007989476434886456
1772651396836944600,2.855944580078125,-0.0011984214652329683,-0.001731053227558732,-0.0007989476434886456
1772651396846947600,2.865947509765625,0.0003994738217443228,-0.0011984214652329683,0.0013315794058144093
1772651396856950500,2.875950439453125,0.0003994738217443228,-0.0011984214652329683,0.0007989476434886456
1772651396866953500,2.885953369140625,-0.001731053227558732,-0.00013315794058144093,0.0007989476434886456
1772651396876956400,2.895956298828125,-0.00013315794058144093,0.0014647373463958502,0.0007989476434886456
1772651396886959600,2.905959716796875,-0.0006657897029072046,-0.0011984214652329683,-0.00026631588116288185
1772651396896962600,2.915962646484375,-0.0006657897029072046,0.0003994738217443228,0.00026631588116288185
1772651396906965500,2.925965576171875,0.0003994738217443228,0.0003994738217443228,-0.00026631588116288185
1772651396916968400,2.935968505859375,0.0003994738217443228,-0.00013315794058144093,0.0013315794058144093
1772651396926971400,2.945971435546875,-0.0006657897029072046,0.0003994738217443228,0.00026631588116288185
1772651396936974300,2.955974365234375,-0.0006657897029072046,0.0009321055840700865,-0.0013315794058144093
1772651396946977300,2.965977294921875,0.0003994738217443228,0.0009321055840700865,-0.001864211168140173
1772651396956980200,2.975980224609375,-0.001731053227558732,0.0003994738217443228,-0.00026631588116288185
1772651396966983200,2.985983154296875,-0.0006657897029072046,0.0009321055840700865,0.00026631588116288185
1772651396976986000,2.995986083984375,-0.00013315794058144093,0.0003994738217443228,-0.0007989476434886456
1772651396986989300,3.0059892578125,-0.00013315794058144093,0.0014647373463958502,0.0007989476434886456
1772651396996992300,3.0159921875,-0.0006657897029072046,-0.0006657897029072046,-0.0013315794058144093
1772651397006995200,3.0259951171875,0.0003994738217443228,0.0009321055840700865,0.0007989476434886456
1772651397016998100,3.035998046875,0.0003994738217443228,-0.0011984214652329683,-0.00026631588116288185
1772651397027001000,3.0460009765625,-0.0006657897029072046,-0.00013315794058144093,-0.00026631588116288185
1772651397037004000,3.056004150390625,0.0009321055840700865,0.0003994738217443228,0.0013315794058144093
1772651397047007000,3.066007080078125,0.0003994738217443228,0.0003994738217443228,0.0013315794058144093
1772651397057010000,3.076010009765625,-0.0006657897029072046,0.0003994738217443228,0.0013315794058144093
1772651397067012900,3.086012939453125,-0.00013315794058144093,-0.0006657897029072046,-0.00026631588116288185
1772651397077016000,3.09601611328125,0.0003994738217443228,0.0014647373463958502,0.0013315794058144093
1772651397087019000,3.10601904296875,-0.0011984214652329683,-0.00013315794058144093,0.00026631588116288185
1772651397097022000,3.11602197265625,-0.00013315794058144093,0.0003994738217443228,-0.00026631588116288185
1772651397107025000,3.12602490234375,0.0003994738217443228,-0.00013315794058144093,0.0007989476434886456
1772651397117027800,3.13602783203125,0.0003994738217443228,0.0003994738217443228,-0.0013315794058144093
1772651397127030800,3.14603076171875,-0.0006657897029072046,-0.0006657897029072046,-0.00026631588116288185
1772651397137033700,3.15603369140625,-0.0011984214652329683,-0.00013315794058144093,0.00026631588116288185
1772651397147036700,3.16603662109375,-0.0006657897029072046,0.0009321055840700865,-0.00026631588116288185
1772651397157039600,3.17603955078125,-0.00013315794058144093,-0.00013315794058144093,-0.00026631588116288185
1772651397167042600,3.18604248046875,-0.0006657897029072046,-0.0011984214652329683,0.0007989476434886456
1772651397177045800,3.196045654296875,-0.0011984214652329683,-0.0006657897029072046,0.00026631588116288185
1772651397187048700,3.206048583984375,-0.00013315794058144093,-0.00013315794058144093,-0.0013315794058144093
1772651397197051600,3.2160517578125,-0.00013315794058144093,-0.0011984214652329683,-0.0013315794058144093
1772651397207054600,3.2260546875,0.0003994738217443228,0.0003994738217443228,0.00026631588116288185
1772651397217057500,3.2360576171875,-0.00013315794058144093,-0.00013315794058144093,0.00026631588116288185
1772651397227060500,3.246060546875,-0.0011984214652329683,-0.0011984214652329683,-0.00026631588116288185
1772651397237063400,3.2560634765625,-0.0011984214652329683,-0.00013315794058144093,0.00026631588116288185
1772651397247066400,3.26606640625,0.0003994738217443228,0.0003994738217443228,0.00026631588116288185
1772651397257069600,3.276069580078125,0.0009321055840700865,-0.0006657897029072046,0.0007989476434886456
1772651397267072800,3.28607275390625,0.0009321055840700865,0.0009321055840700865,-0.00026631588116288185
1772651397277076000,3.296075927734375,-0.00013315794058144093,-0.001731053227558732,0.00026631588116288185
1772651397287079200,3.3060791015625,-0.00013315794058144093,-0.0006657897029072046,-0.00026631588116288185
1772651397297082400,3.316082275390625,0.0009321055840700865,0.0003994738217443228,0.0007989476434886456
1772651397307085600,3.32608544921875,0.0009321055840700865,0.0003994738217443228,-0.0007989476434886456
1772651397317088800,3.3360888671875,-0.0022636849898844957,-0.0006657897029072046,-0.00026631588116288185
1772651397327092000,3.346092041015625,0.0003994738217443228,-0.00013315794058144093,0.0007989476434886456
1772651397337095200,3.35609521484375,-0.0011984214652329683,-0.0006657897029072046,0.0007989476434886456
1772651397347098400,3.366098388671875,0.0003994738217443228,0.0003994738217443228,0.0013315794058144093
1772651397357101600,3.3761015625,0.0003994738217443228,-0.00013315794058144093,-0.00026631588116288185
1772651397367104800,3.386104736328125,0.0014647373463958502,-0.00013315794058144093,0.0007989476434886456
1772651397377108000,3.39610791015625,-0.0006657897029072046,-0.00013315794058144093,-0.00026631588116288185
1772651397387111200,3.406111083984375,0.0003994738217443228,0.0009321055840700865,0.00026631588116288185
1772651397397114400,3.4161142578125,-0.00013315794058144093,0.0009321055840700865,0.0013315794058144093
1772651397407117600,3.42611767578125,0.0009321055840700865,-0.00013315794058144093,-0.0013315794058144093
1772651397417120800,3.436120849609375,-0.00013315794058144093,-0.00013315794058144093,-0.0007989476434886456
1772651397427124000,3.4461240234375,0.0009321055840700865,-0.00013315794058144093,-0.00026631588116288185
1772651397437127200,3.456127197265625,0.0009321055840700865,0.0014647373463958502,-0.00026631588116288185
1772651397447130400,3.46613037109375,0.0003994738217443228,0.0014647373463958502,0.0007989476434886456
1772651397457133600,3.476133544921875,-0.0006657897029072046,0.0003994738217443228,0.0007989476434886456
1772651397467136800,3.48613671875,0.0003994738217443228,0.0014647373463958502,0.00026631588116288185
1772651397477140000,3.496139892578125,0.0003994738217443228,0.0009321055840700865,-0.00026631588116288185
1772651397487143200,3.50614306640625,-0.00013315794058144093,-0.0011984214652329683,0.0007989476434886456
1772651397497146400,3.516146484375,-0.00013315794058144093,0.001997369108721614,0.00026631588116288185
1772651397507149600,3.526149658203125,0.0009321055840700865,-0.00013315794058144093,-0.0007989476434886456
1772651397517152800,3.53615283203125,-0.0006657897029072046,0.0003994738217443228,-0.00026631588116288185
1772651397527156000,3.546156005859375,-0.0006657897029072046,0.0009321055840700865,-0.0007989476434886456
1772651397537159200,3.5561591796875,-0.00013315794058144093,0.0014647373463958502,-0.00026631588116288185
1772651397547162400,3.566162353515625,-0.001731053227558732,0.003595264395698905,-0.00026631588116288185
1772651397557165600,3.57616552734375,0.0003994738217443228,-0.00013315794058144093,-0.0013315794058144093
1772651397567168800,3.586168701171875,-0.00013315794058144093,-0.00013315794058144093,0.00026631588116288185
1772651397577172000,3.596171875,-0.0006657897029072046,-0.0006657897029072046,0.00026631588116288185
1772651397587175200,3.606175048828125,0.0009321055840700865,0.0014647373463958502,-0.001864211168140173
1772651397597178400,3.616178466796875,-0.0006657897029072046,-0.0011984214652329683,0.00026631588116288185
1772651397607181600,3.626181640625,0.0009321055840700865,-0.00013315794058144093,-0.0013315794058144093
1772651397617184800,3.636184814453125,0.0009321055840700865,0.001997369108721614,-0.00026631588116288185
1772651397627187700,3.646187744140625,-0.0006657897029072046,-0.0006657897029072046,-0.00026631588116288185
1772651397637191200,3.656191162109375,-0.00013315794058144093,-0.00013315794058144093,0.00026631588116288185
1772651397647194000,3.666194091796875,0.0003994738217443228,0.001997369108721614,-0.00026631588116288185
1772651397657197300,3.676197265625,0.0003994738217443228,-0.0006657897029072046,0.0007989476434886456
1772651397667200800,3.68620068359375,0.0025300008710473776,-0.00013315794058144093,0.0013315794058144093
1772651397677203700,3.69620361328125,0.0003994738217443228,-0.00013315794058144093,0.0007989476434886456
1772651397687207200,3.706207275390625,-0.0011984214652329683,0.0009321055840700865,-0.0007989476434886456
1772651397697210000,3.716210205078125,-0.0006657897029072046,0.0014647373463958502,0.00026631588116288185
1772651397707213300,3.72621337890625,0.0003994738217443228,0.001997369108721614,0.0007989476434886456
1772651397717216500,3.736216552734375,-0.00013315794058144093,0.0003994738217443228,0.00026631588116288185
1772651397727219700,3.7462197265625,-0.00013315794058144093,0.0009321055840700865,-0.001864211168140173
1772651397737223200,3.75622314453125,0.001997369108721614,-0.0027963167522102594,0.0007989476434886456
1772651397747226000,3.76622607421875,0.0003994738217443228,-0.0006657897029072046,0.00026631588116288185
1772651397757229600,3.7762294921875,-0.00013315794058144093,-0.0006657897029072046,0.00026631588116288185
1772651397767232800,3.786232666015625,-0.00013315794058144093,-0.00013315794058144093,-0.00026631588116288185
1772651397777236000,3.796236083984375,-0.0011984214652329683,-0.00013315794058144093,0.0007989476434886456
1772651397787239200,3.8062392578125,-0.0011984214652329683,-0.0006657897029072046,-0.0013315794058144093
1772651397797242600,3.81624267578125,-0.00013315794058144093,-0.00013315794058144093,-0.0007989476434886456
1772651397807245800,3.826245849609375,-0.0011984214652329683,-0.0006657897029072046,-0.0007989476434886456
1772651397817249000,3.8362490234375,-0.0006657897029072046,0.0009321055840700865,-0.0007989476434886456
1772651397827252500,3.84625244140625,0.001997369108721614,0.0009321055840700865,-0.00026631588116288185
1772651397837255700,3.856255615234375,0.0009321055840700865,0.0009321055840700865,-0.00026631588116288185
1772651397847259000,3.8662587890625,-0.00013315794058144093,-0.00013315794058144093,0.0007989476434886456
1772651397857262000,3.876261962890625,-0.0011984214652329683,0.0025300008710473776,-0.0007989476434886456
1772651397867265500,3.886265625,-0.00013315794058144093,-0.0011984214652329683,0.00026631588116288185
1772651397877268700,3.896268798828125,0.0009321055840700865,-0.00013315794058144093,0.001864211168140173
1772651397887272000,3.90627197265625,-0.0006657897029072046,-0.0006657897029072046,0.0007989476434886456
1772651397897275400,3.916275390625,-0.00013315794058144093,0.0014647373463958502,-0.001864211168140173
1772651397907278600,3.926278564453125,-0.0011984214652329683,-0.0022636849898844957,-0.001864211168140173
1772651397917281800,3.93628173828125,-0.0006657897029072046,-0.0006657897029072046,-0.00026631588116288185
1772651397927285200,3.94628515625,0.0003994738217443228,-0.0022636849898844957,0.0013315794058144093
1772651397937288400,3.956288330078125,0.0009321055840700865,0.0009321055840700865,-0.00026631588116288185
1772651397947291600,3.966291748046875,-0.00013315794058144093,-0.0006657897029072046,-0.001864211168140173
1772651397957294800,3.976294921875,-0.0006657897029072046,0.0009321055840700865,0.0007989476434886456
1772651397967298300,3.98629833984375,0.0009321055840700865,0.0009321055840700865,-0.00026631588116288185
1772651397977301500,3.996301513671875,0.0003994738217443228,-0.0006657897029072046,0.00026631588116288185
1772651397987304700,4.0063046875,0.0003994738217443228,-0.00013315794058144093,0.00026631588116288185
1772651397997308200,4.01630810546875,-0.0006657897029072046,0.001997369108721614,0.0013315794058144093
1772651398007311400,4.026311279296875,-0.001731053227558732,-0.00013315794058144093,-0.00026631588116288185
1772651398017314600,4.036314453125,-0.00013315794058144093,0.001997369108721614,-0.00026631588116288185
1772651398027317800,4.04631787109375,0.0009321055840700865,0.0009321055840700865,0.0007989476434886456
1772651398037321200,4.0563212890625,-0.00013315794058144093,0.001997369108721614,0.0007989476434886456
1772651398047324400,4.066324462890625,-0.00013315794058144093,0.0003994738217443228,-0.0007989476434886456
1772651398057327600,4.07632763671875,-0.0022636849898844957,0.0003994738217443228,-0.00026631588116288185
1772651398067331000,4.0863310546875,-0.0006657897029072046,0.0009321055840700865,0.0007989476434886456
1772651398077334300,4.096334228515625,-0.001731053227558732,0.001997369108721614,0.00026631588116288185
1772651398087337500,4.10633740234375,-0.0006657897029072046,-0.00013315794058144093,0.001864211168140173
1772651398097340700,4.116340576171875,0.0014647373463958502,-0.0006657897029072046,-0.0007989476434886456
1772651398107344100,4.12634423828125,0.0009321055840700865,0.0003994738217443228,0.0013315794058144093
1772651398117347300,4.136347412109375,-0.0011984214652329683,0.0003994738217443228,0.00026631588116288185
1772651398127350500,4.1463505859375,0.0003994738217443228,-0.00013315794058144093,0.0007989476434886456
1772651398137354000,4.15635400390625,0.0003994738217443228,0.0003994738217443228,-0.00026631588116288185
1772651398147357200,4.166357177734375,-0.0006657897029072046,-0.001731053227558732,-0.0013315794058144093
1772651398157360400,4.1763603515625,-0.0006657897029072046,0.0009321055840700865,0.0013315794058144093
1772651398167363600,4.186363525390625,0.0009321055840700865,-0.0011984214652329683,0.00026631588116288185
1772651398177367000,4.196366943359375,-0.0005326317623257637,0.00026631588116288185,0.0013315794058144093
1772651398187370200,4.206370361328125,-0.0005326317623257637,0.0013315794058144093,-0.00026631588116288185
1772651398197373400,4.21637353515625,-0.0005326317623257637,0.00026631588116288185,-0.0007989476434886456
1772651398207377000,4.226376953125,-0.0010652635246515274,-0.00026631588116288185,0.0007989476434886456
1772651398217380000,4.236380126953125,0.0005326317623257637,0.00026631588116288185,0.00026631588116288185
1772651398227383300,4.24638330078125,0.0005326317623257637,-0.001864211168140173,0.00026631588116288185
1772651398237386500,4.256386474609375,-0.0010652635246515274,0.0007989476434886456,0.0007989476434886456
1772651398247390000,4.266389892578125,0.0005326317623257637,0.00026631588116288185,0.00026631588116288185
1772651398257393200,4.27639306640625,0,0.0007989476434886456,0.00026631588116288185
1772651398267396600,4.286396728515625,0,-0.00026631588116288185,0.0013315794058144093
1772651398277400000,4.296400146484375,-0.001597895286977291,-0.0007989476434886456,-0.0007989476434886456
1772651398287403500,4.306403564453125,-0.0010652635246515274,0.0007989476434886456,-0.0013315794058144093
1772651398297407000,4.316406982421875,0.0005326317623257637,-0.00026631588116288185,0.001864211168140173
1772651398307410200,4.32641015625,0,-0.00026631588116288185,0.0007989476434886456
1772651398317413600,4.33641357421875,-0.0005326317623257637,0.0007989476434886456,-0.00026631588116288185
1772651398327417000,4.3464169921875,0.0005326317623257637,-0.0013315794058144093,0.00026631588116288185
1772651398337420500,4.356420654296875,-0.0005326317623257637,-0.0007989476434886456,0.0007989476434886456
1772651398347424000,4.366424072265625,0.0005326317623257637,-0.001864211168140173,-0.0007989476434886456
1772651398357427500,4.376427490234375,0.0005326317623257637,-0.0023968429304659367,-0.001864211168140173
1772651398367431000,4.386430908203125,-0.0005326317623257637,0.0007989476434886456,0.0007989476434886456
1772651398377434000,4.39643408203125,-0.0010652635246515274,-0.0007989476434886456,0.0013315794058144093
1772651398387437600,4.4064375,0,-0.001864211168140173,-0.0007989476434886456
1772651398397441000,4.41644091796875,-0.0005326317623257637,-0.0013315794058144093,0.0007989476434886456
1772651398407444500,4.426444580078125,0,0.00026631588116288185,-0.00026631588116288185
1772651398417448000,4.436447998046875,-0.0005326317623257637,-0.0007989476434886456,0.0013315794058144093
1772651398427451400,4.446451416015625,0.001597895286977291,0.00026631588116288185,-0.0007989476434886456
1772651398437454800,4.456454833984375,-0.0010652635246515274,-0.0007989476434886456,0.00026631588116288185
1772651398447458300,4.466458251953125,0.001597895286977291,-0.0007989476434886456,0.0007989476434886456
1772651398457461500,4.47646142578125,0,0.00026631588116288185,-0.0007989476434886456
1772651398467465000,4.48646484375,0.0005326317623257637,0.0007989476434886456,-0.00026631588116288185
1772651398477468400,4.496468505859375,0,0.00026631588116288185,-0.0013315794058144093
1772651398487471900,4.506471923828125,0,-0.00026631588116288185,0.00026631588116288185
1772651398497475300,4.516475341796875,-0.0010652635246515274,0.0007989476434886456,0.00026631588116288185
1772651398507478800,4.526478759765625,0.0005326317623257637,0.0013315794058144093,-0.00026631588116288185
1772651398517482000,4.53648193359375,0,-0.0013315794058144093,0.0007989476434886456
1772651398527485400,4.5464853515625,-0.0005326317623257637,-0.0023968429304659367,-0.0007989476434886456
1772651398537489000,4.556489013671875,0,-0.0007989476434886456,0.001864211168140173
1772651398547492400,4.566492431640625,-0.0005326317623257637,0.0007989476434886456,-0.0007989476434886456
1772651398557495800,4.576495849609375,-0.0026631588116288185,-0.0007989476434886456,0.00026631588116288185
1772651398567499300,4.586499267578125,-0.0005326317623257637,0.00026631588116288185,0.0029294746927917004
1772651398577502700,4.596502685546875,0,-0.00026631588116288185,-0.0007989476434886456
1772651398587506200,4.606506103515625,-0.0005326317623257637,0.0007989476434886456,0.00026631588116288185
1772651398597509400,4.61650927734375,0.0005326317623257637,-0.0013315794058144093,-0.00026631588116288185
1772651398607512800,4.626512939453125,0.0005326317623257637,-0.00026631588116288185,-0.00026631588116288185
1772651398617516300,4.636516357421875,0,-0.0007989476434886456,0.0007989476434886456
1772651398627519700,4.646519775390625,0.0010652635246515274,-0.00026631588116288185,-0.00026631588116288185
1772651398637523200,4.656523193359375,0,-0.0007989476434886456,-0.00026631588116288185
1772651398647526700,4.666526611328125,0,0.00026631588116288185,-0.00026631588116288185
1772651398657530000,4.676530029296875,0,0.0007989476434886456,-0.0007989476434886456
1772651398667533300,4.686533203125,0.0010652635246515274,-0.00026631588116288185,0.0007989476434886456
1772651398677536800,4.696536865234375,-0.0005326317623257637,0.0013315794058144093,-0.00026631588116288185
1772651398687540200,4.706540283203125,0.0010652635246515274,-0.00026631588116288185,0.00026631588116288185
1772651398697543700,4.716543701171875,0,0.00026631588116288185,-0.00026631588116288185
1772651398707547100,4.726547119140625,-0.001597895286977291,-0.0007989476434886456,0.0013315794058144093
1772651398717550600,4.736550537109375,-0.0010652635246515274,-0.00026631588116288185,-0.0007989476434886456
1772651398727554000,4.746553955078125,0,-0.0013315794058144093,0.00026631588116288185
1772651398737557200,4.75655712890625,0,-0.0013315794058144093,0.00026631588116288185
1772651398747560700,4.766560791015625,-0.0005326317623257637,-0.0007989476434886456,-0.0007989476434886456
1772651398757564400,4.776564453125,0.0005326317623257637,-0.0013315794058144093,0.0013315794058144093
1772651398767568000,4.78656787109375,-0.0005326317623257637,0.0013315794058144093,0.00026631588116288185
1772651398777571600,4.796571533203125,0.0005326317623257637,0.0007989476434886456,0.0013315794058144093
1772651398787575300,4.8065751953125,0,-0.00026631588116288185,-0.00026631588116288185
1772651398797578800,4.816578857421875,-0.0005326317623257637,0.0007989476434886456,0.0013315794058144093
1772651398807582500,4.82658251953125,0,0.00026631588116288185,-0.0007989476434886456
1772651398817586200,4.836586181640625,0.0010652635246515274,-0.0007989476434886456,0.0007989476434886456
1772651398827589600,4.846589599609375,-0.0005326317623257637,0.00026631588116288185,-0.0007989476434886456
1772651398837593300,4.85659326171875,0.0010652635246515274,0.00026631588116288185,-0.0013315794058144093
1772651398847596800,4.8665966796875,-0.002130527049303055,-0.00026631588116288185,0.00026631588116288185
1772651398857600500,4.8766005859375,0,-0.0007989476434886456,0.00026631588116288185
1772651398867604200,4.886604248046875,0.0005326317623257637,0.00026631588116288185,-0.0007989476434886456
1772651398877607700,4.896607666015625,0.0005326317623257637,-0.00026631588116288185,-0.0013315794058144093
1772651398887611400,4.906611328125,-0.0010652635246515274,0.00026631588116288185,-0.00026631588116288185
1772651398897615000,4.916614990234375,0.0005326317623257637,-0.00026631588116288185,-0.0013315794058144093
1772651398907618600,4.92661865234375,-0.001597895286977291,0.0007989476434886456,0.00026631588116288185
1772651398917622300,4.936622314453125,0,0.00026631588116288185,0.0007989476434886456
1772651398927626000,4.9466259765625,-0.0010652635246515274,0.0007989476434886456,-0.0007989476434886456
1772651398937629400,4.95662939453125,-0.0010652635246515274,-0.00026631588116288185,-0.00026631588116288185
1772651398947633200,4.966633056640625,-0.0005326317623257637,0.001864211168140173,-0.0007989476434886456
1772651398957636900,4.976636962890625,-0.0005326317623257637,0.0013315794058144093,-0.001864211168140173
1772651398967640300,4.986640380859375,-0.0005326317623257637,-0.0013315794058144093,0.0007989476434886456
1772651398977644000,4.99664404296875,0.002130527049303055,-0.00026631588116288185,-0.0007989476434886456
1772651398987647700,5.006647705078125,0,0.00026631588116288185,-0.00026631588116288185
1772651398997651200,5.016651123046875,-0.0005326317623257637,-0.0007989476434886456,0.0007989476434886456
1772651399007655000,5.026655029296875,0.0005326317623257637,-0.00026631588116288185,-0.0007989476434886456
1772651399017658400,5.036658447265625,0.0010652635246515274,0.0013315794058144093,0.0007989476434886456
1772651399027662000,5.046662109375,0.0010652635246515274,-0.00026631588116288185,-0.00026631588116288185
1772651399037665800,5.056665771484375,0.0010652635246515274,-0.0007989476434886456,-0.0007989476434886456
1772651399047669200,5.066669189453125,0.0010652635246515274,-0.0013315794058144093,0.0007989476434886456
1772651399057673000,5.0766728515625,0,0.0007989476434886456,0.0013315794058144093
1772651399067676700,5.0866767578125,0,0.00026631588116288185,-0.0007989476434886456
1772651399077680000,5.09668017578125,-0.001597895286977291,0.0013315794058144093,0.00026631588116288185
1772651399087683800,5.106683837890625,-0.0005326317623257637,0.0007989476434886456,0.0007989476434886456
1772651399097687600,5.1166875,-0.0005326317623257637,0.0013315794058144093,0.00026631588116288185
1772651399107691000,5.12669091796875,-0.001597895286977291,-0.0013315794058144093,-0.0007989476434886456
1772651399117694700,5.13669482421875,-0.0005326317623257637,0.00026631588116288185,-0.001864211168140173
1772651399127698200,5.1466982421875,0.0005326317623257637,0.0007989476434886456,-0.0013315794058144093
1772651399137702000,5.156701904296875,-0.0005326317623257637,0.0023968429304659367,0.00026631588116288185
1772651399147705600,5.16670556640625,0,0.0013315794058144093,-0.0007989476434886456
1772651399157709300,5.176709228515625,0.0005326317623257637,-0.00026631588116288185,-0.00026631588116288185
1772651399167712800,5.186712646484375,-0.0005326317623257637,-0.0007989476434886456,0.0007989476434886456
1772651399177716500,5.196716552734375,-0.0010652635246515274,-0.0013315794058144093,0.00026631588116288185
1772651399187720200,5.20672021484375,0.0010652635246515274,-0.0007989476434886456,0.0013315794058144093
1772651399197723600,5.2167236328125,0,0.0007989476434886456,-0.00026631588116288185
1772651399207727400,5.226727294921875,0.0005326317623257637,0.00026631588116288185,-0.0013315794058144093
1772651399217730800,5.236730712890625,-0.0005326317623257637,-0.001864211168140173,0.00026631588116288185
1772651399227734500,5.246734619140625,-0.0005326317623257637,0.00026631588116288185,-0.0013315794058144093
1772651399237738200,5.25673828125,0,0.0023968429304659367,-0.0007989476434886456
1772651399247741700,5.26674169921875,0.0005326317623257637,-0.0013315794058144093,-0.00026631588116288185
1772651399257745200,5.2767451171875,-0.0005326317623257637,0.0013315794058144093,-0.00026631588116288185
1772651399267748400,5.286748291015625,0.0005326317623257637,-0.0013315794058144093,-0.0007989476434886456
1772651399277751300,5.296751220703125,-0.0005326317623257637,0.0013315794058144093,0.0013315794058144093
1772651399287754500,5.30675439453125,0.002130527049303055,0.00026631588116288185,-0.00026631588116288185
1772651399297757700,5.3167578125,-0.0005326317623257637,-0.0013315794058144093,-0.00026631588116288185
1772651399307761000,5.326760986328125,0,0.00026631588116288185,0.00026631588116288185
1772651399317764000,5.33676416015625,-0.0005326317623257637,0.00026631588116288185,-0.0007989476434886456
1772651399327767000,5.34676708984375,-0.0005326317623257637,0.00026631588116288185,0.00026631588116288185
1772651399337770200,5.356770263671875,0,-0.0013315794058144093,0.00026631588116288185
1772651399347773400,5.3667734375,0.0010652635246515274,-0.0007989476434886456,0.0007989476434886456
1772651399357776600,5.376776611328125,-0.0005326317623257637,0.0007989476434886456,0.00026631588116288185
1772651399367779600,5.386779541015625,0.0010652635246515274,-0.00026631588116288185,0.0007989476434886456
1772651399377782800,5.39678271484375,0,0.0023968429304659367,0.00026631588116288185
1772651399387786000,5.406785888671875,-0.0005326317623257637,0.00026631588116288185,0.00026631588116288185
1772651399397789200,5.4167890625,0,-0.0013315794058144093,0.0007989476434886456
1772651399407792400,5.42679248046875,-0.0005326317623257637,-0.0013315794058144093,0.00026631588116288185
1772651399417795300,5.43679541015625,-0.0010652635246515274,0.0007989476434886456,-0.00026631588116288185
1772651399427798500,5.446798583984375,0,-0.0029294746927917004,-0.00026631588116288185
1772651399437801700,5.4568017578125,-0.0010652635246515274,0.00026631588116288185,0.0007989476434886456
1772651399447805000,5.466804931640625,0,0.0013315794058144093,0.0007989476434886456
1772651399457808000,5.476807861328125,-0.0005326317623257637,-0.0007989476434886456,0.0007989476434886456
1772651399467811000,5.48681103515625,0.0010652635246515274,-0.0013315794058144093,0.0007989476434886456
1772651399477814300,5.496814208984375,0.0005326317623257637,0.0013315794058144093,-0.00026631588116288185
1772651399487817500,5.5068173828125,0.0010652635246515274,-0.001864211168140173,0.00026631588116288185
1772651399497820400,5.5168203125,0.0005326317623257637,-0.001864211168140173,-0.0007989476434886456
1772651399507823600,5.52682373046875,0.0010652635246515274,-0.0029294746927917004,-0.001864211168140173
1772651399517826800,5.536826904296875,0.0005326317623257637,0.0007989476434886456,0.0013315794058144093
1772651399527830000,5.546830078125,0,-0.0023968429304659367,0.00026631588116288185
1772651399537833200,5.556833251953125,0.0005326317623257637,0.0023968429304659367,-0.00026631588116288185
1772651399547836200,5.566836181640625,0.0005326317623257637,0.0013315794058144093,0.00026631588116288185
1772651399557839400,5.57683935546875,-0.0010652635246515274,-0.00026631588116288185,0.00026631588116288185
1772651399567842600,5.586842529296875,0,0.00026631588116288185,0.00026631588116288185
1772651399577845800,5.596845703125,0.0005326317623257637,-0.00026631588116288185,-0.00026631588116288185
1772651399587848700,5.6068486328125,-0.0005326317623257637,0.0013315794058144093,-0.00026631588116288185
1772651399597852000,5.616851806640625,0,-0.0007989476434886456,0.0007989476434886456
1772651399607855000,5.626855224609375,-0.0005326317623257637,0.001864211168140173,0.00026631588116288185
1772651399617858300,5.6368583984375,0,-0.003462106455117464,-0.0007989476434886456
1772651399627861200,5.646861328125,-0.001597895286977291,-0.00026631588116288185,-0.0007989476434886456
1772651399637864400,5.656864501953125,-0.0005326317623257637,-0.00026631588116288185,-0.0007989476434886456
1772651399647867600,5.66686767578125,0,0.00026631588116288185,-0.0007989476434886456
1772651399657870800,5.676870849609375,-0.0010652635246515274,0.0007989476434886456,0.0007989476434886456
1772651399667874000,5.6868740234375,-0.0010652635246515274,0.0013315794058144093,0.001864211168140173
1772651399677877000,5.696876953125,-0.0005326317623257637,0.0007989476434886456,0.0007989476434886456
1772651399687880200,5.706880126953125,0.0005326317623257637,-0.0013315794058144093,-0.00026631588116288185
1772651399697883400,5.71688330078125,-0.0005326317623257637,0.0013315794058144093,-0.0007989476434886456
1772651399707886600,5.726886474609375,0,-0.0029294746927917004,-0.0007989476434886456
1772651399717889500,5.7368896484375,0.0005326317623257637,0.00026631588116288185,0.0007989476434886456
1772651399727892700,5.746892822265625,0.0005326317623257637,-0.001864211168140173,0.00026631588116288185
1772651399737896000,5.75689599609375,-0.0005326317623257637,-0.0007989476434886456,0.00026631588116288185
1772651399747899100,5.766899169921875,0.001597895286977291,-0.0023968429304659367,-0.0013315794058144093
1772651399757902000,5.776902099609375,-0.003195790573954582,0.0013315794058144093,-0.0007989476434886456
1772651399767905000,5.786905029296875,0.0005326317623257637,0.0013315794058144093,0.00026631588116288185
1772651399777908000,5.796907958984375,-0.0005326317623257637,-0.0007989476434886456,-0.00026631588116288185
1772651399787911200,5.8069111328125,-0.001597895286977291,-0.0007989476434886456,0.0007989476434886456
1772651399797914000,5.8169140625,-0.002130527049303055,-0.00026631588116288185,-0.0007989476434886456
1772651399807917000,5.8269169921875,0.0005326317623257637,-0.00026631588116288185,-0.0007989476434886456
1772651399817920000,5.836919921875,0.0005326317623257637,0.00026631588116288185,0.0007989476434886456
1772651399827923000,5.8469228515625,0,-0.001864211168140173,0.00026631588116288185
1772651399837926100,5.856926025390625,0,0.00026631588116288185,0.0007989476434886456
1772651399847929000,5.86692919921875,0,-0.00026631588116288185,0.00026631588116288185
1772651399857932000,5.87693212890625,0,-0.00026631588116288185,-0.0013315794058144093
1772651399867935000,5.88693505859375,-0.0005326317623257637,-0.00026631588116288185,-0.0007989476434886456
1772651399877938000,5.89693798828125,0,-0.0013315794058144093,-0.0013315794058144093
1772651399887941000,5.906941162109375,0.0005326317623257637,0.0013315794058144093,-0.00026631588116288185
1772651399897944000,5.916944091796875,-0.0010652635246515274,-0.00026631588116288185,0.0013315794058144093
1772651399907947000,5.926947021484375,0,0.00026631588116288185,-0.0013315794058144093
1772651399917950000,5.936949951171875,-0.0005326317623257637,0.0023968429304659367,-0.0007989476434886456
1772651399927953200,5.946953125,-0.0003994738217443228,0.0009321055840700865,0.0013315794058144093
1772651399937956000,5.9569560546875,-0.0014647373463958502,-0.0006657897029072046,0.0023968429304659367
1772651399947959000,5.966958984375,-0.0003994738217443228,0.001997369108721614,0.00026631588116288185
1772651399957962000,5.9769619140625,0.00013315794058144093,0.0014647373463958502,0.001864211168140173
1772651399967965000,5.98696484375,0.0006657897029072046,0.0003994738217443228,0.00026631588116288185
1772651399977968000,5.996968017578125,0.00013315794058144093,-0.0006657897029072046,-0.00026631588116288185
1772651399987971000,6.00697119140625,0.0006657897029072046,-0.001731053227558732,0.00026631588116288185
1772651399997974000,6.01697412109375,0.0006657897029072046,0.0003994738217443228,0.00026631588116288185
1772651400007977000,6.02697705078125,0.001731053227558732,-0.001731053227558732,-0.00026631588116288185
1772651400017980000,6.03697998046875,0.0011984214652329683,-0.00013315794058144093,-0.0007989476434886456
1772651400027983000,6.046983154296875,0.00013315794058144093,0.0003994738217443228,-0.0007989476434886456
1772651400037986000,6.056986083984375,0.0011984214652329683,0.0003994738217443228,0.00026631588116288185
1772651400047989000,6.066989013671875,-0.0003994738217443228,-0.001731053227558732,-0.00026631588116288185
1772651400057992000,6.076991943359375,-0.001997369108721614,-0.00013315794058144093,-0.00026631588116288185
1772651400067995000,6.086994873046875,-0.0003994738217443228,-0.0006657897029072046,0.0013315794058144093
1772651400077998000,6.096998046875,-0.0003994738217443228,-0.00013315794058144093,-0.00026631588116288185
1772651400088001000,6.1070009765625,0.00013315794058144093,-0.00013315794058144093,-0.00026631588116288185
1772651400098004000,6.11700390625,-0.0009321055840700865,-0.0006657897029072046,0.00026631588116288185
1772651400108007000,6.1270068359375,0.00013315794058144093,0.0009321055840700865,0.0007989476434886456
1772651400118009900,6.137009765625,0.0006657897029072046,-0.00013315794058144093,-0.0013315794058144093
1772651400128013000,6.147012939453125,0.00013315794058144093,-0.0006657897029072046,-0.00026631588116288185
1772651400138016000,6.15701611328125,0.0011984214652329683,0.0003994738217443228,0.00026631588116288185
1772651400148019000,6.16701904296875,-0.0003994738217443228,0.0014647373463958502,-0.00026631588116288185
1772651400158022000,6.17702197265625,-0.0014647373463958502,0.0003994738217443228,-0.0007989476434886456
1772651400168025000,6.187025146484375,-0.0014647373463958502,-0.00013315794058144093,0.0007989476434886456
1772651400178028000,6.197028076171875,-0.0003994738217443228,-0.0011984214652329683,0.0007989476434886456
1772651400188031000,6.207031005859375,0.0006657897029072046,-0.0006657897029072046,-0.0007989476434886456
1772651400198034000,6.217033935546875,0.0011984214652329683,0.0009321055840700865,0.0007989476434886456
1772651400208036900,6.227036865234375,-0.0009321055840700865,0.0009321055840700865,0.0007989476434886456
1772651400218040000,6.2370400390625,0.00013315794058144093,-0.0011984214652329683,-0.001864211168140173
1772651400228043000,6.24704296875,-0.0003994738217443228,0.0009321055840700865,0.001864211168140173
1772651400238046000,6.2570458984375,-0.001997369108721614,0.0003994738217443228,-0.00026631588116288185
1772651400248049000,6.267048828125,-0.0003994738217443228,0.0009321055840700865,-0.00026631588116288185
1772651400258051800,6.2770517578125,-0.0014647373463958502,0.0003994738217443228,0.0007989476434886456
1772651400268054800,6.2870546875,-0.001997369108721614,0.0009321055840700865,-0.00026631588116288185
1772651400278057700,6.2970576171875,0.00013315794058144093,-0.0006657897029072046,-0.0013315794058144093
1772651400288060700,6.307060791015625,-0.0003994738217443228,-0.00013315794058144093,-0.00026631588116288185
1772651400298063600,6.317063720703125,0.0011984214652329683,0.0009321055840700865,0.00026631588116288185
1772651400308066800,6.32706689453125,0.0006657897029072046,0.0009321055840700865,-0.00026631588116288185
1772651400318069500,6.337069580078125,0.00013315794058144093,0.0014647373463958502,-0.0007989476434886456
1772651400328072400,6.347072509765625,0.00013315794058144093,0.001997369108721614,0.001864211168140173
1772651400338075600,6.35707568359375,0.0006657897029072046,-0.0006657897029072046,-0.0013315794058144093
1772651400348078300,6.367078369140625,-0.0003994738217443228,0.0003994738217443228,-0.00026631588116288185
1772651400358081500,6.37708154296875,0.001731053227558732,-0.00013315794058144093,-0.001864211168140173
1772651400368084500,6.38708447265625,0.00013315794058144093,0.001997369108721614,0.0007989476434886456
1772651400378087400,6.39708740234375,0.00013315794058144093,-0.00013315794058144093,-0.00026631588116288185
1772651400388090400,6.40709033203125,-0.0014647373463958502,0.0003994738217443228,0.00026631588116288185
1772651400398093300,6.41709326171875,-0.0003994738217443228,-0.00013315794058144093,-0.0013315794058144093
1772651400408096300,6.42709619140625,0.00013315794058144093,-0.00013315794058144093,0.0007989476434886456
1772651400418099200,6.43709912109375,0.00013315794058144093,0.0003994738217443228,0.0007989476434886456
1772651400428102100,6.44710205078125,0.00013315794058144093,0.0009321055840700865,-0.00026631588116288185
1772651400438105000,6.45710498046875,0.0006657897029072046,0.0003994738217443228,-0.0007989476434886456
1772651400448108000,6.46710791015625,-0.0009321055840700865,-0.0006657897029072046,0.00026631588116288185
1772651400458111000,6.477111083984375,-0.0014647373463958502,0.0003994738217443228,0.00026631588116288185
1772651400468114000,6.487114013671875,0.001731053227558732,-0.0006657897029072046,0.00026631588116288185
1772651400478116900,6.497116943359375,-0.0003994738217443228,-0.0006657897029072046,0.0013315794058144093
1772651400488119800,6.507119873046875,0.001731053227558732,-0.0011984214652329683,0.0007989476434886456
1772651400498122800,6.517122802734375,-0.0003994738217443228,-0.00013315794058144093,0.00026631588116288185
1772651400508125700,6.527125732421875,0.001731053227558732,-0.0006657897029072046,-0.0007989476434886456
1772651400518128600,6.537128662109375,-0.0009321055840700865,0.0003994738217443228,-0.0013315794058144093
1772651400528131600,6.547131591796875,0.0011984214652329683,0.0003994738217443228,0.00026631588116288185
1772651400538134500,6.557134521484375,0.0006657897029072046,-0.0006657897029072046,0.0013315794058144093
1772651400548137500,6.567137451171875,0.00013315794058144093,-0.00013315794058144093,0.00026631588116288185
1772651400558140400,6.577140380859375,0.00013315794058144093,-0.00013315794058144093,0.0013315794058144093
1772651400568143400,6.587143310546875,-0.0003994738217443228,0.0003994738217443228,0.00026631588116288185
1772651400578146300,6.597146240234375,0.0011984214652329683,0.0003994738217443228,0.00026631588116288185
1772651400588149200,6.607149169921875,0.0011984214652329683,-0.00013315794058144093,-0.00026631588116288185
1772651400598152200,6.617152099609375,0.0006657897029072046,-0.0006657897029072046,0.0007989476434886456
1772651400608155400,6.6271552734375,-0.0009321055840700865,-0.0006657897029072046,-0.0013315794058144093
1772651400618158000,6.637157958984375,0.0006657897029072046,-0.00013315794058144093,-0.0013315794058144093
1772651400628161300,6.647161376953125,0.00013315794058144093,0.0009321055840700865,0.00026631588116288185
1772651400638164200,6.657164306640625,0.00013315794058144093,-0.00013315794058144093,0.0013315794058144093
1772651400648167200,6.667167236328125,-0.0003994738217443228,-0.0006657897029072046,0.0013315794058144093
1772651400658170000,6.677170166015625,0.00013315794058144093,-0.0011984214652329683,-0.0007989476434886456
1772651400668173000,6.687173095703125,0.0006657897029072046,-0.00013315794058144093,-0.00026631588116288185
1772651400678176000,6.697176025390625,-0.0003994738217443228,-0.00013315794058144093,0.0013315794058144093
1772651400688179000,6.707178955078125,0.0011984214652329683,-0.0011984214652329683,0.0007989476434886456
1772651400698182000,6.717181884765625,-0.0009321055840700865,-0.0006657897029072046,-0.0013315794058144093
1772651400708184800,6.727184814453125,-0.0003994738217443228,-0.0011984214652329683,-0.00026631588116288185
1772651400718187800,6.737187744140625,0.0011984214652329683,-0.00013315794058144093,-0.00026631588116288185
1772651400728190700,6.747190673828125,-0.0009321055840700865,0.0009321055840700865,-0.00026631588116288185
1772651400738193700,6.757193603515625,-0.0003994738217443228,-0.0006657897029072046,0.00026631588116288185
1772651400748196600,6.767196533203125,-0.0003994738217443228,-0.0006657897029072046,-0.001864211168140173
1772651400758200000,6.777199951171875,-0.0014647373463958502,-0.001731053227558732,-0.0007989476434886456
1772651400768203800,6.787203857421875,-0.0014647373463958502,0.0009321055840700865,0.00026631588116288185
1772651400778207700,6.797207763671875,-0.0009321055840700865,0.0003994738217443228,-0.00026631588116288185
1772651400788211500,6.80721142578125,0.0011984214652329683,-0.00013315794058144093,-0.00026631588116288185
1772651400798215200,6.817215087890625,0.001731053227558732,-0.001731053227558732,-0.00026631588116288185
1772651400808219100,6.82721923828125,-0.0014647373463958502,0.0014647373463958502,-0.00026631588116288185
1772651400818222800,6.837222900390625,-0.0009321055840700865,0.0009321055840700865,-0.0007989476434886456
1772651400828226600,6.8472265625,-0.0003994738217443228,0.0009321055840700865,-0.0007989476434886456
1772651400838230300,6.857230224609375,0.00013315794058144093,0.0003994738217443228,-0.00026631588116288185
1772651400848234200,6.867234130859375,0.0006657897029072046,-0.00013315794058144093,0.0007989476434886456
1772651400858238000,6.877238037109375,0.0011984214652329683,0.0030626326333731413,0.0023968429304659367
1772651400868242000,6.887241943359375,-0.0003994738217443228,-0.0006657897029072046,-0.00026631588116288185
1772651400878245600,6.89724560546875,-0.0014647373463958502,-0.0011984214652329683,-0.0013315794058144093
1772651400888249300,6.907249267578125,0.00013315794058144093,-0.001731053227558732,0.00026631588116288185
1772651400898253000,6.917253173828125,-0.0003994738217443228,0.0003994738217443228,-0.00026631588116288185
1772651400908257000,6.927257080078125,0.0006657897029072046,-0.00013315794058144093,0.0007989476434886456
1772651400918260700,6.9372607421875,0.0006657897029072046,-0.0006657897029072046,0.00026631588116288185
1772651400928264400,6.947264404296875,0.0011984214652329683,-0.0006657897029072046,-0.001864211168140173
1772651400938268400,6.957268310546875,-0.0014647373463958502,0.0003994738217443228,0.0007989476434886456
1772651400948272000,6.967272216796875,0.00013315794058144093,-0.001731053227558732,0.00026631588116288185
1772651400958275800,6.97727587890625,0.0006657897029072046,-0.0011984214652329683,-0.0013315794058144093
1772651400968279600,6.987279541015625,0.0006657897029072046,-0.0011984214652329683,0.0007989476434886456
1772651400978283500,6.997283447265625,-0.0003994738217443228,0.0009321055840700865,0.00026631588116288185
1772651400988287200,7.007287353515625,-0.0003994738217443228,0.0003994738217443228,0.0007989476434886456
1772651400998291000,7.017291015625,-0.0003994738217443228,-0.0006657897029072046,-0.00026631588116288185
1772651401008295000,7.027294921875,0.0011984214652329683,-0.0022636849898844957,-0.0007989476434886456
1772651401018298600,7.037298583984375,0.00013315794058144093,-0.00013315794058144093,-0.0007989476434886456
1772651401028302300,7.04730224609375,-0.0003994738217443228,-0.00013315794058144093,-0.0013315794058144093
1772651401038306300,7.057306396484375,0.00013315794058144093,-0.003861580276861787,0.0013315794058144093
1772651401048310000,7.06731005859375,0.0022636849898844957,-0.00013315794058144093,-0.0007989476434886456
1772651401058313700,7.077313720703125,-0.0003994738217443228,-0.00013315794058144093,0.0007989476434886456
1772651401068317700,7.087317626953125,-0.0009321055840700865,0.0003994738217443228,-0.00026631588116288185
1772651401078321400,7.0973212890625,-0.0009321055840700865,0.0014647373463958502,0.00026631588116288185
1772651401088325000,7.1073251953125,0.0006657897029072046,0.0030626326333731413,0.00026631588116288185
1772651401098328800,7.117328857421875,0.0006657897029072046,0.0003994738217443228,0.00026631588116288185
1772651401108332800,7.127332763671875,0.00013315794058144093,-0.0006657897029072046,-0.0007989476434886456
1772651401118336500,7.13733642578125,-0.0003994738217443228,-0.00013315794058144093,0.0013315794058144093
1772651401128340200,7.14734033203125,-0.0003994738217443228,0.001997369108721614,-0.00026631588116288185
1772651401138344200,7.15734423828125,0.0011984214652329683,0.0009321055840700865,0.00026631588116288185
1772651401148348000,7.167347900390625,0.00013315794058144093,-0.00013315794058144093,-0.00026631588116288185
1772651401158351600,7.1773515625,-0.0003994738217443228,0.0003994738217443228,-0.00026631588116288185
1772651401168355600,7.18735546875,0.00013315794058144093,-0.0006657897029072046,0.0007989476434886456
1772651401178359300,7.197359375,0.0006657897029072046,0.0025300008710473776,-0.0007989476434886456
1772651401188363000,7.207363037109375,-0.0003994738217443228,0.0014647373463958502,-0.0007989476434886456
1772651401198366700,7.21736669921875,0.0011984214652329683,-0.001731053227558732,0.00026631588116288185
1772651401208370700,7.22737060546875,-0.0003994738217443228,-0.0011984214652329683,-0.0007989476434886456
1772651401218374400,7.23737451171875,0.0006657897029072046,0.0030626326333731413,0.00026631588116288185
1772651401228378000,7.247378173828125,0.00013315794058144093,0.0009321055840700865,-0.0007989476434886456
1772651401238382000,7.257382080078125,0.0011984214652329683,0.0003994738217443228,0.001864211168140173
1772651401248385800,7.2673857421875,0.0006657897029072046,-0.0006657897029072046,-0.0007989476434886456
1772651401258389500,7.277389404296875,-0.001997369108721614,0.0003994738217443228,0.0013315794058144093
1772651401268393200,7.287393310546875,0.00013315794058144093,-0.0022636849898844957,0.00026631588116288185
1772651401278397000,7.29739697265625,-0.0003994738217443228,0.0003994738217443228,-0.0013315794058144093
1772651401288401000,7.30740087890625,0.001731053227558732,0.0014647373463958502,-0.00026631588116288185
1772651401298404600,7.317404541015625,-0.0003994738217443228,0.001997369108721614,0.001864211168140173
1772651401308408300,7.327408203125,-0.0009321055840700865,0.0009321055840700865,0.00026631588116288185
1772651401318412000,7.337412109375,-0.0003994738217443228,-0.0006657897029072046,0.0007989476434886456
1772651401328415700,7.347415771484375,-0.0003994738217443228,0.0009321055840700865,0.00026631588116288185
1772651401338419700,7.357419677734375,-0.0003994738217443228,0.0003994738217443228,-0.0007989476434886456
1772651401348423400,7.36742333984375,0.00013315794058144093,-0.0011984214652329683,0.0007989476434886456
1772651401358427100,7.37742724609375,0.00013315794058144093,-0.00013315794058144093,-0.001864211168140173
1772651401368430800,7.387430908203125,0.00013315794058144093,0.0003994738217443228,-0.001864211168140173
1772651401378434800,7.397434814453125,0.00013315794058144093,-0.0022636849898844957,0.00026631588116288185
1772651401388438500,7.4074384765625,-0.0003994738217443228,0.001997369108721614,0.00026631588116288185
1772651401398442200,7.417442138671875,0.00013315794058144093,-0.0006657897029072046,0.0007989476434886456
1772651401408446000,7.427446044921875,0.0006657897029072046,0.0014647373463958502,0.00026631588116288185
1772651401418449700,7.43744970703125,0.00013315794058144093,0.0014647373463958502,0.00026631588116288185
1772651401428453600,7.44745361328125,-0.0009321055840700865,0.0014647373463958502,-0.0007989476434886456
1772651401438457300,7.457457275390625,-0.0003994738217443228,-0.0006657897029072046,-0.001864211168140173
1772651401448461000,7.4674609375,0.00013315794058144093,0.0003994738217443228,0.0007989476434886456
1772651401458464800,7.47746484375,-0.0014647373463958502,-0.0022636849898844957,-0.0007989476434886456
1772651401468468500,7.487468505859375,0.0011984214652329683,0.0003994738217443228,0.0007989476434886456
1772651401478472200,7.49747216796875,0.0006657897029072046,-0.001731053227558732,-0.00026631588116288185
1772651401488476200,7.50747607421875,-0.0014647373463958502,-0.0022636849898844957,-0.0013315794058144093
1772651401498479900,7.51747998046875,0.00013315794058144093,-0.0022636849898844957,-0.00026631588116288185
1772651401508483600,7.527483642578125,0.0006657897029072046,0.0014647373463958502,-0.0013315794058144093
1772651401518487300,7.5374873046875,-0.0003994738217443228,0.0014647373463958502,0.0007989476434886456
1772651401528491000,7.547490966796875,0.0006657897029072046,-0.001731053227558732,-0.00026631588116288185
1772651401538495000,7.557494873046875,-0.0009321055840700865,-0.0011984214652329683,-0.0007989476434886456
1772651401548498700,7.567498779296875,0.00013315794058144093,-0.00013315794058144093,-0.00026631588116288185
1772651401558502400,7.57750244140625,0.0011984214652329683,-0.0006657897029072046,-0.0007989476434886456
1772651401568506000,7.587506103515625,-0.001997369108721614,-0.0011984214652329683,0.00026631588116288185
1772651401578509800,7.597509765625,0.00013315794058144093,-0.00013315794058144093,0.0007989476434886456
1772651401588513800,7.607513671875,0.00013315794058144093,-0.0006657897029072046,0.00026631588116288185
1772651401598517500,7.617517578125,-0.0003994738217443228,-0.0006657897029072046,-0.00026631588116288185
1772651401608521200,7.627521240234375,-0.0003994738217443228,0.0009321055840700865,0.00026631588116288185
1772651401618525000,7.63752490234375,0.0006657897029072046,0.0003994738217443228,0.0007989476434886456
1772651401628528600,7.647528564453125,-0.0003994738217443228,0.0014647373463958502,0.0007989476434886456
1772651401638532400,7.657532470703125,0.0006657897029072046,-0.0011984214652329683,-0.001864211168140173
1772651401648536300,7.667536376953125,-0.0003994738217443228,0.001997369108721614,-0.00026631588116288185
1772651401658540000,7.6775400390625,-0.0003994738217443228,-0.00013315794058144093,0.0007989476434886456
1772651401668543700,7.687543701171875,0.001731053227558732,0.0014647373463958502,0.00026631588116288185
1772651401678547500,7.69754736328125,0.0006657897029072046,-0.00013315794058144093,-0.0023968429304659367
1772651401688551200,7.70755126953125,0.00013315794058144093,-0.0011984214652329683,0.00026631588116288185
1772651401698555100,7.71755517578125,0.0006657897029072046,0.0009321055840700865,0.00026631588116288185
1772651401708558800,7.727558837890625,-0.0003994738217443228,-0.00013315794058144093,-0.00026631588116288185
1772651401718562600,7.7375625,0.001731053227558732,-0.001731053227558732,-0.00026631588116288185
1772651401728566300,7.747566162109375,0.001731053227558732,0.0003994738217443228,-0.0007989476434886456
1772651401738570200,7.7575703125,-0.0003994738217443228,-0.00013315794058144093,0.0023968429304659367
1772651401748574000,7.767573974609375,-0.0009321055840700865,0.0003994738217443228,0.00026631588116288185
1772651401758577400,7.777577392578125,0.00013315794058144093,-0.0006657897029072046,0.0007989476434886456
1772651401768580600,7.78758056640625,-0.0014647373463958502,0.0003994738217443228,0.00026631588116288185
1772651401778583800,7.797583740234375,0.0011984214652329683,-0.00013315794058144093,0.0013315794058144093
1772651401788587300,7.807587158203125,0.00013315794058144093,0.0009321055840700865,0.0007989476434886456
1772651401798590500,7.817590576171875,0.00013315794058144093,-0.0006657897029072046,0.0007989476434886456
1772651401808593700,7.82759375,0.001731053227558732,0.0014647373463958502,0.0013315794058144093
1772651401818597000,7.83759716796875,0.0006657897029072046,0.0014647373463958502,-0.0007989476434886456
1772651401828600300,7.847600341796875,-0.0003994738217443228,-0.0011984214652329683,-0.00026631588116288185
1772651401838603800,7.857603759765625,0.0011984214652329683,0.0009321055840700865,-0.0013315794058144093
1772651401848607000,7.86760693359375,0.0011984214652329683,0.0003994738217443228,-0.00026631588116288185
1772651401858610200,7.877610107421875,0.0011984214652329683,0.0003994738217443228,0.0007989476434886456
1772651401868613600,7.887613525390625,0.0006657897029072046,-0.00013315794058144093,-0.00026631588116288185
1772651401878616800,7.897616943359375,0.0011984214652329683,-0.0011984214652329683,-0.00026631588116288185
1772651401888620300,7.907620361328125,-0.0003994738217443228,-0.0006657897029072046,-0.00026631588116288185
1772651401898623500,7.91762353515625,0.0006657897029072046,0.0014647373463958502,0.0013315794058144093
1772651401908626700,7.927626708984375,-0.0003994738217443228,-0.00013315794058144093,-0.0013315794058144093
1772651401918630100,7.937630126953125,-0.0009321055840700865,-0.0006657897029072046,0.0007989476434886456
1772651401928633300,7.94763330078125,0.00013315794058144093,-0.0006657897029072046,-0.00026631588116288185
1772651401938636500,7.957636474609375,0.0011984214652329683,0.0014647373463958502,0.0007989476434886456
1772651401948640000,7.967639892578125,0.001731053227558732,-0.0011984214652329683,0.0007989476434886456
1772651401958643200,7.977643310546875,-0.0009321055840700865,0.0009321055840700865,0.00026631588116288185
1772651401968646700,7.987646728515625,0.001731053227558732,-0.0006657897029072046,-0.00026631588116288185
1772651401978649900,7.99764990234375,-0.0009321055840700865,0.0009321055840700865,0.0007989476434886456
1772651401988653000,8.007653076171875,0.0011984214652329683,0.0009321055840700865,0.0007989476434886456
1772651401998656500,8.017656494140626,0.0006657897029072046,0.0003994738217443228,0.00026631588116288185
1772651402008659700,8.02765966796875,0.0006657897029072046,-0.00013315794058144093,-0.0007989476434886456
1772651402018663200,8.0376630859375,0.0006657897029072046,-0.0006657897029072046,-0.0023968429304659367
1772651402028666400,8.047666259765625,0.0006657897029072046,-0.0011984214652329683,-0.00026631588116288185
1772651402038669600,8.057669677734374,0.00013315794058144093,-0.0011984214652329683,-0.00026631588116288185
1772651402048672800,8.0676728515625,-0.0009321055840700865,0.0003994738217443228,-0.00026631588116288185
1772651402058676200,8.07767626953125,0.00013315794058144093,-0.00013315794058144093,-0.0007989476434886456
1772651402068679400,8.087679443359375,0.00013315794058144093,0.0003994738217443228,-0.0007989476434886456
1772651402078683000,8.097682861328124,-0.0003994738217443228,-0.0006657897029072046,-0.0013315794058144093
1772651402088686000,8.10768603515625,-0.0003994738217443228,0.0003994738217443228,-0.0007989476434886456
1772651402098689300,8.117689208984375,0.0011984214652329683,-0.00013315794058144093,0.0013315794058144093
1772651402108692700,8.127692626953126,-0.0014647373463958502,-0.0011984214652329683,0.0007989476434886456
1772651402118696000,8.137696044921874,0.00013315794058144093,0.0003994738217443228,-0.0007989476434886456
1772651402128699400,8.147699462890625,0.0011984214652329683,-0.00013315794058144093,0.00026631588116288185
1772651402138702600,8.15770263671875,0.0006657897029072046,0.0009321055840700865,-0.0007989476434886456
1772651402148705800,8.167705810546876,0.0011984214652329683,0.0014647373463958502,-0.0007989476434886456
1772651402158709200,8.177709228515624,-0.0003994738217443228,0.0009321055840700865,0.00026631588116288185
1772651402168712400,8.18771240234375,0.0006657897029072046,-0.00013315794058144093,-0.00026631588116288185
1772651402178715600,8.197715576171875,-0.0009321055840700865,-0.001731053227558732,0.001864211168140173
1772651402188719000,8.207718994140626,0.0006657897029072046,0.0003994738217443228,-0.00026631588116288185
1772651402198722300,8.217722412109374,-0.0014647373463958502,0.0025300008710473776,0.001864211168140173
1772651402208725800,8.227725830078125,-0.0003994738217443228,0.0014647373463958502,0.0007989476434886456
1772651402218729000,8.23772900390625,0.0006657897029072046,0.00519315991550684,0.00026631588116288185
1772651402228732200,8.247732177734376,-0.0014647373463958502,0.0014647373463958502,-0.0023968429304659367
1772651402238735600,8.257735595703124,-0.0003994738217443228,0.0003994738217443228,-0.0007989476434886456
1772651402248738800,8.26773876953125,0.00013315794058144093,0.0003994738217443228,-0.0007989476434886456
1772651402258742000,8.277741943359375,0.00013315794058144093,-0.0011984214652329683,-0.0007989476434886456
1772651402268745200,8.2877451171875,-0.0003994738217443228,-0.003328948514536023,-0.0013315794058144093
1772651402278748400,8.29774853515625,-0.0003994738217443228,-0.003328948514536023,-0.00026631588116288185
1772651402288751600,8.307751708984375,0.00013315794058144093,-0.0022636849898844957,-0.0023968429304659367
1772651402298754800,8.3177548828125,0.0011984214652329683,-0.0006657897029072046,-0.001864211168140173
1772651402308758000,8.327758056640626,-0.0003994738217443228,-0.0011984214652329683,-0.001864211168140173
1772651402318761200,8.33776123046875,0.00013315794058144093,-0.0011984214652329683,-0.00026631588116288185
1772651402328764400,8.347764404296875,0.00013315794058144093,-0.00013315794058144093,-0.0007989476434886456
