time,seconds_elapsed,z,y,x
1772649721036554200,0.02655419921875,-0.630575492592156,-6.941425403565168,0.8758084365397691
1772649721046595300,0.03659521484375,-0.633168577825278,-6.8807099458396435,0.8254809557072817
1772649721056636400,0.046636474609375,-0.5144106809757649,-6.199045778784155,0.7804965894684195
1772649721066677200,0.05667724609375,-0.7607686834305525,-5.129469504857063,0.8381330781400204
1772649721076719400,0.06671923828125,-0.70373673652336,-3.6372488333731887,0.7080677514649927
1772649721086760200,0.07676025390625,-0.7967091808617115,-1.7683628406971692,0.36377179121896625
1772649721096801300,0.08680126953125,-0.8325304358273744,0.4096446307301521,0.2884934090033173
1772649721106842400,0.09684228515625,-0.4088635633550584,2.7128274648338553,0.031956688492000104
1772649721116883200,0.10688330078125,-0.7276916126064956,4.919759417450428,0.2702130714252591
1772649721126924300,0.11692431640625,-2.3092706295847893,6.9301634203165765,1.5898409416280685
1772649721136966100,0.126966064453125,-2.6228327211320397,7.812666386058926,2.2105689939446744
1772649721147007200,0.13700732421875,-3.2486312085807323,6.199791044193506,2.361518995477259
1772649721157048300,0.14704833984375,-3.3351007007658477,4.5133974616527555,2.4014522158063945
1772649721167089200,0.157089111328125,-2.65496681201756,4.832214989510178,2.1471811021395024
1772649721177130200,0.167130126953125,-2.5349580383241177,7.0666375911206005,2.725141002961993
1772649721187171300,0.17717138671875,-3.1930981219291685,10.154171644294262,4.242800651606917
1772649721197213400,0.18721337890625,-3.2827105883151293,10.133449174261093,4.276575495436787
1772649721207254500,0.197254638671875,-3.349067851319909,10.119100330913067,4.299532592654228
1772649721217295400,0.20729541015625,-3.3852480027258394,10.111019900310039,4.3149148707032206
1772649721227336400,0.21733642578125,-3.391086207360029,10.108901592981814,4.322344728443026
1772649721237377300,0.227377197265625,-3.36825653591454,10.112366638743877,4.3220869542896745
1772649721247419400,0.23741943359375,-3.3221114553332325,10.120203908240795,4.3176407885357735
1772649721257460500,0.24746044921875,-3.2616882585525513,10.130503183937073,4.313668085512519
1772649721267501300,0.257501220703125,-1.9683910536535083,10.854143621456622,1.8840169263124464
1772649721277542400,0.26754248046875,-0.8807059993229805,8.565646899831295,1.2265363295294345
1772649721287583200,0.277583251953125,0.5082809460490941,6.237474585899711,0.6471921347416937
1772649721297624300,0.287624267578125,2.2971242647171017,4.203367051362991,0.14998933980688453
1772649721307666400,0.29766650390625,3.8704204603880643,2.105176043972373,-0.5110664851143956
1772649721317707500,0.30770751953125,4.959598091363906,-0.2862958989590406,-1.25829603414461
1772649721327748600,0.31774853515625,5.689310542273521,-2.72456875603199,-1.9167140579082071
1772649721337789400,0.32778955078125,6.2595993239462375,-4.848468789696693,-2.7241423473134634
1772649721347830500,0.33783056640625,6.594454963412881,-6.615578999984264,-3.4148978755801913
1772649721357871600,0.34787158203125,6.822516115546226,-7.735715832847356,-4.1625259224087
1772649721367913500,0.35791357421875,7.420907540631294,-8.383623276251553,-4.604571770527959
1772649721377954600,0.36795458984375,7.706772646957636,-9.098795160633324,-5.293969162183999
1772649721387995400,0.377995361328125,6.572712502682209,-9.718086750406027,-6.281606573092937
1772649721398036500,0.388036376953125,5.242160064491629,-10.54144428421855,-7.0607391807317725
1772649721408077600,0.39807763671875,3.9386479011788964,-11.607664817976952,-6.9344561490744345
1772649721418118400,0.408118408203125,1.7571822521217166,-12.438667898106575,-6.047585051250457
1772649721428160500,0.418160400390625,-0.7803488515608012,-12.648443451964855,-4.752628827098012
1772649721438201300,0.428201416015625,-1.7742355321228502,-12.388988213658331,-2.989188245233893
1772649721448242400,0.438242431640625,-1.6173162469223141,-11.588132434511184,-1.6584353160351515
1772649721458283500,0.448283447265625,-1.1888127480737865,-10.490316154527664,-0.8380947919562458
1772649721468324400,0.458324462890625,-0.5233087115719914,-9.58169265910089,-0.36299905328080057
1772649721478365400,0.468365478515625,0.20938918488919733,-9.357677567487954,-0.27381621048375965
1772649721488407300,0.4784072265625,1.0415725608445703,-9.628972296670078,-0.7063606552861631
1772649721498448400,0.488448486328125,1.7551283883318305,-9.780819393172859,-1.4247092700079083
1772649721508489500,0.498489501953125,2.0642793854385615,-9.648706924709677,-2.0047231807507573
1772649721518530300,0.5085302734375,2.016302413254976,-9.416240231093763,-2.326313242061436
1772649721528571400,0.5185712890625,1.8522411473453044,-9.203344499388336,-2.3837569846399127
1772649721538613500,0.528613525390625,1.7130391590125857,-9.003775866767764,-2.345739534804225
1772649721548654600,0.538654541015625,1.5724059688329697,-8.902312803590297,-2.248370024550706
1772649721558695700,0.54869580078125,1.411923145931959,-8.833736110970378,-1.9238503395289182
1772649721568736500,0.558736572265625,1.8168946702845394,-8.549643275013565,-1.8635031305938958
1772649721578777600,0.568777587890625,2.298369880864024,-8.117800841000676,-1.8454393583759665
1772649721588818400,0.578818359375,1.6913329386390745,-7.364551447159052,-1.9890717303715646
1772649721598860500,0.588860595703125,2.0859021653123198,-5.950934356790781,-2.6564275322198867
1772649721608901400,0.5989013671875,2.135220030710846,-4.098527789750695,-1.965629772246629
1772649721618942500,0.6089423828125,0.7428779296919703,-1.8333190047323702,0.020547990249097346
1772649721628983600,0.618983642578125,-0.5971183364093303,1.5980559583961962,0.9957482366502285
1772649721639024400,0.6290244140625,4.67183971863687,8.796551166436076,-3.301612272661924
1772649721649065500,0.6390654296875,4.680893378186226,8.794373237875103,-3.277823985317349
1772649721659107300,0.649107421875,4.751149986717104,8.803249202769994,-3.2660289181053637
1772649721669148400,0.6591484375,4.828914194399118,8.812493416455387,-3.2445448160499333
1772649721679189500,0.669189453125,-2.1186593565322456,16.17977165822983,10.403596486973761
1772649721689230300,0.679230224609375,-2.963322567093372,7.801686726883053,4.768757247339189
1772649721699271400,0.689271484375,-4.02354590626359,2.0264713405698536,1.7218915969014166
1772649721709312500,0.6993125,-2.209182946413755,0.8306313242077827,-1.0882404962562024
1772649721719354400,0.709354248046875,-3.6076734870597718,2.3589859698683022,-2.9709201826155183
1772649721729395500,0.7193955078125,-3.8229198735445737,4.445165636947751,-3.627632279244065
1772649721739436300,0.729436279296875,-3.309443112418055,6.706015642234683,-2.428131110025942
1772649721749477400,0.739477294921875,-4.106918016955256,8.538405841684341,1.9177857787929473
1772649721759518500,0.7495185546875,-4.777334813809395,9.237022897106408,5.994504618448019
1772649721769559300,0.759559326171875,-4.791244388957321,9.236316210141778,5.981513034927844
1772649721779601700,0.7696015625,-4.7962893973872065,9.239206086364389,5.957170036309957
1772649721789642500,0.779642578125,-4.794019406628609,9.246752848482132,5.91365355066657
1772649721799683600,0.78968359375,-4.783744680851697,9.259352802336215,5.8510921728134155
1772649721809724700,0.799724609375,-4.7637972868442535,9.275471577966213,5.782184056282043
1772649721819765500,0.809765625,-4.732450254683196,9.293577143499254,5.718135654741525
1772649721829806600,0.819806640625,-2.659474644830823,9.895061273902654,5.349740149244666
1772649721839848400,0.829848388671875,-1.9984493611782788,7.669252186858653,5.06097347625792
1772649721849889500,0.8398896484375,-1.2104172616384923,6.055125968149304,3.901762231852114
1772649721859930600,0.8499306640625,-0.018414631482213735,4.784321603956818,2.1562945290520785
1772649721869971500,0.859971435546875,0.8472038349546491,3.4759617083519694,0.28967224352434273
1772649721880012500,0.870012451171875,1.5711574300765991,2.291560785371065,-1.0691264843329786
1772649721890053600,0.8800537109375,2.236940721911192,1.094276999941468,-2.129178850850463
1772649721900095500,0.890095458984375,2.7709914845108985,-0.22979133692681789,-2.901683272521198
1772649721910136600,0.900136474609375,2.997202624863386,-1.733948529919982,-3.6373049474745986
1772649721920177400,0.910177490234375,3.304432590779662,-3.3328748414099216,-4.3309296014368535
1772649721930218500,0.920218505859375,3.616985213023424,-4.992878429675102,-4.944901457491516
1772649721940259600,0.930259521484375,4.095435668954253,-6.5303334966361515,-5.572067726162076
1772649721950300400,0.940300537109375,4.566768986356258,-8.042962165376544,-6.05657032173872
1772649721960341500,0.950341552734375,4.627948554462194,-9.507391159093379,-6.385004988247156
1772649721970383400,0.96038330078125,4.403271784070134,-11.182379550522565,-6.589691694533824
1772649721980424400,0.970424560546875,3.917237741142511,-12.716295921963452,-6.4814440857827655
1772649721990465300,0.98046533203125,3.085145112210512,-13.69084354967475,-5.552973734113574
1772649722000506400,0.99050634765625,2.113061244264245,-13.84365978347063,-4.331671359714865
1772649722010547500,1.00054736328125,1.169556405070424,-13.061412843203543,-3.0359082030937072
1772649722020589300,1.01058935546875,0.7708896799504756,-11.075085881495475,-1.6360110105201602
1772649722030630400,1.02063037109375,0.7031102751880883,-9.380790147528051,-0.6175400699302553
1772649722040671200,1.030671142578125,1.0318716894328595,-8.650852655690908,-0.06534501722231507
1772649722050712300,1.04071240234375,1.3051824346125125,-8.636071266144514,-0.06685103787109255
1772649722060753400,1.05075341796875,1.5063609866477548,-8.840583200386167,-0.40833457104489207
1772649722070794200,1.060794189453125,1.613250604918599,-9.049697075465321,-0.8169953053042293
1772649722080836600,1.070836669921875,1.6360057498231528,-9.253435687246919,-1.1896820782542228
1772649722090877400,1.08087744140625,1.7111963076248764,-9.336218599873781,-1.4919105826213954
1772649722100918500,1.09091845703125,1.9332944597005843,-9.272795052233338,-1.7045767433546481
1772649722110959600,1.100959716796875,2.1795751591354606,-9.173839587962627,-1.8452765690296886
1772649722121000400,1.11100048828125,2.353830632931739,-9.303480697876214,-1.8457748739406465
1772649722131041500,1.12104150390625,2.527017892974615,-9.209034235462546,-1.6942098092496394
1772649722141083400,1.13108349609375,2.593055714766681,-8.518201842567324,-1.7257710686832666
1772649722151124500,1.14112451171875,2.4613147099643946,-7.584860085469484,-1.8292353886805475
1772649722161165600,1.15116552734375,2.2641613217920065,-6.097715402075648,-1.9156573884621262
1772649722171206400,1.161206298828125,2.773360551729798,-4.427893599629402,-2.325872804817557
1772649722181247500,1.17124755859375,1.7870399225078522,-2.792982951566577,-1.90763073387295
1772649722191288600,1.18128857421875,0.758984722623229,-0.4397171129107475,-0.9487209664069115
1772649722201330400,1.191330322265625,-0.3510065638005733,2.965169071742892,-0.03698379593901336
1772649722211371500,1.20137158203125,-0.0012624211512506007,7.678987983453274,-0.5314171261604875
1772649722221412400,1.211412353515625,0.01482420577481389,7.6818509716689585,-0.5331869853772223
1772649722231453400,1.221453369140625,0.08184943116903305,7.697485763174295,-0.5669162364996969
1772649722241494500,1.23149462890625,0.1957405987650156,7.7289231039673085,-0.6492689410157502
1772649722251535400,1.241535400390625,-5.223930580317973,11.65203470557928,6.787422005811333
1772649722261577500,1.251577392578125,-2.06155478278026,6.834553759342431,2.29337441066429
1772649722271618300,1.261618408203125,-3.813604932710528,4.9109138476938,3.201198426276445
1772649722281659400,1.271659423828125,-5.229527377411723,3.761401867264509,6.558081919783353
1772649722291700500,1.281700439453125,-5.0289422612249846,3.8049335504770276,7.312864514541626
1772649722301741300,1.2917412109375,-3.658237260866165,6.174854755857586,6.7073483521431685
1772649722311782000,1.301781982421875,-3.8017490752220153,9.653872344648837,7.479567819392681
1772649722321824000,1.311823974609375,-3.818194306327402,9.649383216536044,7.484140534135699
1772649722331865000,1.321864990234375,-3.8395062666863202,9.640767948403955,7.503275442716479
1772649722341906200,1.33190625,-3.8579298121273515,9.633048752328753,7.5214529044419525
1772649722351947000,1.341947021484375,-3.8724151413366195,9.627641340327262,7.532869785991311
1772649722361988000,1.351988037109375,-3.889251417586207,9.623471945688127,7.536317880618572
1772649722372029200,1.362029296875,-3.9120577081561088,9.619061728030443,7.535361018285155
1772649722382070000,1.372070068359375,-4.033725939494371,11.069026727586984,1.2273476459123194
1772649722392112000,1.382112060546875,-3.500347377067804,9.346893723145127,1.1420679480336606
1772649722402153000,1.392153076171875,-2.170088807257265,7.608752417710423,1.1287260897710918
1772649722412194000,1.402194091796875,-0.34794001583680506,5.927429562562704,0.8117047976806759
1772649722422235100,1.412235107421875,1.51089731490314,4.449638982969522,0.11314268731623887
1772649722432276000,1.42227587890625,2.8329081347197294,3.145606887435913,-0.6559545562595128
1772649722442317000,1.432317138671875,3.0965257534027097,1.9404086756199597,-1.3127934941381216
1772649722452359000,1.44235888671875,3.1746734074443577,0.5380389554530381,-1.8979815926484762
1772649722462400000,1.45239990234375,3.268139042127132,-1.361366678649187,-2.423528292405605
1772649722472440800,1.46244091796875,3.3792847104072568,-3.4891169580012558,-3.2777626105189324
1772649722482482000,1.47248193359375,3.822804722732305,-5.206018491530418,-4.528891383382677
1772649722492523000,1.48252294921875,4.263338997244834,-6.409828463858366,-5.082917012518644
1772649722502563800,1.492563720703125,4.683820079287886,-7.860226594135165,-5.612879044499993
1772649722512606000,1.50260595703125,4.770998012003302,-9.779725752717257,-6.2512418299674986
1772649722522646800,1.512646728515625,4.276470866018533,-11.371003595280646,-6.54027855206728
1772649722532688000,1.52268798828125,3.572514787656069,-12.117947751498221,-6.225695885300636
1772649722542729000,1.53272900390625,2.7108044345736504,-12.346865228199958,-5.222237804925442
1772649722552769800,1.542769775390625,1.4819206651352346,-12.168556825751066,-3.8826878212869165
1772649722562811000,1.552810791015625,0.5917712762929499,-11.767800434875488,-2.663500247085094
1772649722572852700,1.562852783203125,-0.02042319482564926,-11.339189237868785,-1.7871790387175976
1772649722582893800,1.572893798828125,-0.12956731402501462,-10.817325756669044,-1.119092876768112
1772649722592935000,1.582934814453125,0.14191300085708497,-10.34130983440876,-0.7711090217895805
1772649722602975700,1.592975830078125,0.3632780163526535,-10.359397279763222,-0.7574877620637417
1772649722613016800,1.603016845703125,0.5284720856845379,-10.1298555336833,-0.8140959306009113
1772649722623058000,1.613057861328125,0.851571967036277,-10.041699111324547,-1.1286946717195212
1772649722633100000,1.62310009765625,1.4601299813486635,-9.735982472580671,-1.2915391091853379
1772649722643141000,1.63314111328125,1.9546371074587106,-9.410456971517204,-1.342703040841967
1772649722653182000,1.643181884765625,1.9244630645997822,-9.166285227060317,-1.1969596680417656
1772649722663223000,1.65322314453125,1.5346623675025999,-8.933332795754074,-0.7736671818397939
1772649722673264000,1.66326416015625,1.4706490372754633,-8.942182457163929,-0.6062278177991509
1772649722683305000,1.673304931640625,1.8949702820032834,-8.713990372127293,-0.8829887034326791
1772649722693347000,1.68334716796875,2.587348735296726,-8.123624432587624,-1.5451380226790905
1772649722703388000,1.693387939453125,2.887629320466518,-7.125123097836971,-1.9862536042109131
1772649722713429000,1.703428955078125,2.3850544771045445,-5.676718187204003,-2.3401832158513365
1772649722723470000,1.713469970703125,2.7067607121407984,-3.909285905355215,-3.1876392720013853
1772649722733511000,1.723510986328125,3.1840123136758804,-1.8133464762836693,-3.4814079910591245
1772649722743552000,1.733552001953125,1.9961054284006357,0.594692570567131,-3.3025758569970725
1772649722753593900,1.74359375,-0.13220423839986323,3.3171564632743595,-2.9615140563666817
1772649722763635000,1.753635009765625,-1.8306851490974425,6.536213202324509,-2.0769556193992496
1772649722773676000,1.763676025390625,-1.6930602008230984,10.49153196005821,-2.2699508649788798
1772649722783716900,1.773716796875,-1.630904919552803,10.492331586003303,-2.2283767455749213
1772649722793758000,1.783758056640625,-1.5470419566042721,10.500164179325104,-2.216271004978567
1772649722803799000,1.793799072265625,-1.442929109570384,10.517075566637516,-2.2464298502683637
1772649722813840000,1.80383984375,-1.8128480252422392,10.292679951274394,8.462740652108192
1772649722823882000,1.813882080078125,-2.488324297443032,7.05647392450273,7.28750970853269
1772649722833922800,1.8239228515625,-3.9159482858538626,6.779589997011422,7.493200038903951
1772649722843964000,1.8339638671875,-3.8103193351685998,7.357324418514967,6.4502031443446874
1772649722854004700,1.844004638671875,-4.066483715236187,8.436579205891489,4.527743966913223
1772649722864045800,1.8540458984375,-4.062679062256216,8.442337331026792,4.497878990003466
1772649722874087000,1.8640869140625,-4.079764637091755,8.440675535294414,4.491512377581
1772649722884129000,1.87412890625,-4.108116286829114,8.43611334194541,4.491720175112784
1772649722894170000,1.884170166015625,-4.135944789475202,8.433232233551145,4.483259513020515
1772649722904211000,1.8942109375,-4.157267563489079,8.43463859321773,4.456670781302452
1772649722914252000,1.904251953125,-4.166275045809149,8.441417293572425,4.4114597667008635
1772649722924293000,1.914293212890625,-4.160339810541272,8.453509882426262,4.351312171991169
1772649722934334000,1.924333984375,-4.143388675740361,8.470299104663729,4.2779613968372345
1772649722944376000,1.9343759765625,-2.9243904866307973,10.98382214077115,1.149185963345319
1772649722954417000,1.9444169921875,-1.6265343032531439,9.026247810816765,1.6595888699844479
1772649722964458000,1.9544580078125,-0.06947276467680931,6.945821008175611,1.5863516382075846
1772649722974499000,1.9644990234375,0.9487795647263526,5.264388262912631,1.5784605926968156
1772649722984540000,1.974539794921875,1.6127977465845644,3.8401322896301746,1.5559258125446735
1772649722994581000,1.9845810546875,1.9979320593059062,2.2254116121590135,0.9911047947585582
1772649723004622000,1.9946220703125,2.446803954052925,0.4397247116953134,-0.11210779131054878
1772649723014664000,2.004663818359375,2.9182296259135008,-1.1528379099816084,-1.4652876563727855
1772649723024705000,2.014705078125,3.3667987383216618,-2.4742525174707173,-2.7493340717151757
1772649723034745900,2.024745849609375,4.303132662972808,-3.703434246942401,-3.7688916384980082
1772649723044787000,2.034786865234375,5.263309235504269,-5.210988096636534,-4.881229195787013
1772649723054828000,2.044828125,5.719812063521147,-6.708702104839682,-5.415723902761936
1772649723064868900,2.054868896484375,5.39818532346189,-8.323413429960608,-5.446555094355344
1772649723074911000,2.064910888671875,4.659168453112244,-9.866952785271405,-5.441668491357564
1772649723084951800,2.074951904296875,3.8317660278230905,-10.923128894877433,-5.239896211212873
1772649723094993000,2.084992919921875,2.863994762378931,-11.784688441312312,-4.924910224342346
1772649723105034000,2.095033935546875,2.243940956062078,-12.446765864366292,-4.6116281187802555
1772649723115074800,2.10507470703125,1.4407320379175246,-12.897005540335178,-4.130936605924368
1772649723125116000,2.115115966796875,0.3515612750738859,-12.625602674603462,-3.43965851508826
1772649723135158000,2.125157958984375,-0.40912089911699295,-11.659156520283222,-2.616179692983627
1772649723145199000,2.13519921875,-0.4885895726293325,-10.379878926777838,-2.0246254204422236
1772649723155240000,2.145239990234375,-0.07202770985662937,-9.486907758513093,-1.8538177490122616
1772649723165281000,2.155281005859375,0.4276807842887938,-9.274809314665198,-2.11375551013872
1772649723175322000,2.165322021484375,0.9111550597310065,-9.367472985315322,-2.3890626898325977
1772649723185363000,2.175363037109375,1.4739689754784107,-9.401949839934707,-2.6293437104612587
1772649723195405000,2.185405029296875,1.9608640191495417,-9.229400147143005,-2.8419030498191713
1772649723205446000,2.19544580078125,2.463756842419505,-9.005818770772219,-2.904852550207078
1772649723215487000,2.205487060546875,2.878662754678726,-8.774009664282202,-2.8097610678881404
1772649723225528000,2.215528076171875,3.086712799918651,-8.707861660113931,-2.8049159659445286
1772649723235569000,2.22556884765625,3.295743088367581,-8.74561183731556,-2.8600971704185008
1772649723245610000,2.23560986328125,3.268275235727429,-8.893315258142351,-2.8670374910756946
1772649723255651000,2.245651123046875,2.848800115856528,-8.925140721470116,-2.6739754638701676
1772649723265693000,2.25569287109375,2.5699007568895817,-8.636920576450228,-2.6552508896559477
1772649723275734000,2.265734130859375,1.909794780039042,-8.029245774713159,-2.8154338528275487
1772649723285774800,2.27577490234375,1.689600269627571,-6.579425736585259,-3.1591724714517593
1772649723295816000,2.28581591796875,1.5436461766861378,-4.554734849691391,-3.28085385453254
1772649723305857000,2.29585693359375,0.18337328462302685,-2.064278216394782,-1.7776500167414544
1772649723315898400,2.3058984375,-0.4048351115565747,1.421591722509265,-0.5313841737389564
1772649723325940500,2.3159404296875,2.4009780224233865,6.72813862671554,-3.1112101123154163
1772649723335981300,2.325981201171875,2.3598060540795327,6.716443512746691,-3.070435618856549
1772649723346022400,2.3360224609375,2.3919459901839493,6.71405866343677,-3.033896571010351
1772649723356063500,2.3460634765625,2.4701193631887435,6.725790602284669,-3.047860214433074
1772649723366104300,2.356104248046875,-0.7239617784284055,15.91046138086319,9.927393517708778
1772649723376145400,2.3661455078125,1.2924493558980523,8.258684644940494,5.342117399281263
1772649723386186200,2.376186279296875,-1.2996078493505716,5.558721922376751,5.670560833618045
1772649723396228600,2.386228515625,-2.9849376020520926,5.7210003965228795,7.0095537678956985
1772649723406269400,2.39626953125,-4.692043133231997,7.112065463343262,5.8927218217968935
1772649723416310500,2.406310546875,-5.378019318267703,9.826759891092777,3.5478637460023164
1772649723426351600,2.4163515625,-5.351531708836555,9.847463656425475,3.480014783135056
1772649723436392400,2.426392333984375,-5.351921000415087,9.858321735048294,3.4346468244060873
1772649723446433500,2.43643359375,-5.364201220795512,9.864705883127451,3.3995173510968684
1772649723456475400,2.446475341796875,-5.3769718550413845,9.869918649339676,3.369307214011252
1772649723466516500,2.4565166015625,-5.383808423063159,9.874896437752247,3.3446839371472596
1772649723476557600,2.4665576171875,-5.379386514967679,9.87983214058876,3.3284126013040543
1772649723486598400,2.476598388671875,-5.369329231333732,9.882813202226162,3.3238650210022924
1772649723496639500,2.486639404296875,-2.671926714646816,10.406023421859741,4.24408133906722
1772649723506680600,2.4966806640625,-0.9952700977444648,8.464775957328081,3.9011771254405376
1772649723516722400,2.506722412109375,0.7903501672238111,6.309713308158517,3.0736580880343913
1772649723526763500,2.516763427734375,1.8481278668075798,4.496403656753897,2.2992156840384004
1772649723536804400,2.526804443359375,2.4156816705584525,3.080146865531802,1.7381700931377708
1772649723546845400,2.536845458984375,2.852714658951759,1.773905861777067,0.7571572149351239
1772649723556886500,2.546886474609375,3.2980379213064905,0.28674305820465085,-0.6864215907156467
1772649723566927400,2.55692724609375,3.730131699731946,-1.3813216714411973,-2.2031923276968297
1772649723576968400,2.566968505859375,4.336415339371562,-3.2044413537204264,-3.593713058507442
1772649723587010300,2.57701025390625,5.4195437533110375,-4.9746115361005065,-5.049345582306385
1772649723597051400,2.587051513671875,5.507962041476368,-6.720842039966583,-6.734691701620817
1772649723607092500,2.597092529296875,5.72823502395153,-8.402740649175643,-7.509398309510946
1772649723617133300,2.60713330078125,5.720225320497155,-9.949037194240093,-7.453633167669176
1772649723627174400,2.61717431640625,5.322249500250816,-10.996788005328177,-7.1035542401075356
1772649723637215500,2.627215576171875,4.429378285229205,-11.794697794151306,-6.731200352373719
1772649723647257600,2.637257568359375,2.5648352901935576,-12.844342456161975,-5.914075575470924
1772649723657298700,2.647298583984375,0.5204745110593736,-14.07092890844345,-5.11983190793991
1772649723667339500,2.657339599609375,-0.9440523900739848,-14.9401129584074,-3.4989702434957026
1772649723677380600,2.667380615234375,-1.0369799723573028,-15.035135174882411,-1.1233262765541672
1772649723687421400,2.67742138671875,-0.36914369351565834,-13.865782767951488,-0.7103359886579215
1772649723697462500,2.687462646484375,1.0801182723380625,-11.469611269026995,-1.4718328402325511
1772649723707504400,2.69750439453125,1.247371027765423,-9.715291566729546,-1.1736634019978345
1772649723717545500,2.70754541015625,0.868037218016386,-8.438320496600866,-0.09196487473100423
1772649723727586600,2.717586669921875,0.6592680647216737,-7.8715365081787105,0.22434037804454562
1772649723737627400,2.72762744140625,0.9953801339901983,-7.799124767440557,-0.18551219634786248
1772649723747668500,2.73766845703125,1.408430043119192,-7.960950237122177,-0.7274278471037745
1772649723757709600,2.74770947265625,1.7233756979793309,-8.237926519072055,-1.0815158641763032
1772649723767750400,2.75775048828125,1.918309656536579,-8.461865622839332,-1.2737455322109161
1772649723777792500,2.76779248046875,1.9217082129336893,-8.570850313693285,-1.2969507589705287
1772649723787833300,2.777833251953125,1.5666840840548275,-8.498631465178727,-1.1943867488138378
1772649723797874400,2.78787451171875,1.017107251021266,-8.146592051199079,-0.7360276254057884
1772649723807915500,2.79791552734375,0.9453567506708204,-7.785116700354218,-0.4051011420816183
1772649723817956400,2.807956298828125,1.2906665641345083,-7.42332103151381,-0.7187143792942166
1772649723827997400,2.81799755859375,1.343708856883645,-6.692046153593063,-1.328428870165348
1772649723838039300,2.828039306640625,2.734206937471032,-5.516155284804105,-2.344163809920102
1772649723848080400,2.838080322265625,3.065381842598319,-3.8925481210440394,-2.5642855473563073
1772649723858121500,2.84812158203125,2.61764742744863,-1.5816092659860848,-2.0786261829599737
1772649723868162300,2.858162353515625,3.2055507762670516,1.6212912880331276,-2.8593945751070975
1772649723878203400,2.868203369140625,3.937806481918692,6.1144175305515525,-3.828806593495607
1772649723888244500,2.878244384765625,2.1727451669849454,11.561351979613303,-1.7143888200558721
1772649723898286300,2.888286376953125,2.218117509628087,11.569680247497558,-1.7340362082034348
1772649723908327400,2.898327392578125,2.320022909745574,11.588610573416947,-1.772244066044688
1772649723918368300,2.9083681640625,-5.815904539576173,17.401936786937714,7.33667326015234
1772649723928409600,2.91840966796875,-3.6526959933519363,9.813017781466245,5.775237598145008
1772649723938450700,2.92845068359375,-4.152309648820758,5.148901935079693,2.1636885848261413
1772649723948491500,2.938491455078125,-4.133120087443292,4.629848835125565,1.3563751539722084
1772649723958532600,2.94853271484375,-4.3551106874912975,5.716569136077165,1.5926066069491207
1772649723968574500,2.958574462890625,-3.991304555611312,5.952559327644109,1.632358479361981
1772649723978615600,2.968615478515625,-3.9926217756897207,6.254404677912593,3.1717133885949846
1772649723988656600,2.97865673828125,-3.9948704313993453,6.8554159301072355,5.103100553369522
1772649723998697500,2.988697509765625,-4.4965334206134076,8.1465511346668,6.698615010589361
1772649724008738600,2.998738525390625,-4.9945355492323635,10.571454807078839,7.377680977845191
1772649724018779400,3.008779296875,-4.995460847383737,10.569401966202259,7.387631293973326
1772649724028821500,3.018821533203125,-4.5295928096503015,14.619357740485666,5.474628511673211
1772649724038862600,3.028862548828125,-4.533974970257282,14.619727158319948,5.4682613147288555
1772649724048903400,3.0389033203125,-4.537856780126691,14.621027135002612,5.457513710743188
1772649724058944500,3.048944580078125,-4.5416509117126465,14.622053555440901,5.448358928906917
1772649724068985300,3.0589853515625,-3.61967810536921,10.007616808980703,3.016415274855494
1772649724079026400,3.0690263671875,-2.9774229886382817,7.7096408958703275,2.6827836242258547
1772649724089067500,3.079067626953125,-2.347497192126512,5.929943591210246,1.7151045671097933
1772649724099109400,3.089109375,-1.285685122460127,4.556887059289217,0.7178866962984204
1772649724109150500,3.099150390625,-0.05210325833335518,3.3422605093926188,-0.11664821121916175
1772649724119191300,3.10919140625,1.224913550633192,2.1656085931032893,-0.8665433261968195
1772649724129232400,3.119232421875,2.141015272986144,0.9283908566921949,-1.425095638976991
1772649724139273500,3.1292734375,2.6721143461734056,-0.41485739694237705,-1.7121100614689289
1772649724149314300,3.139314208984375,3.1487557068556544,-1.8119681736677884,-1.9639248680248855
1772649724159356400,3.1493564453125,3.6256150942027565,-3.1723142770975827,-2.2937569802410898
1772649724169397200,3.159397216796875,4.0197465139806265,-4.600542076620459,-2.618181095933914
1772649724179438300,3.169438232421875,4.140856526914239,-5.9097653110563755,-2.8373709593474863
1772649724189479400,3.1794794921875,4.107158839973807,-7.23029202979505,-3.139244951188564
1772649724199520300,3.189520263671875,3.9650913792073723,-8.763172043925524,-3.722516256292164
1772649724209561300,3.199561279296875,3.58946533793509,-10.323463212072848,-4.376858993440866
1772649724219603500,3.209603515625,3.016525749492645,-11.847388935375212,-5.121917482042313
1772649724229644500,3.21964453125,2.4930676925778386,-13.109825284194946,-5.172562212130427
1772649724239685600,3.229685546875,2.059828251248598,-13.966547327470778,-4.3546191045820715
1772649724249726500,3.2397265625,1.6364065857090055,-14.101618645739554,-3.3825697234272956
1772649724259767600,3.249767578125,0.8360106791585683,-13.120941721493004,-2.8812095165520906
1772649724269808600,3.25980859375,0.29797990701198573,-11.233144107598065,-2.3018166603170336
1772649724279849500,3.269849365234375,-0.21514080721847711,-9.524477318450808,-1.5261029212109745
1772649724289891600,3.2798916015625,-0.26452260469868777,-8.553636144042015,-1.0643998942025006
1772649724299932400,3.289932373046875,0.23672910030074415,-8.433861179104447,-1.0428485721297562
1772649724309973800,3.299973876953125,0.6913759982526302,-8.721069516733289,-1.271451868315786
1772649724320014600,3.3100146484375,1.01672672727108,-8.958170884412526,-1.5103744600728153
1772649724330055700,3.3200556640625,1.4261258588075636,-9.083714495879411,-1.6991931506201623
1772649724340096800,3.3300966796875,1.8789790782757103,-9.091430769345164,-1.8197068050958216
1772649724350138600,3.340138671875,2.209191860372573,-9.044320643123983,-1.9429579217113553
1772649724360179700,3.3501796875,2.344427137031406,-9.015518911531567,-2.0261090831287203
1772649724370220500,3.360220458984375,2.1583622752368448,-8.90678381152451,-1.9507539824150502
1772649724380261600,3.37026171875,1.652745579960942,-8.665745104396343,-1.7649487944699822
1772649724390302700,3.380302734375,1.2569452040575444,-8.210005077445507,-1.814254384908825
1772649724400343600,3.390343505859375,1.6552913189209997,-7.441419582784175,-2.355322917316109
1772649724410385700,3.4003857421875,2.668538241252303,-6.530093842661381,-2.721431627050042
1772649724420426500,3.410426513671875,2.1056717185348273,-5.37386570571959,-2.2409587253808976
1772649724430467600,3.420467529296875,0.8450280983507633,-3.625001346218586,-0.9777639594092965
1772649724440508700,3.4305087890625,0.8928396508395672,-0.7780687777996063,-0.7634538308613001
1772649724450549500,3.440549560546875,5.46981906556487,4.185951806181669,-3.795096923856437
1772649724460590600,3.450590576171875,9.581973814129828,11.778366252553463,-7.874467300933599
1772649724470631700,3.460631591796875,9.582528525403141,11.77382101033926,-7.841741089373826
1772649724480673500,3.470673583984375,9.638066288229822,11.78361058294773,-7.8606269916296
1772649724490714600,3.480714599609375,9.684503045234084,11.794172893494366,-7.890963677704334
1772649724500755500,3.49075537109375,0.7553392057277262,12.013594227576256,4.36055258628428
1772649724510796500,3.500796630859375,-2.8700416413277385,6.438528488641977,2.8386604146361347
1772649724520837600,3.510837646484375,-3.6992812189161777,4.665251572418213,2.1146936677716672
1772649724530878500,3.52087841796875,-4.940106039908528,5.273644167035818,2.439908933842182
1772649724540920800,3.5309208984375,-5.769819664749503,7.012461179774999,2.1320827555984256
1772649724550961700,3.540961669921875,-4.193398030534387,9.190343563517928,2.155341904502362
1772649724561002800,3.551002685546875,-4.220499972471594,9.186603792467713,2.1512311081826687
1772649724571043800,3.5610439453125,-4.245401189494133,9.181510268720984,2.1567459260813893
1772649724581084700,3.571084716796875,-4.255844257575273,9.179973560672998,2.15593738617748
1772649724591125800,3.581125732421875,-4.25808882163167,9.180593738397956,2.150657984469831
1772649724601167600,3.591167724609375,-4.263687372291088,9.18190891264975,2.1388008118070663
1772649724611208700,3.601208740234375,-4.278576313865185,9.18317732515037,2.1194712574370205
1772649724621249800,3.611249755859375,-4.299382370528578,9.184015529540181,2.097878288179636
1772649724631290600,3.62129052734375,-4.3157478143960235,9.184735075986385,2.080918531680852
1772649724641331700,3.631331787109375,-4.31950278301537,9.18496946926415,2.076713627336919
1772649724651372500,3.64137255859375,-2.2109147386424244,10.22584571840763,3.819636906351149
1772649724661414700,3.65141455078125,-1.5550005143932997,8.857778080815077,2.9980376143828034
1772649724671455700,3.661455810546875,-0.7681013644061983,7.178624970921874,1.7551498695112764
1772649724681496600,3.67149658203125,0.32643618616759773,5.031071089947224,0.16434315159097312
1772649724691537700,3.68153759765625,1.5899053851664064,2.611439804980159,-1.1514004245243965
1772649724701578500,3.69157861328125,2.719339038684964,0.15135668263733387,-2.161738619802147
1772649724711619600,3.70161962890625,3.3850708925932644,-2.1427362515598536,-3.0413930642455815
1772649724721660700,3.71166064453125,3.8073534711003303,-4.235511079120636,-3.63618383449018
1772649724731702500,3.72170263671875,4.063208054566383,-6.301634046599268,-3.827567991611361
1772649724741743600,3.73174365234375,4.166819820210337,-8.347214576786756,-3.981524627614021
1772649724751784400,3.741784423828125,4.613735320192575,-9.637367784571648,-4.4619396616160865
1772649724761825500,3.751825439453125,4.89646212849319,-10.611686279702186,-4.776279167276621
1772649724771866600,3.76186669921875,4.394913705569506,-11.478653822660446,-4.755907118116319
1772649724781907500,3.771907470703125,3.5190059003084895,-12.309875513976811,-4.694159102472662
1772649724791949600,3.781949462890625,3.030580578330159,-13.055757009398937,-4.580477485974133
1772649724801990400,3.791990478515625,2.596858906441927,-13.409972598373889,-4.024885045912861
1772649724812031500,3.802031494140625,1.687595359545946,-13.266525081425904,-3.1877123372375964
1772649724822072600,3.812072509765625,0.35035781756825746,-12.175006440281868,-2.534552964654565
1772649724832113700,3.82211376953125,0.3120131816048175,-10.331268917387723,-1.9910686032772063
1772649724842154800,3.83215478515625,0.2617319510668516,-8.805342375656961,-1.592227252242714
1772649724852196600,3.842196533203125,0.12728899382948874,-8.29051127731204,-1.1540059308476744
1772649724862237700,3.85223779296875,0.41367724724709987,-8.235762034514545,-0.873031665302813
1772649724872278800,3.86227880859375,0.9733068338699639,-8.362250233355164,-1.1614106541462241
1772649724882319600,3.872319580078125,1.3046382447332143,-8.634292566034198,-1.5840549055725335
1772649724892360700,3.882360595703125,1.4914308362804352,-8.951976121425629,-1.8047928752109408
1772649724902401800,3.89240185546875,1.6939970432817935,-9.147197080230713,-2.060355051601678
1772649724912443600,3.902443603515625,1.9654865643836557,-9.291743498331307,-2.3423981154218314
1772649724922484700,3.912484619140625,2.132545550804585,-9.436395130372047,-2.4639812988251446
1772649724932525600,3.922525634765625,2.15066938264668,-9.463334575223922,-2.4193192964084447
1772649724942566700,3.932566650390625,2.1086687083937226,-9.203770031324028,-2.345403434717655
1772649724952607700,3.942607666015625,2.0375978608705103,-9.148120040294527,-2.3012455824308096
1772649724962648600,3.952648681640625,2.1048411129295825,-8.569962424942851,-2.092157134053856
1772649724972690700,3.962690673828125,2.0746090562731028,-7.80562815798521,-2.094786167383194
1772649724982731500,3.9727314453125,2.992074029803276,-6.75768153206408,-2.749137964621186
1772649724992772600,3.982772705078125,4.562635832074284,-5.143962725111842,-3.4693460896044965
1772649725002813700,3.992813720703125,4.40887384186089,-3.0507658727467057,-2.6388725863069293
1772649725012854500,4.0028544921875,2.321182601174712,-0.21497429154515266,-0.9716209266096353
1772649725022895600,4.0128955078125,-1.2687959469795227,3.6607933750897645,0.0058352820247411724
1772649725032937500,4.0229375,-2.788946827918291,8.752467110037804,1.0752274315565824
1772649725042978600,4.032978515625,-2.7860867623120544,8.751378145757316,1.0857815587967634
1772649725053019600,4.04301953125,-2.8041040650397537,8.742910177141427,1.134299652119726
1772649725063060500,4.053060546875,-2.784019308388233,8.7413927583158,1.164443080644682
1772649725073101600,4.0631015625,-7.127217439767718,14.40187585003376,7.068089543494581
1772649725083142400,4.073142333984375,-3.5285306845009323,7.269265611311793,4.140001955911517
1772649725093184800,4.083184814453125,-2.646943080037832,4.1690708140075206,1.7533346367828546
1772649725103225600,4.0932255859375,-2.9977941610157486,4.746500115084648,2.5047487780213356
1772649725113266700,4.1032666015625,-4.74765396129489,5.391989975953102,4.385820298531652
1772649725123307800,4.113307861328125,-5.250292517542839,5.619353208950161,5.106753815180063
1772649725133348600,4.1233486328125,-4.8541596948146815,6.559146918666363,5.416586657071114
1772649725143389700,4.1333896484375,-5.08546085178256,9.113975194108486,6.753369514083862
1772649725153431600,4.143431640625,-5.121234760475159,9.109555624100565,6.746821699875593
1772649725163472600,4.15347265625,-5.164112363693118,9.102332687109708,6.751233086577058
1772649725173513700,4.163513671875,-5.2005134643733495,9.095547557014227,6.759716837283968
1772649725183554600,4.173554443359375,-5.224890949782729,9.090026163244247,6.771660373055934
1772649725193595600,4.183595703125,-5.237707176735997,9.085660369250178,6.786843913662433
1772649725203637500,4.193637451171875,-5.238822444501519,9.083021837440132,6.801729932627081
1772649725213678600,4.2036787109375,-5.227318469190597,9.082872784358262,6.812442465299368
1772649725223719700,4.2137197265625,-2.627688344469666,9.580321370747685,2.8161288493543863
1772649725233760500,4.223760498046875,-1.8050408586226403,7.897916565582156,1.8762255417838691
1772649725243801600,4.233801513671875,-0.2837770480059087,6.379154508653283,0.8393162965752183
1772649725253842700,4.2438427734375,1.1757355320967733,4.842295654019713,-0.4470445331893861
1772649725263884500,4.253884521484375,1.7881876312382519,3.25920988574028,-1.4678911168694495
1772649725273925600,4.263925537109375,2.290630957175046,1.5811761352658271,-2.167711702862382
1772649725283966500,4.273966552734375,2.6944863369792698,-0.3140770553320646,-2.872814028650522
1772649725294007600,4.284007568359375,3.0459494123756885,-2.2107114711552858,-3.7164378131613134
1772649725304048600,4.294048583984375,3.294641849127412,-3.93721377672255,-4.12334191301167
1772649725314089000,4.3040888671875,3.6291426838070153,-5.4715223623514175,-4.383262430742382
1772649725324131000,4.314131103515625,4.247245356056094,-7.153987373271584,-4.783799333648384
1772649725334172000,4.324171875,4.87372773411572,-8.872326246127486,-5.0290433835119
1772649725344213000,4.334212890625,4.961542211169004,-10.474985314404964,-5.017487385752797
1772649725354254000,4.344254150390625,4.52290061853528,-11.861069085681438,-4.85356523605287
1772649725364295000,4.354294921875,3.756093823984265,-12.844858004468678,-4.537746890011429
1772649725374336300,4.364336181640625,3.152973616811633,-13.387045311772823,-3.815007492984831
1772649725384378000,4.374378173828125,2.4657629215449095,-13.37906775702238,-2.826230264391005
1772649725394419200,4.384419189453125,1.6666788282454013,-12.647281422448158,-1.872166767912358
1772649725404460300,4.394460205078125,1.1731237421631813,-11.387854192316532,-1.3585627271443605
1772649725414501000,4.404501220703125,0.9520533257000148,-10.297573568534851,-1.1265281413353978
1772649725424542200,4.414542236328125,0.7690478514760732,-9.767565943846106,-0.9327388227686285
1772649725434584000,4.424583984375,0.9271861570775508,-9.452306400731205,-1.0868922965176402
1772649725444625200,4.434625244140625,0.9522687220163643,-9.259970057451724,-1.531063612358272
1772649725454666200,4.444666259765625,0.9307499870389699,-9.063049893513321,-1.9080080427527426
1772649725464707000,4.45470703125,1.034533602118492,-8.867646563878655,-2.1947397027805446
1772649725474748200,4.464748046875,1.2125772161513566,-8.725546954408287,-2.4556726124241948
1772649725484789200,4.474789306640625,1.4434291680470108,-8.712511531746387,-2.651040578484535
1772649725494831000,4.4848310546875,1.6512578256212174,-8.887292344591021,-2.7528543547958133
1772649725504872200,4.4948720703125,1.80523214341104,-8.991482202383875,-2.6643939810544253
1772649725514913000,4.5049130859375,1.9215759648561477,-9.011227351817489,-2.5169474575981496
1772649725524954000,4.5149541015625,1.8232213890880344,-9.017328591302038,-2.336869561258703
1772649725534995200,4.5249951171875,1.5526561432242392,-8.70271669844091,-2.1921837346874176
1772649725545037000,4.535037109375,1.6585625956766306,-8.14009801300466,-2.382814443092793
1772649725555078100,4.545078125,2.1189812819629905,-6.857199890914559,-2.6411107206225393
1772649725565119000,4.555118896484375,2.527846160492301,-5.156465063810348,-3.2952836541622874
1772649725575160000,4.56516015625,2.435544308891892,-3.004737696543336,-2.9864105972141024
1772649725585201200,4.575201171875,2.095468304428458,-0.546133414581418,-1.9579908018007874
1772649725595242000,4.585241943359375,2.1008792235612868,2.665157366642356,-2.0753616282060743
1772649725605284000,4.5952841796875,0.92351360604465,7.1057573031097645,-2.0448592301756143
1772649725615325200,4.6053251953125,0.9190233819533139,7.104463171645999,-2.035873521295935
1772649725625366300,4.6153662109375,0.9957423914313316,7.112341942197084,-2.0446939566113054
1772649725635407000,4.625406982421875,1.095724276140332,7.124951832923292,-2.069891380101442
1772649725645448200,4.6354482421875,1.1832517529457807,7.139128826835751,-2.112705270433426
1772649725655489300,4.6454892578125,-1.2045863635279237,9.73456676056385,4.026098513355851
1772649725665531100,4.65553125,-3.7637317715167997,8.222843516230583,6.282995397102832
1772649725675572200,4.665572265625,-4.604589890706539,7.360473822456598,6.813591635334491
1772649725685613000,4.675613037109375,-4.009883583875,7.378349670886993,4.86198556613475
1772649725695654100,4.685654052734375,-4.0492759753257035,8.800220210337638,3.4285210350021718
1772649725705695200,4.6956953125,-4.036427015146613,8.804728627672791,3.41079745452404
1772649725715737000,4.705737060546875,-4.032335361918807,8.804480205869675,3.4167198303103445
1772649725725778200,4.715778076171875,-4.02638025290668,8.802757035338878,3.4348283184528348
1772649725735819000,4.725819091796875,-4.011220677697659,8.80251036710143,3.452714103755355
1772649725745860000,4.735860107421875,-3.9909868679642675,8.803758905857801,3.465977489954233
1772649725755901200,4.745901123046875,-3.9760084945410488,8.80495600668788,3.4741242637917398
1772649725765942000,4.75594189453125,-3.969969214376807,8.805773168289662,3.475080249342322
1772649725775984000,4.765984130859375,-3.9722739841878414,8.80683699812889,3.464908983939886
1772649725786025000,4.77602490234375,-2.578691381588578,11.104814664804934,2.709577523127198
1772649725796066000,4.786066162109375,-2.0623674143373965,9.322384720310568,2.857632826131582
1772649725806107100,4.796107177734375,-1.0455606075674295,7.323533208072185,2.77670489372164
1772649725816148000,4.80614794921875,0.210415605327487,5.455965312257409,2.1863423151828347
1772649725826190300,4.8161904296875,1.6588059029132127,3.62258727081418,1.3011666230998933
1772649725836231200,4.826231201171875,2.7962609503239393,1.8444962323069571,0.4329804981321096
1772649725846272300,4.836272216796875,3.283089943021536,0.1410860485136509,-0.2219347782075405
1772649725856313300,4.846313232421875,3.6950253150373693,-1.545897901135683,-1.0426168092004955
1772649725866354200,4.856354248046875,3.9326305405855178,-3.2112925347894428,-2.1758380184337494
1772649725876395300,4.866395263671875,4.0255969935745,-4.756451015734672,-3.0990202005669474
1772649725886437000,4.87643701171875,3.902632877206802,-6.043933543005585,-3.9446950723886487
1772649725896478200,4.886478271484375,3.8061101930409666,-7.242854574248194,-4.841172202947735
1772649725906519300,4.896519287109375,3.863195769831538,-8.307281794849038,-5.7276949257254595
1772649725916560100,4.90656005859375,4.0793759300351145,-9.469086270618439,-6.534593492168188
1772649725926601200,4.916601318359375,4.011770712795854,-10.799923370969294,-7.016918159183859
1772649725936643000,4.92664306640625,3.4653725097984074,-12.023640989816188,-6.94530078369379
1772649725946684200,4.93668408203125,2.973570989385247,-12.737849582123756,-6.397416726052761
1772649725956725200,4.946725341796875,2.5252391928642988,-12.794391553556919,-5.33040942583084
1772649725966766000,4.95676611328125,2.1765181096524,-12.11146189661026,-3.991391357111931
1772649725976807200,4.96680712890625,1.8286331850036979,-10.745068329709767,-2.9506884187087414
1772649725986849000,4.97684912109375,1.0451093566685914,-9.573515782386064,-2.0137986137405037
1772649725996890000,4.98689013671875,0.5846623210705817,-9.19557795704007,-1.1802217376001178
1772649726006931000,4.996930908203125,0.41921091597676274,-9.21605551240146,-0.9680269937708973
1772649726016972000,5.006971923828125,0.3833247790813446,-9.410835741701721,-1.2280286139138041
1772649726027013000,5.01701318359375,0.5443005000658333,-9.572674655386805,-1.5819064953669906
1772649726037054000,5.027053955078125,0.8031319073855876,-9.58581412294507,-1.8300448053672909
1772649726047096000,5.037095947265625,1.1813948730327188,-9.476384610933065,-2.0344427578404543
1772649726057137000,5.047136962890625,1.4339270340777932,-9.35742271594405,-2.2054932981155813
1772649726067178000,5.057177978515625,1.5500029983669519,-9.116543583291769,-2.0513943310327827
1772649726077219000,5.067218994140625,1.2288345234692095,-9.188506995740532,-1.9113288577385246
1772649726087260000,5.077260009765625,0.7959734139330684,-9.152584033966065,-1.5423279336944222
1772649726097302300,5.08730224609375,0.7352437815517187,-8.92026697795391,-1.1765364732161163
1772649726107343000,5.097343017578125,1.0749702419251204,-8.508678227418661,-1.1721261094279587
1772649726117384200,5.10738427734375,1.2202747849166393,-7.750232433977723,-1.2404913512542843
1772649726127425300,5.11742529296875,1.3847697660684586,-6.587277619129419,-1.5523510227978228
1772649726137466000,5.127466064453125,2.038763397518545,-4.760018352827429,-2.0479944594614206
1772649726147508200,5.13750830078125,2.1325585564166305,-2.48914905782938,-2.121064225716889
1772649726157549000,5.147549072265625,1.1514734897606074,0.07418693371713161,-1.2925496014021336
1772649726167590100,5.157590087890625,0.6629501142352819,3.1629584197312592,-0.9448403255812823
1772649726177631200,5.16763134765625,0.46656427636928854,7.233984454572201,-0.9949664386227727
1772649726187672000,5.177672119140625,0.4618506918508559,7.233290627089143,-0.9938745517328381
1772649726197713200,5.187713134765625,0.4625432772248983,7.228405193135142,-0.9602502222895621
1772649726207755000,5.197755126953125,0.4812981004469096,7.225104982545972,-0.9225254717901349
1772649726217796000,5.207796142578125,-3.0751760913819073,11.372467238092423,5.16498388583064
1772649726227837200,5.217837158203125,-3.128738170221448,7.162843464422226,5.499000736385583
1772649726237878000,5.2278779296875,-3.893113938233256,5.385462035489082,5.372120907878875
1772649726247919000,5.237919189453125,-3.8771155741125343,6.141792444211244,4.785412906324863
1772649726257961000,5.2479609375,-3.817120831876993,7.35899673564136,3.535348547822237
1772649726268002000,5.258001953125,-4.233817719206214,8.327201131805777,2.6206702824011443
1772649726286829300,5.276829345703125,-4.453337837487459,8.652706759124994,2.830533222281933
1772649726296870100,5.2868701171875,-4.333092332428693,8.813556661772727,3.96738971927762
1772649726306911200,5.2969111328125,-4.174534924632311,9.481518466690183,5.40667024321258
1772649726316951800,5.306951904296875,-4.4568484759569165,10.368656106495857,6.185307176288962
1772649726326992600,5.31699267578125,-4.1184377743572,11.446257281446456,5.868808446767926
1772649726337033700,5.32703369140625,-3.4847271986097095,12.572328180533647,4.669662082336843
1772649726347075600,5.33707568359375,-3.0219910291612146,13.248323069781064,3.211415868908167
1772649726357116700,5.34711669921875,-2.8713363573133943,13.367359783571958,2.2400986014202235
1772649726367157800,5.35715771484375,-3.1975515942066908,12.841755362278223,2.22966561634168
1772649726377198600,5.367198486328125,-3.47187648486495,11.749703637170791,2.4985955160886046
1772649726387239700,5.37723974609375,-3.180071467095613,10.248382544386386,2.4778686621412636
1772649726397281500,5.387281494140625,-2.321777644458413,8.750880717629194,2.196349914456159
1772649726407322600,5.397322509765625,-1.3032090887129306,7.3412237630635495,1.7026836230844258
1772649726417363700,5.40736376953125,-0.45397579375728964,6.008698563495278,1.2180454184293745
1772649726427404500,5.417404541015625,0.559925208568573,4.641652670165896,0.6448932101495564
1772649726437445600,5.427445556640625,1.759974367058277,3.0433003591716288,-0.11769976609870791
1772649726447486700,5.43748681640625,2.8864561850339174,1.2501286559104918,-0.9535890108346938
1772649726457528800,5.44752880859375,3.73260364280343,-0.8454477850675582,-1.7889380112141369
1772649726467570000,5.45756982421875,4.301381143130362,-3.090393534258008,-2.4540952801048754
1772649726477610800,5.46761083984375,4.50294445669949,-5.136857277020812,-2.921269139739871
1772649726487651800,5.47765185546875,4.590044063481688,-7.001905298969149,-3.4849300277054307
1772649726497693000,5.48769287109375,4.4956268271625035,-8.442184186291694,-4.29766446069479
1772649726507734800,5.49773486328125,4.504637816613912,-9.45889922312498,-5.025314133855701
1772649726517776000,5.50777587890625,4.258738225451111,-10.589252329576015,-5.205051107802987
1772649726527816700,5.517816650390625,3.7097459143072364,-11.961326280200481,-5.282306196919083
1772649726537857800,5.52785791015625,3.328945685267448,-13.142245206284523,-5.429399376893043
1772649726547899000,5.53789892578125,2.878853308814764,-13.877572574466466,-5.114540815794467
1772649726557940700,5.547940673828125,2.01774968945384,-13.85425365819931,-4.2874446799755095
1772649726567981800,5.55798193359375,1.2040174775987862,-12.686634943193196,-3.083624770775437
1772649726578022700,5.568022705078125,0.7103320431351662,-10.820587388813495,-2.043568167451769
1772649726588063700,5.578063720703125,0.5135300987489522,-9.400525944611429,-1.3127080078117548
1772649726598104800,5.588104736328125,0.7419454711474478,-8.6343831669271,-1.016453317157179
1772649726608146700,5.598146728515625,0.9121680361658334,-8.450769059285522,-1.0494419790454208
1772649726618187800,5.608187744140625,1.0400830529391765,-8.516352415308356,-1.3334616036355496
1772649726628228600,5.618228515625,1.226000761348009,-8.587682206028699,-1.6824340312600135
1772649726638269700,5.628269775390625,1.4486924954026936,-8.539795250216127,-2.054841548877209
1772649726648310800,5.638310791015625,1.7534066791057585,-8.559187348428368,-2.4890999579906463
1772649726658351600,5.6483515625,1.9748716478444635,-8.626002876594661,-2.749586877432465
1772649726668393700,5.658393798828125,2.1694500709623097,-8.699742066544294,-2.809394572663307
1772649726678434800,5.668434814453125,2.3663410088062284,-8.816510835403204,-2.7803596168369054
1772649726688476000,5.678475830078125,2.195456618878245,-8.837939992401003,-2.5865073160365224
1772649726698516700,5.688516845703125,1.8401598105378447,-8.604897544723748,-2.3060830855898558
1772649726708557800,5.698557861328125,1.9011967553026974,-8.038813813525438,-2.137961438373476
1772649726718599700,5.708599609375,1.8590292000502346,-7.012656994608045,-2.218897992481291
1772649726728640800,5.718640869140625,2.4521219342052936,-5.4812908921718595,-2.9076813438922167
1772649726738681900,5.728681884765625,2.896877625805139,-3.621587738382816,-3.1225597738474606
1772649726748722700,5.73872265625,1.7320803979605435,-1.1900953352302313,-2.2642186049371955
1772649726758763800,5.748763671875,1.4927954026319086,1.8080214818686247,-2.045220172442496
1772649726768805600,5.7588056640625,2.585517428216338,5.555166860243678,-2.2355963215649126
1772649726778846700,5.7688466796875,3.7379315598279237,10.32577441162467,-2.8094474718943236
1772649726788887800,5.7788876953125,3.779169579145312,10.326358933514356,-2.758397960397601
1772649726798928600,5.7889287109375,3.8605069691389797,10.33990815091729,-2.773681454247236
1772649726808969700,5.7989697265625,-3.696421153309941,13.500536081874369,9.654922145962715
1772649726819010800,5.8090107421875,0.8728395037315786,6.264997968119382,5.51868275745511
1772649726829052700,5.819052734375,0.6447394808925688,3.1746307373464107,2.9852327856063843
1772649726839093800,5.82909375,-2.279337263613939,4.3503684614002704,3.857446120263636
1772649726849134600,5.839134521484375,-4.58202033150196,5.907123856636882,4.939745974424481
1772649726859175700,5.84917578125,-5.310370846408605,6.388508027932048,4.198535685683787
1772649726869216800,5.859216796875,-4.531298444524407,8.014785872206092,2.560389708961546
1772649726879258600,5.869258544921875,-4.5646781515568495,8.006912362352013,2.575571496002376
1772649726889299700,5.8792998046875,-4.58901530495584,8.000962514036893,2.5890017632007596
1772649726899340800,5.8893408203125,-4.602072939449548,7.996850987064838,2.6037732158750293
1772649726909382000,5.8993818359375,-4.60628500418663,7.994774180790782,2.6146143433630464
1772649726919423000,5.909423095703125,-4.605535647124052,7.994659614500403,2.6165596322119233
1772649726929464800,5.91946484375,-4.604842404162883,7.995368639552593,2.6118200364693998
1772649726939506000,5.929505859375,-4.606360407510399,7.995828073757886,2.60608499994874
1772649726949546800,5.939546630859375,-4.608922366952896,7.996260035434365,2.599188226172328
1772649726959587800,5.949587890625,-4.6116626055717465,7.997093563649058,2.588938050314784
1772649726969629000,5.95962890625,-3.6796389453351495,9.783443896457552,2.4772347481518984
1772649726979669800,5.969669677734375,-3.1878146285682916,8.509196698334813,2.666143455070257
1772649726989712000,5.9797119140625,-2.108839242655039,7.211879590269922,2.457842649939656
1772649726999752700,5.989752685546875,-1.0858085929341614,6.057356503680348,1.8720657917559145
1772649727009793800,5.999793701171875,0.06759454971477388,4.940435125732422,1.1334399665504693
1772649727019835000,6.0098349609375,1.0474345847457647,3.648227323505282,0.26275325693860646
1772649727029875700,6.019875732421875,1.7017717689365148,2.3033687120646236,-0.5282675030231475
1772649727039917800,6.029917724609375,2.3354181934066114,0.9624375032007694,-1.2898311362236738
1772649727049958700,6.039958740234375,2.8646593637675046,-0.5749930138409137,-2.203165731950849
1772649727059999700,6.049999755859375,3.4227754770874976,-2.3049890067428347,-3.203843095566332
1772649727070040600,6.06004052734375,3.726774205997586,-4.147986524924636,-4.062551051962376
1772649727080081700,6.07008154296875,3.913557883585989,-5.725877062648534,-4.858137950795888
1772649727090123800,6.080123779296875,4.364821349644661,-6.937102864190936,-5.447224956440925
1772649727100164600,6.09016455078125,4.669964572414756,-8.520733991393447,-5.547213270890713
1772649727110205700,6.100205810546875,4.684096558141708,-10.217543169486522,-5.495909200111031
1772649727120246500,6.11024658203125,4.162304973134399,-11.389790128815173,-5.45322098198533
1772649727130287600,6.12028759765625,3.820882230237126,-12.306126390576361,-5.1180654827892775
1772649727140328700,6.13032861328125,3.791844936323166,-12.983646881955861,-4.28491574601978
1772649727150370800,6.140370849609375,2.801431630960107,-13.319852182465791,-3.221896930912137
1772649727160412000,6.150411865234375,1.38500942004323,-12.96501583124399,-1.9958545223794877
1772649727170452700,6.16045263671875,1.0666279455155134,-11.816804412019252,-0.882445244205743
1772649727180493800,6.170493896484375,1.3011147467821835,-10.497536168909072,-0.46510392149314284
1772649727190535000,6.180534912109375,1.4404922378122806,-9.53239934362173,-0.3219102331757545
1772649727200576800,6.19057666015625,1.5449797633774578,-9.210818780791758,-0.35682679438665504
1772649727210617900,6.200617919921875,1.5990807713992892,-9.330439431950449,-0.8100323344238102
1772649727220658700,6.21065869140625,1.7655127119630574,-9.437294125038385,-1.3969209532417357
1772649727230699800,6.22069970703125,1.9287481945730744,-9.41973333390653,-1.8974942475229502
1772649727240740900,6.230740966796875,2.0195751513153315,-9.299531667989491,-2.3396746818073093
1772649727250782700,6.24078271484375,2.153790729537606,-9.137807320594787,-2.757406026750803
1772649727260823800,6.25082373046875,2.3737229357510805,-9.078527448630332,-3.097422702242434
1772649727270864600,6.26086474609375,2.648104525032639,-9.090155927103757,-3.1863448482766747
1772649727280905700,6.27090576171875,2.6738585594922304,-9.122723733231425,-3.0745585440054533
1772649727290946800,6.28094677734375,2.2003648491859433,-8.90135711030066,-2.867451917095482
1772649727300987600,6.290987548828125,1.8456886569619178,-8.23843856024742,-2.6729776850044726
1772649727311029800,6.30102978515625,1.3231580901555717,-7.109034132823347,-2.5267501819491387
1772649727321071600,6.311071533203125,1.3988257639497517,-5.682531841918826,-2.7837442908391354
1772649727331112700,6.32111279296875,1.3763969283901154,-4.108091152387857,-2.7076275581032037
1772649727341153500,6.331153564453125,-0.43362946356013415,-2.16008661481142,-1.3275193541049957
1772649727351194600,6.341194580078125,-1.3841152476824818,0.4892448216676712,-0.9636647069081663
1772649727361236500,6.351236572265625,0.9941491308905184,3.8879374123781916,-1.8321980378784237
1772649727371277600,6.361277587890625,6.004450258401036,7.999893423500657,-3.192194451087713
1772649727381318700,6.371318603515625,6.055442194491625,8.012917740246653,-3.2302193535774943
1772649727391359500,6.381359375,6.140818630743026,8.037905466508866,-3.309561185839772
1772649727401400600,6.391400634765625,6.2057140045017,8.059446267187594,-3.3803538009434937
1772649727411442400,6.4014423828125,1.6465912951149047,13.743982434666156,6.283127499049901
1772649727421483500,6.4114833984375,0.35928821606412525,8.64163591453433,4.215786680214107
1772649727431524600,6.421524658203125,-2.953326073735952,8.263502858877182,6.131001001083851
1772649727441565400,6.4315654296875,-4.219135698381066,6.890570245596766,6.75551763202846
1772649727451606500,6.4416064453125,-4.280155984272063,4.523504429647327,4.108988393488526
1772649727461647600,6.451647705078125,-3.48117359778136,3.5031963367581365,1.4110818728022276
1772649727471689700,6.461689697265625,-4.970712190574408,4.316377344471216,1.68210012313053
1772649727481730800,6.471730712890625,-6.203052676337957,6.140919168508052,2.6679201093539593
1772649727491771600,6.481771728515625,-6.217275262957811,8.405313130012154,3.1649142299741504
1772649727501812700,6.491812744140625,-6.208527892878651,8.400349370124935,3.2058170259878036
1772649727511853600,6.501853515625,-6.1867836785823105,8.401050796392559,3.229881207664311
1772649727521895700,6.511895751953125,-6.151171682453155,8.407108196735381,3.239974439394474
1772649727531936800,6.521936767578125,-6.108740069437027,8.41634364259243,3.2406261813014745
1772649727541977600,6.5319775390625,-6.066065295314789,8.427384676566719,3.2316762743875382
1772649727552018700,6.542018798828125,-6.02107815259695,8.440843877598644,3.2125428271114824
1772649727562059500,6.5520595703125,-3.0394203028678892,11.049620600849389,2.6681062795758246
1772649727572100600,6.5621005859375,-2.936373185369372,9.450152437567711,2.6189637707442044
1772649727582142500,6.572142578125,-2.390836567637324,7.7838611473351715,2.5750463030844926
1772649727592183600,6.58218359375,-1.4620894448533652,6.4079597473770376,2.1034936438433824
1772649727602224600,6.592224609375,-0.4272171122997999,5.483537794315815,1.3009465506084263
1772649727612265500,6.602265380859375,0.6909726781487464,4.767046644029021,0.6640840867012738
1772649727622306600,6.612306640625,1.8693746529757975,3.8339217445522547,0.03183057789430022
1772649727632348400,6.622348388671875,3.003210340845585,2.5100498070389032,-0.8255516828559338
1772649727642389500,6.632389404296875,4.292402010121942,0.8704577231615781,-1.8935178912378847
1772649727652430600,6.6424306640625,5.178901352024078,-0.9091799602657556,-2.7067916918009516
1772649727662471400,6.652471435546875,5.686520034772157,-2.5565795030236242,-3.3907606286674734
1772649727672512500,6.662512451171875,5.951299098449945,-4.158704318293929,-3.927647783736884
1772649727682553600,6.6725537109375,5.936029048603773,-5.829123502111434,-4.362904702368378
1772649727692595700,6.682595703125,6.019845395931601,-7.304802204117179,-4.783145253653824
1772649727702636800,6.69263671875,5.778126889845729,-8.7326307751894,-4.9807045922786
1772649727712677600,6.702677734375,5.040201321864128,-10.38509753820896,-5.213032754206657
1772649727722718700,6.71271875,4.460779093404114,-11.909345917594433,-5.351134233951568
1772649727732759800,6.722759765625,3.9106329360499976,-13.124136718142031,-5.255021884152293
1772649727742801700,6.7328017578125,3.146445384086668,-13.790512715172767,-4.922357617250085
1772649727752842800,6.7428427734375,1.9807173051327467,-13.639299240398406,-4.046625168555975
1772649727762883600,6.752883544921875,1.1213242890819906,-12.457636802470683,-2.6858666849330066
1772649727772924700,6.762924560546875,0.7660663514472543,-10.805032092285156,-1.5879495749235153
1772649727782965800,6.7729658203125,0.7957546566158533,-9.723896313467622,-0.9529200255319475
1772649727793007600,6.783007568359375,0.9245828427113592,-9.293325214564799,-0.8814341674670576
1772649727803048700,6.793048583984375,1.0733701132521032,-9.07425985431373,-1.0887385089062154
1772649727813089500,6.803089599609375,1.2868494900643825,-8.825510718938707,-1.1272395044751464
1772649727823130600,6.813130615234375,1.5422002156615255,-8.698466055259107,-1.146186050876975
1772649727833171700,6.823171630859375,1.849688832513988,-8.686611366814374,-1.1772161260433494
1772649727843212500,6.833212646484375,2.092547448545694,-8.708826121231914,-1.2083916010297835
1772649727853254700,6.843254638671875,2.234888027165085,-8.689943141585587,-1.1525577778659761
1772649727863295500,6.85329541015625,2.230685168647766,-8.661884921836853,-1.0230902709536254
1772649727873336600,6.863336669921875,2.1044128045149146,-8.761009312933682,-0.8007599175572395
1772649727883377700,6.873377685546875,1.6259138332672416,-8.978838409388064,-0.47804348256513474
1772649727893418500,6.88341845703125,1.0521107598632573,-8.922256105944514,-0.3718940151371062
1772649727903460900,6.8934609375,1.710813884178549,-8.208904422727226,-1.3944851043969393
1772649727913501700,6.903501708984375,1.6239469171084462,-6.9411968555063,-2.2429320712804794
1772649727923542800,6.913542724609375,1.1047162686303258,-5.008255447027087,-2.838995345678925
1772649727933583600,6.92358349609375,1.7769630573906003,-1.9533482366919517,-4.2833895593658085
1772649727943624700,6.933624755859375,10.001417369818688,2.6102964801639317,-7.8713214041233055
1772649727953665800,6.943665771484375,3.2854701161563393,8.01096719070077,-4.076024573780596
1772649727963707600,6.953707763671875,3.388960301247239,8.036187556675076,-4.130022998210787
1772649727973748700,6.963748779296875,3.50447643969655,8.062900791555643,-4.167545796397328
1772649727983789600,6.97378955078125,3.6080081258416175,8.086467545104027,-4.188883767980337
1772649727993830700,6.98383056640625,0.3053583268254995,13.56582951503992,3.7394443024784323
1772649728003871700,6.993871826171875,-4.427862035447359,7.6106614662021395,6.125707570850849
1772649728013913600,7.00391357421875,-4.818022213506699,3.245002496689558,4.4795600739806885
1772649728023954700,7.01395458984375,-3.6619568659111854,2.9689561890661715,0.8614590086698531
1772649728033995500,7.02399560546875,-3.4677786941573023,4.615169152387977,-0.6963422423578798
1772649728044036600,7.03403662109375,-3.814773976489901,5.960591827452182,0.40504064406603574
1772649728054077700,7.04407763671875,-3.9448634146928785,6.962248995885252,2.1523047287635504
1772649728064118500,7.054118408203125,-3.0082950967639683,8.188184290781617,3.383570717163384
1772649728074160600,7.06416064453125,-2.667997558504343,10.198215368682146,4.209730741176009
1772649728084201500,7.074201416015625,-2.6372394321471453,10.206441929757595,4.20663394420445
1772649728094242600,7.08424267578125,-2.6141987482994793,10.214473260521888,4.1926802376538514
1772649728104283600,7.09428369140625,-2.5906413471013305,10.22269397637844,4.178912993586063
1772649728114324500,7.104324462890625,-2.5582857224196194,10.232643707984685,4.169361905908584
1772649728124366600,7.11436669921875,-2.512133335314691,10.246633654892443,4.158439529877901
1772649728134407400,7.124407470703125,-2.452724868534505,10.26517936540842,4.143424039314687
1772649728144448500,7.134448486328125,-2.7289316274166104,9.802103004220127,2.8970284324526787
1772649728154489600,7.144489501953125,-1.7853674592509865,8.267782728153467,2.5324708976835013
1772649728164530400,7.154530517578125,-1.246094285827875,7.353183080926537,2.2752704525664447
1772649728174571500,7.164571533203125,-0.6407566948667168,6.421613594198226,2.013297240089625
1772649728184613600,7.174613525390625,0.59524465149194,4.987450559407472,1.44077280831933
1772649728194654700,7.18465478515625,2.3359432401940223,3.09208630965054,0.672767159372568
1772649728204695800,7.19469580078125,4.05926019372344,0.8732803793668746,-0.3237694511763751
1772649728214736600,7.204736572265625,4.9663890666782855,-1.3773475071132182,-1.555098714070767
1772649728224777700,7.21477783203125,5.356903465002775,-3.231557324182987,-2.5796941288903352
1772649728234819600,7.224819580078125,5.351321280956268,-4.6336979117691515,-3.255562469148636
1772649728244860700,7.234860595703125,5.5223944714546205,-6.003916589915752,-3.643279930230975
1772649728254901800,7.24490185546875,5.67957708376646,-7.333846512293815,-4.177444674599171
1772649728264942600,7.254942626953125,5.649938316828012,-8.527263685423135,-4.542618295440078
1772649728274983700,7.264983642578125,5.13165795481205,-9.495895951610803,-4.683007593861222
1772649728285024800,7.275024658203125,4.5867727867260575,-10.669871926689147,-4.7577001390129325
1772649728295066600,7.285066650390625,4.046728628930449,-11.940642388612032,-4.8266497565984725
1772649728305107700,7.295107666015625,3.1441882528096436,-12.931525065052508,-4.902639648084342
1772649728315148500,7.3051484375,2.4352713371694086,-13.255864571201801,-4.641676635563373
1772649728325189600,7.315189697265625,1.8305697060242294,-12.790937029188871,-3.6386084312885996
1772649728335230500,7.32523046875,1.0169523527204989,-11.383173341023921,-2.288297399660945
1772649728345272600,7.3352724609375,0.14479074825048446,-9.997798010277748,-0.5765702000297606
1772649728355313700,7.345313720703125,0.6259671220138668,-9.150881906223297,0.3732549282267689
1772649728365354500,7.3553544921875,1.5551581891730426,-8.793833139649033,0.5457784636639058
1772649728375395600,7.3653955078125,2.0451105745881795,-8.833384228792786,0.01629705480635166
1772649728385436400,7.3754365234375,2.4220190568864344,-8.932032819071411,-0.4703497131921351
1772649728395477500,7.3854775390625,2.8677701892644167,-8.850809410846233,-0.8848657493509352
1772649728405519400,7.395519287109375,3.066291650919616,-8.547540165254473,-1.1817819726541638
1772649728415560400,7.405560546875,3.2384327629104255,-8.119276758772134,-1.6143560819424687
1772649728425601500,7.4156015625,3.3118054576352236,-7.804511721175909,-1.9199718906603753
1772649728435642400,7.425642333984375,3.134787387257814,-7.696796611866355,-2.0942939999520775
1772649728445683500,7.435683349609375,2.9827503211408852,-7.522114583221078,-2.4111614166550335
1772649728455725300,7.445725341796875,2.283541145044565,-6.944477776873112,-2.450723611714691
1772649728465766400,7.455766357421875,1.5922465414650737,-5.912526592463254,-2.4837132965162394
1772649728475807500,7.465807373046875,0.48664895995557306,-4.3152983170628545,-2.644752584256232
1772649728485848300,7.475848388671875,0.45364919215142724,-1.1174755046993494,-3.9962808827191587
1772649728495889400,7.485889404296875,6.669119451513886,2.6250223401308057,-6.282880246290564
1772649728505930500,7.495930419921875,1.2082670978672803,6.516332443812489,-2.4958111460670827
1772649728515972600,7.50597265625,1.3029711883038282,6.5442404414355755,-2.547031045694649
1772649728526013700,7.516013671875,1.357554426884651,6.566695434349775,-2.630113525789976
1772649728536054500,7.526054443359375,-1.7545307146996258,14.967830986416338,8.123710941827296
1772649728546095600,7.536095703125,0.038634704951196905,9.584030162137747,3.866052912828326
1772649728556136700,7.54613671875,-4.016024570848048,7.162053190827369,6.384019484341144
1772649728566178600,7.556178466796875,-3.936937590129673,6.042661038851738,7.543625573283434
1772649728576219600,7.5662197265625,-4.42742101368159,5.006448689866065,4.665765951681137
1772649728586260500,7.576260498046875,-4.7766322184979915,4.288756347095966,1.9807262190915642
1772649728596301600,7.586301513671875,-5.096093304955959,4.37828931850493,1.4687630773983895
1772649728606342700,7.5963427734375,-4.905529816567897,5.231776617643237,2.058316093119979
1772649728616383500,7.606383544921875,-5.261135398596525,6.8616761595457785,2.7027508919775483
1772649728626425600,7.616425537109375,-5.7034220697343345,8.251241927719116,3.189675454004109
1772649728636466400,7.626466552734375,-5.926639288967848,9.26251506575942,2.7650480659365653
1772649728646507500,7.636507568359375,-5.92100215986371,9.268360869178176,2.7195170256003736
1772649728656548600,7.646548583984375,-5.412332506757974,10.42248940349221,0.8650424201145768
1772649728666589400,7.65658935546875,-5.425986938101053,10.425490338873862,0.8020951847489923
1772649728676630500,7.666630615234375,-3.1933927209615707,8.899637446901203,0.2329388411723077
1772649728686672400,7.67667236328125,-2.6512989371597766,8.621813608211278,0.9198076641988009
1772649728696713500,7.68671337890625,-2.4017960608080027,7.972550074023008,1.6127289191320537
1772649728706754600,7.696754638671875,-2.4804531256765125,7.4256415834158656,1.934465110915154
1772649728716795400,7.70679541015625,-2.2636267765238878,7.270630469924211,2.207132297494262
1772649728726836500,7.71683642578125,-0.9443284305363893,6.720107880473137,1.8138550103276967
1772649728736878300,7.72687841796875,0.6083943481832742,5.468900781676173,0.8360115559414029
1772649728746919400,7.73691943359375,2.2481462987974283,3.5040094067066905,-0.018461539363861083
1772649728756960500,7.74696044921875,3.0747096429139376,1.7201140658348797,-0.6420493650257587
1772649728767001300,7.75700146484375,3.2649636269614097,0.3126362088739872,-1.4492708798125384
1772649728777042400,7.76704248046875,3.481242279103398,-1.0870230832904577,-2.646456757825613
1772649728787083300,7.777083251953125,3.8683831093415617,-2.4003601827859877,-3.5061209920331833
1772649728797125600,7.787125732421875,3.9951346352934833,-3.2397359544634816,-3.8446196641772983
1772649728807166500,7.79716650390625,4.096033927108347,-3.9492736323505637,-4.0015912640869615
1772649728817207600,7.80720751953125,4.362271372900903,-4.925159230667353,-4.19110758150965
1772649728827248600,7.81724853515625,4.284196491834521,-6.179467802610993,-4.4903646688506
1772649728837289500,7.82728955078125,3.8454496852606534,-7.376234286168217,-4.347426854990422
1772649728847330600,7.83733056640625,3.142492262546718,-8.341392154243588,-3.680069153445959
1772649728857372400,7.847372314453125,2.0884870672389866,-9.235040783378482,-3.082826313874125
1772649728867413500,7.85741357421875,1.4719322089537978,-10.333453860211371,-2.337748682180792
1772649728877454600,7.86745458984375,1.1425304509788752,-11.433241148006916,-1.650580803142488
1772649728887495400,7.877495361328125,1.306507837997377,-12.343677245813607,-1.2904378699451684
1772649728897536500,7.88753662109375,1.3764561112314462,-12.383666726374626,-0.6129623867511749
1772649728907578400,7.897578369140625,1.3735712034448981,-11.729226666331291,0.12688479694277047
1772649728917619500,7.907619384765625,1.6277631143957376,-10.931700323867798,0.30449907964766026
1772649728927660500,7.91766064453125,2.2690029166042804,-9.83494319754839,0.31566103658787903
1772649728937701400,7.927701416015625,2.452360126875341,-7.406822901177406,0.40866599495634437
1772649728947742500,7.937742431640625,2.074968244974315,-7.355603586071729,0.10671133909448981
1772649728957783600,7.947783447265625,2.5259447107851503,-9.246616070359945,-1.0902095313068478
1772649728967825400,7.957825439453125,2.752850847664475,-10.176023410618305,-1.4194183239929377
1772649728977866500,7.967866455078125,2.8774218147069215,-10.336619630765915,-1.4511559629067778
1772649728987907300,7.9779072265625,3.0648341455876826,-9.83020389406681,-1.749412933294475
1772649728997948400,7.987948486328125,2.9830075107723473,-8.952297023943066,-1.6048865350686012
1772649729007989500,7.997989501953125,2.6120377708733082,-8.221352400889993,-1.0795245442286132
1772649729018030300,8.0080302734375,1.983206491599977,-8.140372153770922,-0.2834646941211074
1772649729028072700,8.01807275390625,1.2265662862762807,-8.028995014822483,0.3285899301353842
