time,seconds_elapsed,z,y,x
1772649721036554200,0.02655419921875,-0.14393337070941925,0.009133991785347462,-0.026674404740333557
1772649721046595300,0.03659521484375,-0.09563413262367249,-0.02244262397289276,-0.037245798856019974
1772649721056636400,0.046636474609375,0.009905073791742325,-0.05186895653605461,-0.09422892332077026
1772649721066677200,0.05667724609375,0.1478085070848465,-0.0474553219974041,-0.19233910739421844
1772649721076719400,0.06671923828125,0.2777097821235657,-0.029808418825268745,-0.3027569651603699
1772649721086760200,0.07676025390625,0.32941141724586487,0.0162563007324934,-0.4121871888637543
1772649721096801300,0.08680126953125,0.30386078357696533,0.05008510500192642,-0.5278916358947754
1772649721106842400,0.09684228515625,0.21363945305347443,-0.08679305762052536,-0.6526954770088196
1772649721116883200,0.10688330078125,0.09669153392314911,-0.20442195236682892,-0.6693165302276611
1772649721126924300,0.11692431640625,-0.06048375740647316,-0.16570013761520386,-0.6639372110366821
1772649721136966100,0.126966064453125,-0.0873744934797287,-0.2085956633090973,-0.6093447804450989
1772649721147007200,0.13700732421875,-0.05867614224553108,-0.14129312336444855,-0.4899618327617645
1772649721157048300,0.14704833984375,-0.1935679167509079,0.03359241038560867,-0.5045165419578552
1772649721167089200,0.157089111328125,-0.3792116343975067,0.09849876910448074,-0.6949905157089233
1772649721177130200,0.167130126953125,-0.47896111011505127,-0.004350647795945406,-0.9374497532844543
1772649721187171300,0.17717138671875,-0.39224469661712646,-0.15803059935569763,-1.0327001810073853
1772649721197213400,0.18721337890625,-0.24168793857097626,-0.2900211215019226,-0.8918657898902893
1772649721207254500,0.197254638671875,-0.12816016376018524,-0.4512169063091278,-0.6130994558334351
1772649721217295400,0.20729541015625,-0.028359543532133102,-0.6148737668991089,-0.3213791847229004
1772649721227336400,0.21733642578125,0.0687636062502861,-0.688796877861023,-0.022350696846842766
1772649721237377300,0.227377197265625,0.12906982004642487,-0.6368569731712341,0.2694936990737915
1772649721247419400,0.23741943359375,0.12813682854175568,-0.4824364185333252,0.48853814601898193
1772649721257460500,0.24746044921875,0.09019849449396133,-0.3680773675441742,0.6289815902709961
1772649721267501300,0.257501220703125,0.1074952781200409,-0.3256096839904785,0.775837779045105
1772649721277542400,0.26754248046875,0.17710338532924652,-0.23841619491577148,0.8979935646057129
1772649721287583200,0.277583251953125,0.24981200695037842,-0.16016121208667755,0.9393253326416016
1772649721297624300,0.287624267578125,0.35882318019866943,-0.18484339118003845,0.8883612155914307
1772649721307666400,0.29766650390625,0.4696715772151947,-0.2432355433702469,0.7887951135635376
1772649721317707500,0.30770751953125,0.548888087272644,-0.31333765387535095,0.6713723540306091
1772649721327748600,0.31774853515625,0.49908316135406494,-0.3725075423717499,0.5397826433181763
1772649721337789400,0.32778955078125,0.3034835755825043,-0.4486270844936371,0.3756280541419983
1772649721347830500,0.33783056640625,-0.01696590892970562,-0.5105265974998474,0.1850513517856598
1772649721357871600,0.34787158203125,-0.37878191471099854,-0.5934566259384155,-0.04845967888832092
1772649721367913500,0.35791357421875,-0.654159665107727,-0.7155044078826904,-0.36403435468673706
1772649721377954600,0.36795458984375,-0.8328356742858887,-0.7014396786689758,-0.69691002368927
1772649721387995400,0.377995361328125,-0.9310752749443054,-0.4871000051498413,-0.9317314624786377
1772649721398036500,0.388036376953125,-0.9298036098480225,-0.2698664665222168,-0.9989089369773865
1772649721408077600,0.39807763671875,-0.7638884782791138,-0.17786705493927002,-0.796133816242218
1772649721418118400,0.408118408203125,-0.4168221354484558,0.09589872509241104,-0.3338484764099121
1772649721428160500,0.418160400390625,-0.01598125882446766,0.46410617232322693,0.18041174113750458
1772649721438201300,0.428201416015625,0.22900240123271942,0.8345851898193359,0.46033501625061035
1772649721448242400,0.438242431640625,0.3273370862007141,1.069236159324646,0.4844411313533783
1772649721458283500,0.448283447265625,0.37024539709091187,1.1063024997711182,0.3367752432823181
1772649721468324400,0.458324462890625,0.38525548577308655,1.0265734195709229,0.17732630670070648
1772649721478365400,0.468365478515625,0.36258664727211,0.9693275094032288,0.04068936035037041
1772649721488407300,0.4784072265625,0.29620295763015747,0.8648217916488647,-0.056912895292043686
1772649721498448400,0.488448486328125,0.2310609668493271,0.7181463241577148,-0.10605460405349731
1772649721508489500,0.498489501953125,0.18501009047031403,0.5949515700340271,-0.10294049978256226
1772649721518530300,0.5085302734375,0.16695678234100342,0.5178852677345276,-0.06820009648799896
1772649721528571400,0.5185712890625,0.14382852613925934,0.4944571554660797,-0.026077106595039368
1772649721538613500,0.528613525390625,0.08658336102962494,0.4993877112865448,0.012141117826104164
1772649721548654600,0.538654541015625,-0.03927307575941086,0.5117626786231995,0.024710405617952347
1772649721558695700,0.54869580078125,-0.23301059007644653,0.5150184035301208,-0.06212089583277702
1772649721568736500,0.558736572265625,-0.4593788981437683,0.433581680059433,-0.2988341152667999
1772649721578777600,0.568777587890625,-0.5487790703773499,0.3770957887172699,-0.5173065066337585
1772649721588818400,0.578818359375,-0.6704708933830261,0.25895601511001587,-0.635750949382782
1772649721598860500,0.588860595703125,-0.7567397356033325,0.08877816051244736,-0.7478487491607666
1772649721608901400,0.5989013671875,-0.6179095506668091,-0.025033608078956604,-0.7593137621879578
1772649721618942500,0.6089423828125,-0.25603124499320984,0.03437246009707451,-0.5733262896537781
1772649721628983600,0.618983642578125,0.09383447468280792,0.11546237766742706,-0.46657881140708923
1772649721639024400,0.6290244140625,-0.1435072273015976,-0.645538330078125,-0.472615122795105
1772649721649065500,0.6390654296875,-0.006328219082206488,-0.8799974918365479,0.4120098352432251
1772649721659107300,0.649107421875,-0.15070830285549164,-0.28286853432655334,0.8006132245063782
1772649721669148400,0.6591484375,-0.10441022366285324,-0.5828173756599426,0.694832444190979
1772649721679189500,0.669189453125,0.237079456448555,-1.1343138217926025,0.8097379803657532
1772649721689230300,0.679230224609375,0.4999958276748657,-1.1283239126205444,0.9653933048248291
1772649721699271400,0.689271484375,0.618252694606781,-0.6712589263916016,0.7753447890281677
1772649721709312500,0.6993125,0.6068516969680786,-0.3867432773113251,0.49194657802581787
1772649721719354400,0.709354248046875,0.48437535762786865,-0.31293565034866333,0.30076488852500916
1772649721729395500,0.7193955078125,0.0971110612154007,-0.36160221695899963,-0.04095098003745079
1772649721739436300,0.729436279296875,-0.2510029673576355,-0.2091788798570633,-0.37084633111953735
1772649721749477400,0.739477294921875,-0.1812761425971985,0.050317663699388504,-0.3964264690876007
1772649721759518500,0.7495185546875,0.02395397424697876,0.26036036014556885,-0.1788930743932724
1772649721769559300,0.759559326171875,0.12659776210784912,0.31574541330337524,-0.03706875070929527
1772649721779601700,0.7696015625,0.2685874104499817,0.36247164011001587,0.04237094894051552
1772649721789642500,0.779642578125,0.4972756505012512,0.39323681592941284,0.12844978272914886
1772649721799683600,0.78968359375,0.6436128616333008,0.372795969247818,0.21852082014083862
1772649721809724700,0.799724609375,0.6483144760131836,0.33609965443611145,0.3305247724056244
1772649721819765500,0.809765625,0.5510731339454651,0.3536813259124756,0.45053401589393616
1772649721829806600,0.819806640625,0.37648454308509827,0.33659127354621887,0.5060710906982422
1772649721839848400,0.829848388671875,0.15348473191261292,0.29232290387153625,0.48528507351875305
1772649721849889500,0.8398896484375,0.011818022467195988,0.18994340300559998,0.37764832377433777
1772649721859930600,0.8499306640625,-0.0502389594912529,0.08683646470308304,0.2158770114183426
1772649721869971500,0.859971435546875,-0.014727188274264336,0.032048363238573074,0.0172368586063385
1772649721880012500,0.870012451171875,0.07683468610048294,0.006024218164384365,-0.15258678793907166
1772649721890053600,0.8800537109375,0.17154023051261902,-0.0365930013358593,-0.2574893534183502
1772649721900095500,0.890095458984375,0.23231783509254456,-0.024948595091700554,-0.2939826548099518
1772649721910136600,0.900136474609375,0.2364324927330017,0.009821304120123386,-0.28447583317756653
1772649721920177400,0.910177490234375,0.19407278299331665,0.08125074952840805,-0.26020538806915283
1772649721930218500,0.920218505859375,0.1284685581922531,0.2194194793701172,-0.275500625371933
1772649721940259600,0.930259521484375,0.005401767790317535,0.33773279190063477,-0.36281049251556396
1772649721950300400,0.940300537109375,-0.1538204401731491,0.3709329068660736,-0.5052455067634583
1772649721960341500,0.950341552734375,-0.33595991134643555,0.3552796244621277,-0.6134295463562012
1772649721970383400,0.96038330078125,-0.5325109362602234,0.3414539396762848,-0.6391185522079468
1772649721980424400,0.970424560546875,-0.6952311396598816,0.30115312337875366,-0.5311249494552612
1772649721990465300,0.98046533203125,-0.7262378334999084,0.27479103207588196,-0.3070138096809387
1772649722000506400,0.99050634765625,-0.6290183663368225,0.3436199128627777,-0.016768135130405426
1772649722010547500,1.00054736328125,-0.42368897795677185,0.4195532500743866,0.2424439787864685
1772649722020589300,1.01058935546875,-0.22689896821975708,0.4200429916381836,0.4146796762943268
1772649722030630400,1.02063037109375,-0.053072232753038406,0.32244136929512024,0.4735511243343353
1772649722040671200,1.030671142578125,0.08600149303674698,0.1454487293958664,0.44771021604537964
1772649722050712300,1.04071240234375,0.15429799258708954,-0.07072990387678146,0.40227723121643066
1772649722060753400,1.05075341796875,0.14599239826202393,-0.23250308632850647,0.3496382534503937
1772649722070794200,1.060794189453125,0.0965283140540123,-0.31417179107666016,0.2839182913303375
1772649722080836600,1.070836669921875,0.047759443521499634,-0.34259599447250366,0.22488267719745636
1772649722090877400,1.08087744140625,-0.013644668273627758,-0.34313318133354187,0.16905248165130615
1772649722100918500,1.09091845703125,-0.03969331085681915,-0.343199759721756,0.09753063321113586
1772649722110959600,1.100959716796875,-0.1279480755329132,-0.33038365840911865,-0.003043153090402484
1772649722121000400,1.11100048828125,-0.23842398822307587,-0.32986167073249817,-0.15731607377529144
1772649722131041500,1.12104150390625,-0.3338335454463959,-0.34782886505126953,-0.325920432806015
1772649722141083400,1.13108349609375,-0.5153490304946899,-0.3549512028694153,-0.49239569902420044
1772649722151124500,1.14112451171875,-0.6170695424079895,-0.3743503987789154,-0.6065959930419922
1772649722161165600,1.15116552734375,-0.6900036931037903,-0.43076521158218384,-0.7109450697898865
1772649722171206400,1.161206298828125,-0.6723241806030273,-0.49784043431282043,-0.7651911377906799
1772649722181247500,1.17124755859375,-0.5463356375694275,-0.5289032459259033,-0.6585384607315063
1772649722191288600,1.18128857421875,-0.3358937203884125,-0.4785267412662506,-0.4351631700992584
1772649722201330400,1.191330322265625,-0.03212743252515793,-0.42408692836761475,-0.09023107588291168
1772649722211371500,1.20137158203125,0.07718393951654434,-0.5350050926208496,-0.02288641594350338
1772649722221412400,1.211412353515625,0.1807316392660141,-0.47583845257759094,0.30230391025543213
1772649722231453400,1.221453369140625,0.5377673506736755,0.44606927037239075,1.0867793560028076
1772649722241494500,1.23149462890625,0.8807116746902466,1.0101805925369263,1.3903573751449585
1772649722251535400,1.241535400390625,1.08688223361969,0.7980859279632568,1.1149760484695435
1772649722261577500,1.251577392578125,1.2240325212478638,0.3038623631000519,0.7770168781280518
1772649722271618300,1.261618408203125,1.4436858892440796,0.11705946177244186,0.4338446259498596
1772649722281659400,1.271659423828125,1.4353307485580444,0.03609803691506386,0.08081600069999695
1772649722291700500,1.281700439453125,1.0299854278564453,-0.32235562801361084,-0.17806899547576904
1772649722301741300,1.2917412109375,0.610908567905426,-0.7924456000328064,-0.3192296028137207
1772649722311782000,1.301781982421875,0.31188705563545227,-1.0633189678192139,-0.37471818923950195
1772649722321824000,1.311823974609375,0.0638924315571785,-1.0752413272857666,-0.4447385370731354
1772649722331865000,1.321864990234375,-0.021554196253418922,-0.9340566396713257,-0.42650139331817627
1772649722341906200,1.33190625,0.010240752249956131,-0.8410403728485107,-0.3416368365287781
1772649722351947000,1.341947021484375,0.07350043207406998,-0.7203641533851624,-0.3072078227996826
1772649722361988000,1.351988037109375,0.0968390479683876,-0.5061514973640442,-0.3153032958507538
1772649722372029200,1.362029296875,0.07459952682256699,-0.22933407127857208,-0.31703853607177734
1772649722382070000,1.372070068359375,0.05574968084692955,0.06967553496360779,-0.2558143138885498
1772649722392112000,1.382112060546875,0.0780986025929451,0.3058008849620819,-0.14637142419815063
1772649722402153000,1.392153076171875,0.15396299958229065,0.4171766936779022,-0.04878389462828636
1772649722412194000,1.402194091796875,0.24431435763835907,0.3712081015110016,0.025988640263676643
1772649722422235100,1.412235107421875,0.34087419509887695,0.22037488222122192,0.045262470841407776
1772649722432276000,1.42227587890625,0.4223930239677429,0.11427490413188934,0.0499051958322525
1772649722442317000,1.432317138671875,0.4790043830871582,0.0955108031630516,0.0667952299118042
1772649722452359000,1.44235888671875,0.5247847437858582,0.12151890248060226,0.06722758710384369
1772649722462400000,1.45239990234375,0.5125741362571716,0.15922100841999054,0.042598143219947815
1772649722472440800,1.46244091796875,0.33763429522514343,0.19190466403961182,-0.04650966078042984
1772649722482482000,1.47248193359375,0.06877646595239639,0.18248027563095093,-0.21900448203086853
1772649722492523000,1.48252294921875,-0.21865975856781006,0.1621474176645279,-0.4570356011390686
1772649722502563800,1.492563720703125,-0.4830871522426605,0.09178324788808823,-0.7228266000747681
1772649722512606000,1.50260595703125,-0.7015191912651062,0.015952445566654205,-0.9190776348114014
1772649722522646800,1.512646728515625,-0.8421809673309326,-0.07564644515514374,-0.9626988768577576
1772649722532688000,1.52268798828125,-0.8992789387702942,-0.16333547234535217,-0.8708218336105347
1772649722542729000,1.53272900390625,-0.859930694103241,-0.15606558322906494,-0.6780550479888916
1772649722552769800,1.542769775390625,-0.7052805423736572,-0.08931940793991089,-0.4081023335456848
1772649722562811000,1.552810791015625,-0.5141928791999817,0.03962073102593422,-0.16733846068382263
1772649722572852700,1.562852783203125,-0.35314998030662537,0.14749567210674286,-0.0362691693007946
1772649722582893800,1.572893798828125,-0.20046938955783844,0.1621537059545517,-0.034421999007463455
1772649722592935000,1.582934814453125,-0.09508595615625381,0.053073909133672714,-0.06583447754383087
1772649722602975700,1.592975830078125,-0.028228897601366043,-0.020078329369425774,-0.06704594939947128
1772649722613016800,1.603016845703125,-0.011038086377084255,-0.08547728508710861,-0.05078961327672005
1772649722623058000,1.613057861328125,-0.02492806874215603,-0.11820247024297714,-0.042776960879564285
1772649722633100000,1.62310009765625,-0.062339819967746735,-0.15005269646644592,-0.0502782016992569
1772649722643141000,1.63314111328125,-0.09168598800897598,-0.17232444882392883,-0.05601358413696289
1772649722653182000,1.643181884765625,-0.05700529366731644,-0.15177063643932343,-0.03361336514353752
1772649722663223000,1.65322314453125,-0.00480280676856637,-0.12146199494600296,0.011498454958200455
1772649722673264000,1.66326416015625,-0.014485188759863377,-0.1178944930434227,0.010511612519621849
1772649722683305000,1.673304931640625,-0.12450570613145828,-0.14226986467838287,-0.09333276003599167
1772649722693347000,1.68334716796875,-0.2910636365413666,-0.13304728269577026,-0.3294268250465393
1772649722703388000,1.693387939453125,-0.3517770767211914,-0.13552668690681458,-0.5473203063011169
1772649722713429000,1.703428955078125,-0.4166319668292999,-0.14479386806488037,-0.678002655506134
1772649722723470000,1.713469970703125,-0.5156275033950806,-0.25695157051086426,-0.7790006399154663
1772649722733511000,1.723510986328125,-0.5669873952865601,-0.3837544322013855,-0.7855023741722107
1772649722743552000,1.733552001953125,-0.5497205257415771,-0.2991652488708496,-0.5656400322914124
1772649722753593900,1.74359375,-0.4303571879863739,-0.06309229880571365,-0.10180891305208206
1772649722763635000,1.753635009765625,-0.3097998797893524,0.1353723257780075,0.38120943307876587
1772649722773676000,1.763676025390625,-0.4386233687400818,0.16930188238620758,0.6088373064994812
1772649722783716900,1.773716796875,-0.4231453239917755,0.5459839105606079,0.7871769666671753
1772649722793758000,1.783758056640625,0.026029732078313828,0.9127770066261292,1.1478644609451294
1772649722803799000,1.793799072265625,0.3609166443347931,0.6159727573394775,1.146319031715393
1772649722813840000,1.80383984375,0.4765877425670624,0.16211093962192535,0.8860635757446289
1772649722823882000,1.813882080078125,0.6708559989929199,-0.19943022727966309,0.7627155780792236
1772649722833922800,1.8239228515625,0.8416649103164673,-0.5197754502296448,0.542568564414978
1772649722843964000,1.8339638671875,0.8159099817276001,-0.8592898845672607,0.2322136014699936
1772649722854004700,1.844004638671875,0.639128565788269,-1.1197036504745483,-0.04031972587108612
1772649722864045800,1.8540458984375,0.3454308807849884,-1.1098017692565918,-0.2685947120189667
1772649722874087000,1.8640869140625,0.12042581290006638,-0.7724717855453491,-0.401284784078598
1772649722884129000,1.87412890625,0.07448095828294754,-0.35429662466049194,-0.3693617284297943
1772649722894170000,1.884170166015625,0.1694820076227188,0.01027342677116394,-0.2655212879180908
1772649722904211000,1.8942109375,0.32627376914024353,0.344740092754364,-0.10877509415149689
1772649722914252000,1.904251953125,0.45597025752067566,0.6523333191871643,0.1025799959897995
1772649722924293000,1.914293212890625,0.5541253089904785,0.9381831884384155,0.3060327172279358
1772649722934334000,1.924333984375,0.6559113264083862,1.1819417476654053,0.45421531796455383
1772649722944376000,1.9343759765625,0.772329568862915,1.3521350622177124,0.5650664567947388
1772649722954417000,1.9444169921875,0.8350472450256348,1.3801835775375366,0.6284533143043518
1772649722964458000,1.9544580078125,0.8676757216453552,1.2626252174377441,0.6723991632461548
1772649722974499000,1.9644990234375,0.9353433847427368,1.0726691484451294,0.7160964012145996
1772649722984540000,1.974539794921875,0.9987574815750122,0.8919670581817627,0.7682639956474304
1772649722994581000,1.9845810546875,1.0138630867004395,0.7341178059577942,0.7795003056526184
1772649723004622000,1.9946220703125,0.9528578519821167,0.5507346391677856,0.7205352187156677
1772649723014664000,2.004663818359375,0.8049355149269104,0.39767658710479736,0.6130568385124207
1772649723024705000,2.014705078125,0.5992201566696167,0.2514197826385498,0.45300355553627014
1772649723034745900,2.024745849609375,0.3296334147453308,0.14851956069469452,0.20991748571395874
1772649723044787000,2.034786865234375,-0.01007382944226265,0.02686370350420475,-0.07628151029348373
1772649723054828000,2.044828125,-0.3595983386039734,-0.05566484481096268,-0.3441926836967468
1772649723064868900,2.054868896484375,-0.6768149137496948,0.002251985250040889,-0.5355277061462402
1772649723074911000,2.064910888671875,-0.9167473912239075,0.12622655928134918,-0.6173783540725708
1772649723084951800,2.074951904296875,-1.0420321226119995,0.31229791045188904,-0.5614607930183411
1772649723094993000,2.084992919921875,-1.063428282737732,0.5034667253494263,-0.39766404032707214
1772649723105034000,2.095033935546875,-0.9902058839797974,0.5939225554466248,-0.16734962165355682
1772649723115074800,2.10507470703125,-0.8593721985816956,0.6533461213111877,0.06859968602657318
1772649723125116000,2.115115966796875,-0.7111726403236389,0.7282304763793945,0.21052247285842896
1772649723135158000,2.125157958984375,-0.5848700404167175,0.7745115160942078,0.2172127515077591
1772649723145199000,2.13519921875,-0.49044927954673767,0.8014344573020935,0.09519629925489426
1772649723155240000,2.145239990234375,-0.4106101989746094,0.779948890209198,-0.02123444899916649
1772649723165281000,2.155281005859375,-0.3592450022697449,0.73408442735672,-0.058533087372779846
1772649723175322000,2.165322021484375,-0.33320942521095276,0.6961806416511536,-0.043160296976566315
1772649723185363000,2.175363037109375,-0.3127653896808624,0.6526563763618469,-0.016605917364358902
1772649723195405000,2.185405029296875,-0.2954648435115814,0.5919795632362366,0.001953935017809272
1772649723205446000,2.19544580078125,-0.27538540959358215,0.5217258930206299,-0.013577353209257126
1772649723215487000,2.205487060546875,-0.2807416617870331,0.43092840909957886,-0.03341856226325035
1772649723225528000,2.215528076171875,-0.33539292216300964,0.33471131324768066,-0.06482309103012085
1772649723235569000,2.22556884765625,-0.4272242784500122,0.2512325048446655,-0.117527537047863
1772649723245610000,2.23560986328125,-0.5102658867835999,0.19366295635700226,-0.18607623875141144
1772649723255651000,2.245651123046875,-0.5492537617683411,0.20215284824371338,-0.2784653306007385
1772649723265693000,2.25569287109375,-0.570854902267456,0.24733176827430725,-0.380306214094162
1772649723275734000,2.265734130859375,-0.5765275955200195,0.22928127646446228,-0.40461602807044983
1772649723285774800,2.27577490234375,-0.5711072683334351,0.20087306201457977,-0.4040951132774353
1772649723295816000,2.28581591796875,-0.4137911796569824,0.24336202442646027,-0.3252151608467102
1772649723305857000,2.29585693359375,-0.0974651649594307,0.21324433386325836,-0.24421139061450958
1772649723315898400,2.3058984375,0.08726107329130173,0.1977900266647339,-0.3585733473300934
1772649723325940500,2.3159404296875,-0.2132233828306198,-0.03266182169318199,-0.6741142272949219
1772649723335981300,2.325981201171875,-0.5238391757011414,-0.20807887613773346,-0.11142124235630035
1772649723346022400,2.3360224609375,-0.25368624925613403,0.9827514290809631,0.8524801135063171
1772649723356063500,2.3460634765625,0.25559887290000916,1.4937851428985596,1.1101347208023071
1772649723366104300,2.356104248046875,0.787871241569519,0.6456234455108643,0.91961669921875
1772649723376145400,2.3661455078125,0.9642491936683655,-0.21390481293201447,0.8711869716644287
1772649723386186200,2.376186279296875,1.1756850481033325,-0.6165302991867065,0.8810247182846069
1772649723396228600,2.386228515625,1.4098550081253052,-0.9067071676254272,0.8063129782676697
1772649723406269400,2.39626953125,1.3727002143859863,-1.1460020542144775,0.5123847126960754
1772649723416310500,2.406310546875,1.0915942192077637,-1.2733696699142456,0.14539991319179535
1772649723426351600,2.4163515625,0.7848490476608276,-1.1390153169631958,-0.15202245116233826
1772649723436392400,2.426392333984375,0.5422759056091309,-0.7395632863044739,-0.2808375060558319
1772649723446433500,2.43643359375,0.4059623181819916,-0.3357122540473938,-0.22885552048683167
1772649723456475400,2.446475341796875,0.3045605421066284,-0.06273968517780304,-0.134864941239357
1772649723466516500,2.4565166015625,0.2128591239452362,0.06741352379322052,0.0013014276046305895
1772649723476557600,2.4665576171875,0.0930357500910759,0.12070576846599579,0.13136465847492218
1772649723486598400,2.476598388671875,-0.05154832825064659,0.17358256876468658,0.13945481181144714
1772649723496639500,2.486639404296875,-0.19041526317596436,0.2262730747461319,0.024397175759077072
1772649723506680600,2.4966806640625,-0.31639236211776733,0.17309081554412842,-0.13486410677433014
1772649723516722400,2.506722412109375,-0.4121796786785126,0.018273338675498962,-0.24579262733459473
1772649723526763500,2.516763427734375,-0.41316425800323486,-0.1780780553817749,-0.2795031666755676
1772649723536804400,2.526804443359375,-0.29775816202163696,-0.3337068557739258,-0.25143155455589294
1772649723546845400,2.536845458984375,-0.13821271061897278,-0.4041503965854645,-0.19503110647201538
1772649723556886500,2.546886474609375,0.017348986119031906,-0.39216092228889465,-0.1331934630870819
1772649723566927400,2.55692724609375,0.1176614761352539,-0.28735247254371643,-0.09300023317337036
1772649723576968400,2.566968505859375,0.12398316711187363,-0.28191477060317993,-0.11924494802951813
1772649723587010300,2.57701025390625,-0.041042543947696686,-0.16909262537956238,-0.20395423471927643
1772649723597051400,2.587051513671875,-0.3450332283973694,-0.08307071775197983,-0.3121703565120697
1772649723607092500,2.597092529296875,-0.7065193057060242,-0.17927686870098114,-0.4314882159233093
1772649723617133300,2.60713330078125,-1.014137625694275,-0.27247124910354614,-0.5335878133773804
1772649723627174400,2.61717431640625,-1.29146409034729,-0.2942329943180084,-0.6260767579078674
1772649723637215500,2.627215576171875,-1.5243421792984009,-0.5087525844573975,-0.6554452776908875
1772649723647257600,2.637257568359375,-1.6586365699768066,-0.5364105701446533,-0.5305235385894775
1772649723657298700,2.647298583984375,-1.638476014137268,-0.10980601608753204,-0.23885861039161682
1772649723667339500,2.657339599609375,-1.2609548568725586,0.34198781847953796,0.095561183989048
1772649723677380600,2.667380615234375,-0.5879296660423279,0.7453637719154358,0.39691343903541565
1772649723687421400,2.67742138671875,0.10538753867149353,0.701782763004303,0.5117825269699097
1772649723697462500,2.687462646484375,0.27507615089416504,0.4324624240398407,0.42190277576446533
1772649723707504400,2.69750439453125,0.31512874364852905,0.2350582629442215,0.31058770418167114
1772649723717545500,2.70754541015625,0.41549280285835266,0.1421305239200592,0.28337034583091736
1772649723727586600,2.717586669921875,0.48864027857780457,0.11484429985284805,0.301591694355011
1772649723737627400,2.72762744140625,0.49197864532470703,0.025355562567710876,0.3289194703102112
1772649723747668500,2.73766845703125,0.4353920817375183,-0.052153877913951874,0.34288108348846436
1772649723757709600,2.74770947265625,0.3300071954727173,-0.0911819189786911,0.32016614079475403
1772649723767750400,2.75775048828125,0.17309030890464783,-0.09966382384300232,0.2637598514556885
1772649723777792500,2.76779248046875,-0.013635321520268917,-0.11638659983873367,0.17966780066490173
1772649723787833300,2.777833251953125,-0.1769360899925232,-0.19218628108501434,0.0907595157623291
1772649723797874400,2.78787451171875,-0.32429659366607666,-0.24963656067848206,-0.033462315797805786
1772649723807915500,2.79791552734375,-0.455098032951355,-0.28730323910713196,-0.22912022471427917
1772649723817956400,2.807956298828125,-0.5532616376876831,-0.35762152075767517,-0.3812829554080963
1772649723827997400,2.81799755859375,-0.6323833465576172,-0.4122330844402313,-0.5429291129112244
1772649723838039300,2.828039306640625,-0.6651330590248108,-0.561815619468689,-0.7338886260986328
1772649723848080400,2.838080322265625,-0.5401173233985901,-0.6619070768356323,-0.818306028842926
1772649723858121500,2.84812158203125,-0.319079726934433,-0.6437976956367493,-0.8140619993209839
1772649723868162300,2.858162353515625,-0.15311527252197266,-0.7310695052146912,-0.718852162361145
1772649723878203400,2.868203369140625,0.07430096715688705,-1.0718761682510376,-0.4531364142894745
1772649723888244500,2.878244384765625,0.30777445435523987,-1.1458052396774292,0.05365114286541939
1772649723898286300,2.888286376953125,0.3213890790939331,-0.5552774667739868,0.6995335221290588
1772649723908327400,2.898327392578125,0.5656720995903015,0.14867615699768066,1.3143284320831299
1772649723918368300,2.9083681640625,1.0528513193130493,0.6667049527168274,1.4742838144302368
1772649723928409600,2.91840966796875,1.2686033248901367,0.5488648414611816,1.3959852457046509
1772649723938450700,2.92845068359375,1.1366209983825684,0.30077189207077026,1.1081616878509521
1772649723948491500,2.938491455078125,1.090764045715332,0.28989076614379883,0.6742969751358032
1772649723958532600,2.94853271484375,0.9320077896118164,0.2988954484462738,0.21588891744613647
1772649723968574500,2.958574462890625,0.4979620575904846,0.09615909308195114,-0.20115891098976135
1772649723978615600,2.968615478515625,0.0783187672495842,-0.013243897818028927,-0.4055688679218292
1772649723988656600,2.97865673828125,-0.1436501145362854,0.04164225235581398,-0.32530492544174194
1772649723998697500,2.988697509765625,-0.21257439255714417,0.10168354958295822,-0.11117998510599136
1772649724008738600,2.998738525390625,-0.16406652331352234,0.1208985224366188,0.014348911121487617
1772649724018779400,3.008779296875,-0.08936703205108643,0.11990257352590561,0.002450547879561782
1772649724028821500,3.018821533203125,0.01140592247247696,0.0675368383526802,-0.033476296812295914
1772649724038862600,3.028862548828125,0.095616914331913,0.04580410569906235,-0.034903980791568756
1772649724048903400,3.0389033203125,0.10328841209411621,0.04822118952870369,-0.030033858492970467
1772649724058944500,3.048944580078125,0.05824172496795654,0.11584404855966568,-0.023732302710413933
1772649724068985300,3.0589853515625,-0.017557166516780853,0.2206498235464096,-0.0064172288402915
1772649724079026400,3.0690263671875,-0.12440361827611923,0.2509443759918213,0.052524250000715256
1772649724089067500,3.079067626953125,-0.20955607295036316,0.25090041756629944,0.09041038155555725
1772649724099109400,3.089109375,-0.27467408776283264,0.23794884979724884,0.07762902975082397
1772649724109150500,3.099150390625,-0.31111571192741394,0.21014225482940674,0.012224989011883736
1772649724119191300,3.10919140625,-0.30277562141418457,0.15396922826766968,-0.08261746168136597
1772649724129232400,3.119232421875,-0.25416094064712524,0.12319055199623108,-0.16104303300380707
1772649724139273500,3.1292734375,-0.17255975306034088,0.1073375716805458,-0.21530477702617645
1772649724149314300,3.139314208984375,-0.08664324879646301,0.07851843535900116,-0.27686694264411926
1772649724159356400,3.1493564453125,-0.0551486536860466,0.07556838542222977,-0.3988054692745209
1772649724169397200,3.159397216796875,-0.046157289296388626,0.03231838345527649,-0.5507457256317139
1772649724179438300,3.169438232421875,-0.024598224088549614,-0.015364638529717922,-0.7126829028129578
1772649724189479400,3.1794794921875,-0.0013389739906415343,0.004562996793538332,-0.8693204522132874
1772649724199520300,3.189520263671875,-0.03725616633892059,0.0014354127924889326,-1.003537654876709
1772649724209561300,3.199561279296875,-0.1622188687324524,0.015890784561634064,-1.0526351928710938
1772649724219603500,3.209603515625,-0.37600192427635193,0.041000138968229294,-0.9855846166610718
1772649724229644500,3.21964453125,-0.5870624780654907,0.09008140116930008,-0.8073562979698181
1772649724239685600,3.229685546875,-0.6711882948875427,0.08155503123998642,-0.5121289491653442
1772649724249726500,3.2397265625,-0.5966573357582092,0.024135148152709007,-0.1408395618200302
1772649724259767600,3.249767578125,-0.4088342785835266,-0.01286374218761921,0.22562351822853088
1772649724269808600,3.25980859375,-0.19174672663211823,-0.01816290058195591,0.43159210681915283
1772649724279849500,3.269849365234375,0.0004220393602736294,0.04995901510119438,0.5209344625473022
1772649724289891600,3.2798916015625,0.18089567124843597,0.09456589818000793,0.5016433000564575
1772649724299932400,3.289932373046875,0.3053467273712158,0.08673769980669022,0.4633646309375763
1772649724309973800,3.299973876953125,0.3540639281272888,0.083092100918293,0.4554806053638458
1772649724320014600,3.3100146484375,0.34774285554885864,0.11666814237833023,0.4565318822860718
1772649724330055700,3.3200556640625,0.3158573508262634,0.14682471752166748,0.437167227268219
1772649724340096800,3.3300966796875,0.26008960604667664,0.14739379286766052,0.3965904712677002
1772649724350138600,3.340138671875,0.19462567567825317,0.11281212419271469,0.3346743583679199
1772649724360179700,3.3501796875,0.11611979454755783,0.06742799282073975,0.2534855008125305
1772649724370220500,3.360220458984375,0.06800686568021774,0.032102227210998535,0.1728828102350235
1772649724380261600,3.37026171875,-0.01053291093558073,0.02872065268456936,0.11103953421115875
1772649724390302700,3.380302734375,-0.07884378731250763,0.02884449064731598,0.04049772396683693
1772649724400343600,3.390343505859375,-0.2596017122268677,-0.004685815889388323,-0.13099756836891174
1772649724410385700,3.4003857421875,-0.3307326138019562,-0.11261946707963943,-0.3336561322212219
1772649724420426500,3.410426513671875,-0.25573089718818665,-0.18334782123565674,-0.3915976583957672
1772649724430467600,3.420467529296875,-0.11784680932760239,-0.2127656191587448,-0.3527136445045471
1772649724440508700,3.4305087890625,-0.1467481106519699,-0.4360096752643585,-0.38620227575302124
1772649724450549500,3.440549560546875,-0.4357095956802368,-0.8241225481033325,-1.0748802423477173
1772649724460590600,3.450590576171875,-0.5145617127418518,-1.4571433067321777,-0.7164801359176636
1772649724470631700,3.460631591796875,0.03490140289068222,-0.021501338109374046,0.45209285616874695
1772649724480673500,3.470673583984375,0.19156557321548462,0.7016711831092834,0.6865359544754028
1772649724490714600,3.480714599609375,0.30901601910591125,0.497690349817276,0.458568274974823
1772649724500755500,3.49075537109375,0.6498295664787292,0.2080504596233368,0.5529700517654419
1772649724510796500,3.500796630859375,0.7858582139015198,0.1741950362920761,0.8078300356864929
1772649724520837600,3.510837646484375,0.7820464372634888,0.2648144066333771,0.8446546196937561
1772649724530878500,3.52087841796875,0.7383520007133484,0.3587486445903778,0.6624086499214172
1772649724540920800,3.5309208984375,0.46229657530784607,0.2335149496793747,0.1852988302707672
1772649724550961700,3.540961669921875,0.1462259590625763,0.0712333619594574,-0.20470193028450012
1772649724561002800,3.551002685546875,-0.09365501254796982,0.21711061894893646,-0.2741386890411377
1772649724571043800,3.5610439453125,-0.09646331518888474,0.41122016310691833,-0.1136762872338295
1772649724581084700,3.571084716796875,-0.03004220314323902,0.40630319714546204,0.034579597413539886
1772649724591125800,3.581125732421875,0.04081439599394798,0.2527509331703186,0.025429509580135345
1772649724601167600,3.591167724609375,0.1528860628604889,0.10649461299180984,-0.08550989627838135
1772649724611208700,3.601208740234375,0.23070043325424194,-0.025578998029232025,-0.2058964967727661
1772649724621249800,3.611249755859375,0.22488179802894592,-0.052736375480890274,-0.22769758105278015
1772649724631290600,3.62129052734375,0.12280388921499252,0.03351036459207535,-0.10809501260519028
1772649724641331700,3.631331787109375,-0.06561470776796341,0.1081511527299881,0.054628774523735046
1772649724651372500,3.64137255859375,-0.22055982053279877,0.12090343236923218,0.17138761281967163
1772649724661414700,3.65141455078125,-0.22761860489845276,0.10787957906723022,0.26522690057754517
1772649724671455700,3.661455810546875,-0.154903382062912,0.07261160016059875,0.33927953243255615
1772649724681496600,3.67149658203125,-0.06617750972509384,0.0266097541898489,0.36255770921707153
1772649724691537700,3.68153759765625,0.033634837716817856,-0.02953873760998249,0.3390023112297058
1772649724701578500,3.69157861328125,0.14878103137016296,-0.09883199632167816,0.3039931058883667
1772649724711619600,3.70161962890625,0.24405480921268463,-0.11995246261358261,0.27471858263015747
1772649724721660700,3.71166064453125,0.30373743176460266,-0.12230391055345535,0.19369061291217804
1772649724731702500,3.72170263671875,0.29392287135124207,-0.04743899032473564,0.062032993882894516
1772649724741743600,3.73174365234375,0.18939684331417084,-0.01174994371831417,-0.15651626884937286
1772649724751784400,3.741784423828125,-0.017711607739329338,-0.07908637076616287,-0.4808586537837982
1772649724761825500,3.751825439453125,-0.26502683758735657,-0.15088793635368347,-0.8561626076698303
1772649724771866600,3.76186669921875,-0.5017256736755371,-0.13299842178821564,-1.1236586570739746
1772649724781907500,3.771907470703125,-0.7080316543579102,-0.10438656806945801,-1.2267791032791138
1772649724791949600,3.781949462890625,-0.8711971640586853,-0.050867948681116104,-1.1547080278396606
1772649724801990400,3.791990478515625,-0.9082760214805603,-0.0638413280248642,-0.9068605899810791
1772649724812031500,3.802031494140625,-0.7943302392959595,0.008433667942881584,-0.4623108208179474
1772649724822072600,3.812072509765625,-0.5393285155296326,0.05057395622134209,-0.003864289727061987
1772649724832113700,3.82211376953125,-0.19776904582977295,0.02761724218726158,0.322940468788147
1772649724842154800,3.83215478515625,0.059174396097660065,0.05758289620280266,0.5021230578422546
1772649724852196600,3.842196533203125,0.18116368353366852,0.15161272883415222,0.5074048638343811
1772649724862237700,3.85223779296875,0.24877844750881195,0.14576949179172516,0.4380281865596771
1772649724872278800,3.86227880859375,0.25969740748405457,0.08324911445379257,0.37607401609420776
1772649724882319600,3.872319580078125,0.23045474290847778,0.051816586405038834,0.3467789590358734
1772649724892360700,3.882360595703125,0.1996113359928131,0.0345449224114418,0.3336082994937897
1772649724902401800,3.89240185546875,0.15589530766010284,0.01853596791625023,0.31371062994003296
1772649724912443600,3.902443603515625,0.11444266885519028,0.00395995331928134,0.27314162254333496
1772649724922484700,3.912484619140625,0.038791097700595856,-0.00853007659316063,0.21933288872241974
1772649724932525600,3.922525634765625,0.024627873674035072,-0.06030112877488136,0.15825355052947998
1772649724942566700,3.932566650390625,-0.06371723860502243,-0.10909274965524673,0.07782760262489319
1772649724952607700,3.942607666015625,-0.18415284156799316,-0.16253840923309326,-0.04301093518733978
1772649724962648600,3.952648681640625,-0.25940513610839844,-0.2291376292705536,-0.19689585268497467
1772649724972690700,3.962690673828125,-0.38410043716430664,-0.3178184926509857,-0.34262192249298096
1772649724982731500,3.9727314453125,-0.530467689037323,-0.4774937033653259,-0.5983603596687317
1772649724992772600,3.982772705078125,-0.5936429500579834,-0.6683525443077087,-0.9047834277153015
1772649725002813700,3.992813720703125,-0.3970271944999695,-0.7413405776023865,-1.0414625406265259
1772649725012854500,4.0028544921875,-0.07934591919183731,-0.6202519536018372,-0.7802841663360596
1772649725022895600,4.0128955078125,0.15808480978012085,-0.39812371134757996,-0.18010812997817993
1772649725032937500,4.0229375,0.12784914672374725,-0.38491231203079224,0.09817462414503098
1772649725042978600,4.032978515625,-0.27702564001083374,-0.4268501400947571,-0.1859159767627716
1772649725053019600,4.04301953125,-0.5727072954177856,-0.11744330823421478,-0.16202449798583984
1772649725063060500,4.053060546875,-0.036299340426921844,0.5714510083198547,0.681000828742981
1772649725073101600,4.0631015625,0.4624955654144287,0.6772530674934387,1.1615272760391235
1772649725083142400,4.073142333984375,0.5293517112731934,0.608636736869812,1.1172587871551514
1772649725093184800,4.083184814453125,0.5022644400596619,0.5599168539047241,0.8166618943214417
1772649725103225600,4.0932255859375,0.6278191208839417,0.5023484230041504,0.5596280097961426
1772649725113266700,4.1032666015625,0.728809118270874,0.3598959445953369,0.3766821324825287
1772649725123307800,4.113307861328125,0.6283268928527832,0.06872960925102234,0.10917197167873383
1772649725133348600,4.1233486328125,0.3794766366481781,-0.22306495904922485,-0.16803939640522003
1772649725143389700,4.1333896484375,0.21747910976409912,-0.3717396855354309,-0.36834290623664856
1772649725153431600,4.143431640625,0.043111301958560944,-0.3551971912384033,-0.4942595362663269
1772649725163472600,4.15347265625,-0.028257425874471664,-0.2854299247264862,-0.4852530360221863
1772649725173513700,4.163513671875,-0.059008944779634476,-0.31717613339424133,-0.3698750436306
1772649725183554600,4.173554443359375,-0.09304554760456085,-0.36215394735336304,-0.25452303886413574
1772649725193595600,4.183595703125,-0.12189370393753052,-0.33482298254966736,-0.12826655805110931
1772649725203637500,4.193637451171875,-0.09787090122699738,-0.24577264487743378,0.010154440999031067
1772649725213678600,4.2036787109375,-0.06576995551586151,-0.17438022792339325,0.16234157979488373
1772649725223719700,4.2137197265625,-0.035058919340372086,-0.1041942909359932,0.3106346130371094
1772649725233760500,4.223760498046875,0.023907462134957314,-0.025768456980586052,0.38980212807655334
1772649725243801600,4.233801513671875,0.09654362499713898,-0.021677911281585693,0.37382811307907104
1772649725253842700,4.2438427734375,0.19677649438381195,-0.037942104041576385,0.33923420310020447
1772649725263884500,4.253884521484375,0.33628907799720764,-0.04509083181619644,0.3164282441139221
1772649725273925600,4.263925537109375,0.4558301270008087,-0.05404278263449669,0.3106638193130493
1772649725283966500,4.273966552734375,0.4829764664173126,-0.05160580947995186,0.3108564019203186
1772649725294007600,4.284007568359375,0.43224722146987915,-0.04192309081554413,0.3064129054546356
1772649725304048600,4.294048583984375,0.3274390697479248,-0.02213156782090664,0.27234506607055664
1772649725314089000,4.3040888671875,0.1607222855091095,0.01974424347281456,0.16125451028347015
1772649725324131000,4.314131103515625,-0.07262164354324341,0.0032492857426404953,-0.07012782990932465
1772649725334172000,4.324171875,-0.3218285143375397,-0.07275041192770004,-0.35534384846687317
1772649725344213000,4.334212890625,-0.5338760614395142,-0.1657666265964508,-0.6320604085922241
1772649725354254000,4.344254150390625,-0.691035807132721,-0.22768007218837738,-0.8212090730667114
1772649725364295000,4.354294921875,-0.7968864440917969,-0.2890351414680481,-0.8739619851112366
1772649725374336300,4.364336181640625,-0.8137844800949097,-0.3354966342449188,-0.7900420427322388
1772649725384378000,4.374378173828125,-0.7128245830535889,-0.33613765239715576,-0.5868048071861267
1772649725394419200,4.384419189453125,-0.5159474611282349,-0.3426666557788849,-0.3297753930091858
1772649725404460300,4.394460205078125,-0.2835417687892914,-0.38667604327201843,-0.1350993663072586
1772649725414501000,4.404501220703125,-0.12693005800247192,-0.3668328523635864,-0.04919883608818054
1772649725424542200,4.414542236328125,-0.02205185405910015,-0.3732374906539917,-0.04376918449997902
1772649725434584000,4.424583984375,0.05191105231642723,-0.42965975403785706,-0.03939734026789665
1772649725444625200,4.434625244140625,0.08933240175247192,-0.478565514087677,-0.003924768418073654
1772649725454666200,4.444666259765625,0.10391214489936829,-0.493882417678833,0.0363914929330349
1772649725464707000,4.45470703125,0.1068069115281105,-0.4870299696922302,0.06990785896778107
1772649725474748200,4.464748046875,0.10850653797388077,-0.47044965624809265,0.09629233181476593
1772649725484789200,4.474789306640625,0.09666101634502411,-0.44405293464660645,0.10773573815822601
1772649725494831000,4.4848310546875,0.05502355471253395,-0.3912922441959381,0.09584685415029526
1772649725504872200,4.4948720703125,0.013949050568044186,-0.3156338334083557,0.048780687153339386
1772649725514913000,4.5049130859375,-0.06745206564664841,-0.2295873761177063,-0.027592115104198456
1772649725524954000,4.5149541015625,-0.14704059064388275,-0.1909925639629364,-0.11564268171787262
1772649725534995200,4.5249951171875,-0.2699776887893677,-0.16568401455879211,-0.22641074657440186
1772649725545037000,4.535037109375,-0.3839256167411804,-0.16056568920612335,-0.3957171142101288
1772649725555078100,4.545078125,-0.5072283744812012,-0.15924982726573944,-0.5950987339019775
1772649725565119000,4.555118896484375,-0.5974701642990112,-0.16968916356563568,-0.7811861634254456
1772649725575160000,4.56516015625,-0.5368797779083252,-0.1424250453710556,-0.90704345703125
1772649725585201200,4.575201171875,-0.393290638923645,0.021270141005516052,-0.97771817445755
1772649725595242000,4.585241943359375,-0.2860800325870514,0.17805816233158112,-0.910467803478241
1772649725605284000,4.5952841796875,-0.18322968482971191,0.30476582050323486,-0.45788174867630005
1772649725615325200,4.6053251953125,-0.08699209243059158,0.8934341073036194,0.5244936347007751
1772649725625366300,4.6153662109375,0.05479947850108147,1.2956513166427612,1.1628203392028809
1772649725635407000,4.625406982421875,0.22460369765758514,1.1940912008285522,1.1002576351165771
1772649725645448200,4.6354482421875,0.4486946761608124,0.641390323638916,0.9052965641021729
1772649725655489300,4.6454892578125,0.6784149408340454,0.3601389229297638,0.9062001705169678
1772649725665531100,4.65553125,0.8536413311958313,0.28868189454078674,0.9013011455535889
1772649725675572200,4.665572265625,0.8250778913497925,0.127854123711586,0.6873414516448975
1772649725685613000,4.675613037109375,0.6257545948028564,-0.12261494994163513,0.3836687207221985
1772649725695654100,4.685654052734375,0.3555699288845062,-0.23123383522033691,0.17149440944194794
1772649725705695200,4.6956953125,0.0712115541100502,-0.14390458166599274,0.04964769631624222
1772649725715737000,4.705737060546875,-0.160761758685112,0.022958436980843544,0.0336490198969841
1772649725725778200,4.715778076171875,-0.23552124202251434,0.22486115992069244,0.1369316577911377
1772649725735819000,4.725819091796875,-0.21441489458084106,0.34276434779167175,0.2518063187599182
1772649725745860000,4.735860107421875,-0.17297405004501343,0.38956549763679504,0.25506991147994995
1772649725755901200,4.745901123046875,-0.1167731061577797,0.40520066022872925,0.16436688601970673
1772649725765942000,4.75594189453125,-0.027921654284000397,0.4356054663658142,0.08055634796619415
1772649725775984000,4.765984130859375,0.09529295563697815,0.4831271767616272,0.006154822185635567
1772649725786025000,4.77602490234375,0.2401718944311142,0.48323312401771545,0.04245626553893089
1772649725796066000,4.786066162109375,0.4044886827468872,0.4482000172138214,0.18498730659484863
1772649725806107100,4.796107177734375,0.5583729147911072,0.3499066233634949,0.3266962170600891
1772649725816148000,4.80614794921875,0.6820429563522339,0.20802563428878784,0.4093615412712097
1772649725826190300,4.8161904296875,0.7628161907196045,0.02595716528594494,0.43022507429122925
1772649725836231200,4.826231201171875,0.8262412548065186,-0.135498046875,0.4311172366142273
1772649725846272300,4.836272216796875,0.8788682818412781,-0.20221242308616638,0.38777148723602295
1772649725856313300,4.846313232421875,0.8730894923210144,-0.20581407845020294,0.3083248734474182
1772649725866354200,4.856354248046875,0.7872299551963806,-0.15688487887382507,0.19526197016239166
1772649725876395300,4.866395263671875,0.6232508420944214,-0.055167850106954575,0.04283861815929413
1772649725886437000,4.87643701171875,0.38739490509033203,0.1036156713962555,-0.15584728121757507
1772649725896478200,4.886478271484375,0.11347705870866776,0.26401039958000183,-0.41107451915740967
1772649725906519300,4.896519287109375,-0.16815677285194397,0.38755977153778076,-0.7113605737686157
1772649725916560100,4.90656005859375,-0.4447478950023651,0.4656819999217987,-1.008646011352539
1772649725926601200,4.916601318359375,-0.7127488255500793,0.5429752469062805,-1.173445224761963
1772649725936643000,4.92664306640625,-0.9480947852134705,0.6353288888931274,-1.1094342470169067
1772649725946684200,4.93668408203125,-1.0698376893997192,0.6392063498497009,-0.833679735660553
1772649725956725200,4.946725341796875,-0.985042154788971,0.5499760508537292,-0.41248461604118347
1772649725966766000,4.95676611328125,-0.6976186037063599,0.391486793756485,0.006658600643277168
1772649725976807200,4.96680712890625,-0.36016255617141724,0.276455819606781,0.3276858925819397
1772649725986849000,4.97684912109375,-0.1915678232908249,0.31733521819114685,0.46057018637657166
1772649725996890000,4.98689013671875,-0.09606792777776718,0.36855632066726685,0.4170789122581482
1772649726006931000,4.996930908203125,-0.015603356063365936,0.3534928262233734,0.3032964766025543
1772649726016972000,5.006971923828125,0.01169084943830967,0.27775970101356506,0.2039232701063156
1772649726027013000,5.01701318359375,-0.011960583738982677,0.20646601915359497,0.13241615891456604
1772649726037054000,5.027053955078125,-0.04912606254220009,0.13490448892116547,0.06122240051627159
1772649726047096000,5.037095947265625,-0.07334776967763901,0.06204025074839592,-0.021983124315738678
1772649726057137000,5.047136962890625,-0.052984438836574554,-0.033114492893218994,-0.08676744997501373
1772649726067178000,5.057177978515625,-0.008970506489276886,-0.10440543293952942,-0.10197824984788895
1772649726077219000,5.067218994140625,-0.0026564178988337517,-0.09337036311626434,-0.07251570373773575
1772649726087260000,5.077260009765625,-0.01453437004238367,-0.031284768134355545,-0.05224437639117241
1772649726097302300,5.08730224609375,-0.06819520145654678,0.010432850569486618,-0.08857255429029465
1772649726107343000,5.097343017578125,-0.1318833976984024,-0.0035123005509376526,-0.16175469756126404
1772649726117384200,5.10738427734375,-0.1423134058713913,-0.09540414065122604,-0.19155174493789673
1772649726127425300,5.11742529296875,-0.2030213177204132,-0.22184118628501892,-0.22178223729133606
1772649726137466000,5.127466064453125,-0.2658287584781647,-0.4553455412387848,-0.299641877412796
1772649726147508200,5.13750830078125,-0.23854480683803558,-0.5458496809005737,-0.37176501750946045
1772649726157549000,5.147549072265625,-0.11399703472852707,-0.38340696692466736,-0.3950980305671692
1772649726167590100,5.157590087890625,0.05448327213525772,-0.22414249181747437,-0.26947349309921265
1772649726177631200,5.16763134765625,0.1275726556777954,-0.17765328288078308,-0.10117661207914352
1772649726187672000,5.177672119140625,-0.1570090502500534,-0.14153523743152618,-0.05911377817392349
1772649726197713200,5.187713134765625,-0.4742192327976227,-0.045439328998327255,0.06898772716522217
1772649726207755000,5.197755126953125,-0.25203728675842285,0.08862659335136414,0.3287178575992584
1772649726217796000,5.207796142578125,0.11831812560558319,-0.08817161619663239,0.5435856580734253
1772649726227837200,5.217837158203125,0.36379238963127136,-0.08615346252918243,0.7520719170570374
1772649726237878000,5.2278779296875,0.47435060143470764,0.03165493160486221,0.8386467695236206
1772649726247919000,5.237919189453125,0.5612761974334717,-0.004995447117835283,0.7740433216094971
1772649726257961000,5.2479609375,0.5433244109153748,-0.2042638063430786,0.6513997316360474
1772649726268002000,5.258001953125,0.4841603636741638,-0.44962015748023987,0.49429628252983093
1772649726286829300,5.276829345703125,0.22527821362018585,-0.5380434989929199,0.052860017865896225
1772649726296870100,5.2868701171875,0.1243787556886673,-0.4657202959060669,-0.023365512490272522
1772649726306911200,5.2969111328125,0.05036604404449463,-0.31012511253356934,-0.007260311394929886
1772649726316951800,5.306951904296875,-0.008377427235245705,-0.1394825428724289,-0.03341574966907501
1772649726326992600,5.31699267578125,-0.056340571492910385,-0.02516302280128002,-0.14316512644290924
1772649726337033700,5.32703369140625,-0.0973183661699295,0.027820566669106483,-0.22955460846424103
1772649726347075600,5.33707568359375,-0.10000938922166824,0.08752165734767914,-0.18249832093715668
1772649726357116700,5.34711669921875,-0.04046403989195824,0.19182328879833221,-0.013462171889841557
1772649726367157800,5.35715771484375,0.062212180346250534,0.33662936091423035,0.1776864230632782
1772649726377198600,5.367198486328125,0.16797083616256714,0.44946935772895813,0.31003624200820923
1772649726387239700,5.37723974609375,0.25804343819618225,0.4877651631832123,0.3609677851200104
1772649726397281500,5.387281494140625,0.338570237159729,0.4554184079170227,0.3980075418949127
1772649726407322600,5.397322509765625,0.42206117510795593,0.3907018303871155,0.4287097752094269
1772649726417363700,5.40736376953125,0.47558164596557617,0.33809322118759155,0.4338739216327667
1772649726427404500,5.417404541015625,0.5102197527885437,0.2888672649860382,0.4277510344982147
1772649726437445600,5.427445556640625,0.5312381982803345,0.2236105054616928,0.41020798683166504
1772649726447486700,5.43748681640625,0.4992287755012512,0.14589954912662506,0.36816829442977905
1772649726457528800,5.44752880859375,0.41138705611228943,0.053696658462285995,0.2825532555580139
1772649726467570000,5.45756982421875,0.2731921970844269,-0.015477695502340794,0.1421460211277008
1772649726477610800,5.46761083984375,0.07617153227329254,-0.05580620840191841,-0.05824139341711998
1772649726487651800,5.47765185546875,-0.21121560037136078,-0.07143718749284744,-0.2982933521270752
1772649726497693000,5.48769287109375,-0.5064980983734131,-0.08269037306308746,-0.5515378713607788
1772649726507734800,5.49773486328125,-0.6833091974258423,-0.04752106964588165,-0.727107048034668
1772649726517776000,5.50777587890625,-0.7692603468894958,-0.0424882248044014,-0.774772584438324
1772649726527816700,5.517816650390625,-0.8378112316131592,-0.07901588827371597,-0.7087591290473938
1772649726537857800,5.52785791015625,-0.8398041129112244,-0.1318548619747162,-0.5150892734527588
1772649726547899000,5.53789892578125,-0.7070236206054688,-0.1274692863225937,-0.2297227382659912
1772649726557940700,5.547940673828125,-0.43884193897247314,-0.08038485050201416,0.038850124925374985
1772649726567981800,5.55798193359375,-0.17135560512542725,0.013700560666620731,0.1866258829832077
1772649726578022700,5.568022705078125,-0.012086844071745872,0.06953293085098267,0.18689407408237457
1772649726588063700,5.578063720703125,0.10616222769021988,0.05299130827188492,0.11226418614387512
1772649726598104800,5.588104736328125,0.19034714996814728,-0.017078058794140816,0.0743413046002388
1772649726608146700,5.598146728515625,0.21152271330356598,-0.08950885385274887,0.07991773635149002
1772649726618187800,5.608187744140625,0.1950574517250061,-0.10859732329845428,0.1197516992688179
1772649726628228600,5.618228515625,0.14490963518619537,-0.1061805784702301,0.1630583107471466
1772649726638269700,5.628269775390625,0.058468759059906006,-0.07636596262454987,0.19778940081596375
1772649726648310800,5.638310791015625,-0.029933178797364235,-0.02582675591111183,0.21531863510608673
1772649726658351600,5.6483515625,-0.10159538686275482,0.04075094312429428,0.20453070104122162
1772649726668393700,5.658393798828125,-0.14914466440677643,0.10581377148628235,0.17429004609584808
1772649726678434800,5.668434814453125,-0.2016262412071228,0.14657104015350342,0.14304983615875244
1772649726688476000,5.678475830078125,-0.30635058879852295,0.19699393212795258,0.0840938538312912
1772649726698516700,5.688516845703125,-0.4427390396595001,0.22072508931159973,-0.022046690806746483
1772649726708557800,5.698557861328125,-0.584959864616394,0.1539502739906311,-0.12594173848628998
1772649726718599700,5.708599609375,-0.7305857539176941,0.07053128629922867,-0.32189980149269104
1772649726728640800,5.718640869140625,-0.7255080342292786,-0.00221887300722301,-0.48243001103401184
1772649726738681900,5.728681884765625,-0.5783900022506714,0.10157836228609085,-0.5255529880523682
1772649726748722700,5.73872265625,-0.4973025321960449,0.2142477035522461,-0.523862361907959
1772649726758763800,5.748763671875,-0.5853437185287476,0.07377927005290985,-0.560984194278717
1772649726768805600,5.7588056640625,-0.9830378293991089,-0.34625205397605896,-0.5198909640312195
1772649726778846700,5.7688466796875,-0.9541683793067932,0.38467514514923096,0.12050020694732666
1772649726788887800,5.7788876953125,-0.34853237867355347,1.3846889734268188,0.8570284843444824
1772649726798928600,5.7889287109375,0.23959824442863464,1.198191523551941,1.029967188835144
1772649726808969700,5.7989697265625,0.492327481508255,0.3341521918773651,0.8271169066429138
1772649726819010800,5.8090107421875,0.5919672250747681,-0.45271068811416626,0.6546684503555298
1772649726829052700,5.819052734375,0.7276151776313782,-0.7833384275436401,0.5206873416900635
1772649726839093800,5.82909375,0.7926216125488281,-0.8489158749580383,0.28109443187713623
1772649726849134600,5.839134521484375,0.5643447637557983,-0.9647271633148193,-0.0996166318655014
1772649726859175700,5.84917578125,0.17325080931186676,-1.1162434816360474,-0.3993719220161438
1772649726869216800,5.859216796875,-0.027701538056135178,-0.850439190864563,-0.4806061089038849
1772649726879258600,5.869258544921875,-0.08252457529306412,-0.29377010464668274,-0.3478781580924988
1772649726889299700,5.8792998046875,-0.16386665403842926,0.06887998431921005,-0.184858500957489
1772649726899340800,5.8893408203125,-0.17249742150306702,0.15847164392471313,-0.06212165951728821
1772649726909382000,5.8993818359375,-0.09943275153636932,0.15646542608737946,0.0103670759126544
1772649726919423000,5.909423095703125,-0.0005335994646884501,0.17013488709926605,0.035883087664842606
1772649726929464800,5.91946484375,0.033029839396476746,0.14428725838661194,0.012097889557480812
1772649726939506000,5.929505859375,0.040118373930454254,0.12699615955352783,-0.008147992193698883
1772649726949546800,5.939546630859375,0.04833948612213135,0.19377613067626953,-0.005833521485328674
1772649726959587800,5.949587890625,0.07904626429080963,0.32714298367500305,0.015451260842382908
1772649726969629000,5.95962890625,0.1533762663602829,0.4188121557235718,0.02507905289530754
1772649726979669800,5.969669677734375,0.24521830677986145,0.38082826137542725,0.048199284821748734
1772649726989712000,5.9797119140625,0.3428662419319153,0.27071985602378845,0.10101641714572906
1772649726999752700,5.989752685546875,0.43675756454467773,0.12149734050035477,0.1335834115743637
1772649727009793800,5.999793701171875,0.5157575607299805,0.014609772711992264,0.15769246220588684
1772649727019835000,6.0098349609375,0.5808303356170654,-0.03491863235831261,0.1915721297264099
1772649727029875700,6.019875732421875,0.6410607099533081,-0.01252923533320427,0.24517901241779327
1772649727039917800,6.029917724609375,0.6736045479774475,0.018286200240254402,0.33497706055641174
1772649727049958700,6.039958740234375,0.6281715035438538,0.021776989102363586,0.4050440490245819
1772649727059999700,6.049999755859375,0.5035086870193481,0.08149571716785431,0.41496992111206055
1772649727070040600,6.06004052734375,0.26401087641716003,0.13170889019966125,0.3094419240951538
1772649727080081700,6.07008154296875,-0.04764234274625778,0.1739487648010254,0.10119311511516571
1772649727090123800,6.080123779296875,-0.3118566870689392,0.17446887493133545,-0.13633662462234497
1772649727100164600,6.09016455078125,-0.5111221075057983,0.1414664387702942,-0.3219514787197113
1772649727110205700,6.100205810546875,-0.6601758599281311,0.14084839820861816,-0.3790889382362366
1772649727120246500,6.11024658203125,-0.7341094613075256,0.09168031811714172,-0.35855650901794434
1772649727130287600,6.12028759765625,-0.7053245902061462,-0.004215117543935776,-0.2716025710105896
1772649727140328700,6.13032861328125,-0.55867999792099,-0.02728182077407837,-0.04584187641739845
1772649727150370800,6.140370849609375,-0.30908215045928955,0.029003217816352844,0.20814421772956848
1772649727160412000,6.150411865234375,-0.0642004981637001,0.014120676554739475,0.3096945583820343
1772649727170452700,6.16045263671875,0.062263842672109604,-0.07308732718229294,0.2519915699958801
1772649727180493800,6.170493896484375,0.15748383104801178,-0.18312780559062958,0.11056491732597351
1772649727190535000,6.180534912109375,0.2520788609981537,-0.3243165910243988,0.03016185574233532
1772649727200576800,6.19057666015625,0.28849706053733826,-0.4591926634311676,0.029404718428850174
1772649727210617900,6.200617919921875,0.2794214189052582,-0.5277407765388489,0.03905169665813446
1772649727220658700,6.21065869140625,0.2497471421957016,-0.5113527178764343,0.029870180413126945
1772649727230699800,6.22069970703125,0.2031310647726059,-0.43797117471694946,0.004959944635629654
1772649727240740900,6.230740966796875,0.14899060130119324,-0.33675718307495117,-0.02641608752310276
1772649727250782700,6.24078271484375,0.08073727041482925,-0.2370157539844513,-0.06660619378089905
1772649727260823800,6.25082373046875,0.005585792474448681,-0.14202666282653809,-0.1161002442240715
1772649727270864600,6.26086474609375,-0.0744774267077446,-0.04613760858774185,-0.1643776148557663
1772649727280905700,6.27090576171875,-0.15864209830760956,0.060227710753679276,-0.20490214228630066
1772649727290946800,6.28094677734375,-0.2545677125453949,0.16593341529369354,-0.24623176455497742
1772649727300987600,6.290987548828125,-0.348181813955307,0.22980907559394836,-0.24737133085727692
1772649727311029800,6.30102978515625,-0.4630289077758789,0.27443814277648926,-0.292363703250885
1772649727321071600,6.311071533203125,-0.4294922649860382,0.29807502031326294,-0.28287220001220703
1772649727331112700,6.32111279296875,-0.2627775967121124,0.46773937344551086,-0.12759874761104584
1772649727341153500,6.331153564453125,-0.20765307545661926,0.5786762237548828,-0.06454495340585709
1772649727351194600,6.341194580078125,-0.28401073813438416,0.43406766653060913,-0.4194340109825134
1772649727361236500,6.351236572265625,-0.40414300560951233,-0.06809210777282715,-0.851179838180542
1772649727371277600,6.361277587890625,-0.11200034618377686,0.5125494599342346,0.08500488847494125
1772649727381318700,6.371318603515625,0.5325443148612976,1.4658751487731934,1.0992705821990967
1772649727391359500,6.381359375,0.6037690043449402,1.1671676635742188,0.9578731656074524
1772649727401400600,6.391400634765625,0.649127721786499,0.15938261151313782,0.6364383697509766
1772649727411442400,6.4014423828125,0.8855887651443481,-0.7657126784324646,0.7492957711219788
1772649727421483500,6.4114833984375,1.0655944347381592,-1.0505691766738892,0.7419475317001343
1772649727431524600,6.421524658203125,1.0624045133590698,-1.025734782218933,0.5148006677627563
1772649727441565400,6.4315654296875,0.753663182258606,-1.1056019067764282,0.13376489281654358
1772649727451606500,6.4416064453125,0.30636072158813477,-1.1962361335754395,-0.10590224713087082
1772649727461647600,6.451647705078125,-0.021138323470950127,-0.9807731509208679,-0.16031675040721893
1772649727471689700,6.461689697265625,-0.308138370513916,-0.6580240726470947,-0.17218011617660522
1772649727481730800,6.471730712890625,-0.4736676812171936,-0.4504472017288208,-0.1524101346731186
1772649727491771600,6.481771728515625,-0.44969213008880615,-0.3184354901313782,-0.029496772214770317
1772649727501812700,6.491812744140625,-0.30019691586494446,-0.20469507575035095,0.12226372212171555
1772649727511853600,6.501853515625,-0.1293954998254776,-0.17357590794563293,0.2770985960960388
1772649727521895700,6.511895751953125,0.006488830782473087,-0.2738654911518097,0.3869960606098175
1772649727531936800,6.521936767578125,0.1335497796535492,-0.4186113178730011,0.38687387108802795
1772649727541977600,6.5319775390625,0.2620595395565033,-0.49771544337272644,0.36899712681770325
1772649727552018700,6.542018798828125,0.37771084904670715,-0.5197010636329651,0.4248707890510559
1772649727562059500,6.5520595703125,0.485317200422287,-0.49489232897758484,0.5538463592529297
1772649727572100600,6.5621005859375,0.5709489583969116,-0.4848552346229553,0.6754487156867981
1772649727582142500,6.572142578125,0.6273629665374756,-0.5731915235519409,0.7711171507835388
1772649727592183600,6.58218359375,0.6776493787765503,-0.6724656820297241,0.837022602558136
1772649727602224600,6.592224609375,0.717504620552063,-0.7339958548545837,0.8854348659515381
1772649727612265500,6.602265380859375,0.7372344732284546,-0.7487717866897583,0.8923999071121216
1772649727622306600,6.612306640625,0.6748642921447754,-0.7050431966781616,0.8195832371711731
1772649727632348400,6.622348388671875,0.5225294232368469,-0.6892621517181396,0.6644060611724854
1772649727642389500,6.632389404296875,0.3049052357673645,-0.6693928241729736,0.4846402704715729
1772649727652430600,6.6424306640625,0.06783051043748856,-0.6598657369613647,0.30218470096588135
1772649727662471400,6.652471435546875,-0.14704717695713043,-0.6319305300712585,0.10766314715147018
1772649727672512500,6.662512451171875,-0.34899401664733887,-0.5830429196357727,-0.1167248860001564
1772649727682553600,6.6725537109375,-0.5429887771606445,-0.4948672354221344,-0.40509888529777527
1772649727692595700,6.682595703125,-0.6900138854980469,-0.37496036291122437,-0.675685703754425
1772649727702636800,6.69263671875,-0.7963680028915405,-0.22896401584148407,-0.8838362693786621
1772649727712677600,6.702677734375,-0.8609672784805298,-0.060435179620981216,-1.0003769397735596
1772649727722718700,6.71271875,-0.8761377334594727,0.0656852051615715,-1.0064489841461182
1772649727732759800,6.722759765625,-0.8330645561218262,0.16673359274864197,-0.8603143095970154
1772649727742801700,6.7328017578125,-0.6701899170875549,0.26465481519699097,-0.5795465111732483
1772649727752842800,6.7428427734375,-0.42004382610321045,0.3308779299259186,-0.30254241824150085
1772649727762883600,6.752883544921875,-0.20459358394145966,0.3752906620502472,-0.1319323182106018
1772649727772924700,6.762924560546875,-0.01290908269584179,0.3900223970413208,-0.09946819394826889
1772649727782965800,6.7729658203125,0.12222077697515488,0.36131030321121216,-0.1380491405725479
1772649727793007600,6.783007568359375,0.19395193457603455,0.31157711148262024,-0.18697589635849
1772649727803048700,6.793048583984375,0.22087222337722778,0.2842709422111511,-0.21126100420951843
1772649727813089500,6.803089599609375,0.2310991883277893,0.27171090245246887,-0.2281278371810913
1772649727823130600,6.813130615234375,0.22090859711170197,0.25339794158935547,-0.23703637719154358
1772649727833171700,6.823171630859375,0.18882334232330322,0.23274624347686768,-0.23723284900188446
1772649727843212500,6.833212646484375,0.13186019659042358,0.20559744536876678,-0.2429245561361313
1772649727853254700,6.843254638671875,0.05236115679144859,0.18811586499214172,-0.2702998220920563
1772649727863295500,6.85329541015625,-0.03137794882059097,0.202646866440773,-0.3368298411369324
1772649727873336600,6.863336669921875,-0.11181771010160446,0.25061631202697754,-0.38526999950408936
1772649727883377700,6.873377685546875,-0.15486371517181396,0.25589895248413086,-0.4173317849636078
1772649727893418500,6.88341845703125,-0.25940626859664917,0.14486631751060486,-0.46583935618400574
1772649727903460900,6.8934609375,-0.3372150659561157,0.0051302555948495865,-0.49973630905151367
1772649727913501700,6.903501708984375,-0.3898305296897888,-0.13007892668247223,-0.4989016652107239
1772649727923542800,6.913542724609375,-0.654830276966095,-0.09945283830165863,-1.1078424453735352
1772649727933583600,6.92358349609375,-0.6560119390487671,-0.49072325229644775,-1.9567182064056396
1772649727943624700,6.933624755859375,0.11093046516180038,0.08873797953128815,-1.0387388467788696
1772649727953665800,6.943665771484375,0.4597647786140442,0.47420734167099,0.6768187284469604
1772649727963707600,6.953707763671875,0.4166351556777954,0.7481427192687988,1.44296395778656
1772649727973748700,6.963748779296875,0.13942980766296387,0.42308056354522705,1.1079154014587402
1772649727983789600,6.97378955078125,0.3472690284252167,-0.2586868107318878,1.161501169204712
1772649727993830700,6.98383056640625,0.585915744304657,-0.48057544231414795,1.3444634675979614
1772649728003871700,6.993871826171875,0.4274619221687317,-0.26403889060020447,1.058103084564209
1772649728013913600,7.00391357421875,0.28495386242866516,-0.048760078847408295,0.4779992401599884
1772649728023954700,7.01395458984375,0.1434531956911087,0.002845057751983404,0.016974089667201042
1772649728033995500,7.02399560546875,-0.010478775016963482,0.014342390932142735,-0.1138724833726883
1772649728044036600,7.03403662109375,-0.13248483836650848,0.08103034645318985,0.008040639571845531
1772649728054077700,7.04407763671875,-0.15782584249973297,-0.02205749787390232,0.22202259302139282
1772649728064118500,7.054118408203125,-0.13854454457759857,-0.1870725452899933,0.3608209788799286
1772649728074160600,7.06416064453125,-0.016656283289194107,-0.16953115165233612,0.3484939634799957
1772649728084201500,7.074201416015625,0.11290570348501205,0.006861189845949411,0.27535027265548706
1772649728094242600,7.08424267578125,0.11415757238864899,0.20011524856090546,0.2564544081687927
1772649728104283600,7.09428369140625,0.0464182049036026,0.28456994891166687,0.3304242193698883
1772649728114324500,7.104324462890625,0.02183435671031475,0.2745876908302307,0.4510400891304016
1772649728124366600,7.11436669921875,0.07281285524368286,0.25154709815979004,0.6136735081672668
1772649728134407400,7.124407470703125,0.1161728948354721,0.20447573065757751,0.7108042240142822
1772649728144448500,7.134448486328125,0.11694014817476273,0.09631704539060593,0.7401500940322876
1772649728154489600,7.144489501953125,0.14651943743228912,0.013054421171545982,0.7912641763687134
1772649728164530400,7.154530517578125,0.1875225305557251,-0.03781994432210922,0.8440584540367126
1772649728174571500,7.164571533203125,0.23422837257385254,-0.1066933423280716,0.8776583075523376
1772649728184613600,7.174613525390625,0.2636488378047943,-0.18453861773014069,0.8506253361701965
1772649728194654700,7.18465478515625,0.24737682938575745,-0.2708093523979187,0.7543898820877075
1772649728204695800,7.19469580078125,0.14933042228221893,-0.34759521484375,0.5593098998069763
1772649728214736600,7.204736572265625,0.02390143647789955,-0.34677210450172424,0.27848660945892334
1772649728224777700,7.21477783203125,-0.0847957506775856,-0.2425229251384735,-0.03464866802096367
1772649728234819600,7.224819580078125,-0.1877518594264984,-0.11011771112680435,-0.36839520931243896
1772649728244860700,7.234860595703125,-0.31824755668640137,-0.006295439321547747,-0.6442712545394897
1772649728254901800,7.24490185546875,-0.4801810383796692,0.07192864269018173,-0.8276166915893555
1772649728264942600,7.254942626953125,-0.6385943293571472,0.1417466104030609,-0.9020941257476807
1772649728274983700,7.264983642578125,-0.7686570882797241,0.18172727525234222,-0.9135993719100952
1772649728285024800,7.275024658203125,-0.8205211162567139,0.2268955558538437,-0.8384305834770203
1772649728295066600,7.285066650390625,-0.804736316204071,0.32700270414352417,-0.6782983541488647
1772649728305107700,7.295107666015625,-0.649175763130188,0.44970545172691345,-0.4727734625339508
1772649728315148500,7.3051484375,-0.3744715452194214,0.5737781524658203,-0.24450664222240448
1772649728325189600,7.315189697265625,-0.06279352307319641,0.6858266592025757,0.004269354045391083
1772649728335230500,7.32523046875,0.17907188832759857,0.7862120866775513,0.18140572309494019
1772649728345272600,7.3352724609375,0.36182811856269836,0.7655878067016602,0.1790032833814621
1772649728355313700,7.345313720703125,0.4542505443096161,0.6625720858573914,0.0746803879737854
1772649728365354500,7.3553544921875,0.4458317458629608,0.5310404300689697,-0.004152110777795315
1772649728375395600,7.3653955078125,0.38169217109680176,0.3721914291381836,-0.05244123563170433
1772649728385436400,7.3754365234375,0.28217408061027527,0.25228258967399597,-0.08966557681560516
1772649728395477500,7.3854775390625,0.15676209330558777,0.14183185994625092,-0.11695326864719391
1772649728405519400,7.395519287109375,-0.04273797199130058,0.048394326120615005,-0.1593630462884903
1772649728415560400,7.405560546875,-0.23596321046352386,-0.036995694041252136,-0.23323576152324677
1772649728425601500,7.4156015625,-0.4335487186908722,-0.0754123255610466,-0.3398738205432892
1772649728435642400,7.425642333984375,-0.6221221089363098,-0.09286588430404663,-0.42129969596862793
1772649728445683500,7.435683349609375,-0.716832160949707,-0.06632135808467865,-0.42959409952163696
1772649728455725300,7.445725341796875,-0.6818549036979675,0.04756401479244232,-0.37392017245292664
1772649728465766400,7.455766357421875,-0.7123957872390747,0.14305511116981506,-0.23097872734069824
1772649728475807500,7.465807373046875,-0.9964154958724976,0.01475299522280693,-0.4028102159500122
1772649728485848300,7.475848388671875,-1.036779761314392,-0.4348597228527069,-0.8253931999206543
1772649728495889400,7.485889404296875,-0.4796401858329773,-0.1262303739786148,-0.21049770712852478
1772649728505930500,7.495930419921875,0.021792033687233925,0.8122411966323853,0.9721546173095703
1772649728515972600,7.50597265625,0.45401808619499207,1.4760154485702515,1.0532033443450928
1772649728526013700,7.516013671875,0.6723703742027283,0.7873552441596985,0.37338101863861084
1772649728536054500,7.526054443359375,0.7391878962516785,-0.307672381401062,0.2004820853471756
1772649728546095600,7.536095703125,0.6550402641296387,-0.7092365622520447,0.17027784883975983
1772649728556136700,7.54613671875,0.42237886786460876,-0.953090250492096,0.08103132992982864
1772649728566178600,7.556178466796875,0.07175320386886597,-0.960858166217804,0.01586271822452545
1772649728576219600,7.5662197265625,-0.3222528100013733,-0.7713618874549866,-0.04641246423125267
1772649728586260500,7.576260498046875,-0.6346905827522278,-0.6458367109298706,0.015882866457104683
1772649728596301600,7.586301513671875,-0.7724109292030334,-0.6513111591339111,0.15796567499637604
1772649728606342700,7.5963427734375,-0.6287128925323486,-0.5384072661399841,0.2010287195444107
1772649728616383500,7.606383544921875,-0.36465391516685486,-0.3228813707828522,0.18746982514858246
1772649728626425600,7.616425537109375,-0.06972051411867142,-0.005421912297606468,0.16826310753822327
1772649728636466400,7.626466552734375,0.22545847296714783,0.28501030802726746,0.13906589150428772
1772649728646507500,7.636507568359375,0.47447147965431213,0.5667399764060974,0.05120741203427315
1772649728656548600,7.646548583984375,0.5160460472106934,0.6644127368927002,-0.06780552864074707
1772649728666589400,7.65658935546875,0.44856664538383484,0.6566112637519836,-0.05935824662446976
1772649728676630500,7.666630615234375,0.37795963883399963,0.6253789663314819,0.1177695170044899
1772649728686672400,7.67667236328125,0.33094847202301025,0.5336170792579651,0.40154504776000977
1772649728696713500,7.68671337890625,0.39470234513282776,0.39347419142723083,0.6925703883171082
1772649728706754600,7.696754638671875,0.48330065608024597,0.3003295958042145,0.8280344605445862
1772649728716795400,7.70679541015625,0.5696296095848083,0.20377543568611145,0.8117693662643433
1772649728726836500,7.71683642578125,0.5973911881446838,0.0663648471236229,0.7371499538421631
1772649728736878300,7.72687841796875,0.5382062196731567,-0.07839100062847137,0.6373263597488403
1772649728746919400,7.73691943359375,0.41930168867111206,-0.16917629539966583,0.5255857110023499
1772649728756960500,7.74696044921875,0.23155179619789124,-0.15445326268672943,0.3831198513507843
1772649728767001300,7.75700146484375,-0.014262753538787365,-0.10551342368125916,0.1745743602514267
1772649728777042400,7.76704248046875,-0.2284633219242096,-0.00996127538383007,-0.06876058876514435
1772649728787083300,7.777083251953125,-0.3973122537136078,0.14799454808235168,-0.2904199957847595
1772649728797125600,7.787125732421875,-0.5084415078163147,0.31995224952697754,-0.4899221360683441
1772649728807166500,7.79716650390625,-0.5543913841247559,0.43212831020355225,-0.6543248891830444
1772649728817207600,7.80720751953125,-0.6152566075325012,0.503111720085144,-0.7253608107566833
1772649728827248600,7.81724853515625,-0.6448573470115662,0.5782509446144104,-0.6892076134681702
1772649728837289500,7.82728955078125,-0.6249100565910339,0.6760811805725098,-0.5481109619140625
1772649728847330600,7.83733056640625,-0.6056215763092041,0.7917095422744751,-0.37413594126701355
1772649728857372400,7.847372314453125,-0.5744082927703857,0.8654739856719971,-0.2545121908187866
1772649728867413500,7.85741357421875,-0.5346108078956604,0.8781759142875671,-0.20981286466121674
1772649728877454600,7.86745458984375,-0.481629341840744,0.7856148481369019,-0.2213747203350067
1772649728887495400,7.877495361328125,-0.3593382239341736,0.6100236177444458,-0.22047747671604156
1772649728897536500,7.88753662109375,-0.21518728137016296,0.44985130429267883,-0.2260090708732605
1772649728907578400,7.897578369140625,-0.16694597899913788,0.39309215545654297,0.03994910418987274
1772649728917619500,7.907619384765625,-0.2021523118019104,0.2514442205429077,0.3674326241016388
1772649728927660500,7.91766064453125,-0.07131732255220413,0.29368916153907776,0.3893589675426483
1772649728937701400,7.927701416015625,0.0443294532597065,0.4200294613838196,0.27755773067474365
1772649728947742500,7.937742431640625,0.07215122878551483,0.2777860164642334,0.053061775863170624
1772649728957783600,7.947783447265625,0.022326335310935974,0.15721246600151062,-0.06661844998598099
1772649728967825400,7.957825439453125,-0.033385660499334335,0.09329020977020264,-0.09228892624378204
1772649728977866500,7.967866455078125,-0.06203629821538925,0.09178974479436874,-0.16321025788784027
1772649728987907300,7.9779072265625,-0.07798118144273758,0.14621862769126892,-0.30480360984802246
1772649728997948400,7.987948486328125,-0.07486440986394882,0.24726679921150208,-0.4830116033554077
1772649729007989500,7.997989501953125,-0.03761771321296692,0.31749221682548523,-0.5837246179580688
1772649729018030300,8.0080302734375,-0.017399510368704796,0.3848269283771515,-0.40030619502067566
1772649729028072700,8.01807275390625,-0.10383586585521698,0.2565014362335205,-0.04326869547367096
