time,seconds_elapsed,z,y,x
1772648280950174000,0.068174072265625,-0.24017536829710004,0.029262919363379478,-0.3552634905926883
1772648280960214000,0.078214111328125,-0.2780757676243782,-0.009164718708395957,-0.3202661192305386
1772648280970254800,0.0882548828125,-0.34614217263460156,-0.02614800221323967,-0.3354671954937279
1772648280980295000,0.098294921875,-0.407744350066781,-0.03729308108389377,-0.3966580156460404
1772648280990336000,0.1083359375,-0.4979050979852676,0.010354220753908157,-0.44633068583160634
1772648281000375800,0.118375732421875,-0.6001017361342906,0.06748539025187492,-0.4232274581417441
1772648281010416600,0.128416748046875,-0.526565667541325,0.07687164275646209,-0.422744643060863
1772648281020457700,0.138457763671875,-0.398167543426156,-0.014773790761828422,-0.43324543267861004
1772648281030497800,0.148497802734375,-0.41637072411477566,-0.09593523966670035,-0.4145652821280062
1772648281040539000,0.158538818359375,-0.5084691620975732,-0.10906477035284041,-0.3933072439134121
1772648281050579000,0.168578857421875,-0.6824035872459411,-0.039265842461585994,-0.37820612089335914
1772648281060619800,0.178619873046875,-0.7934212452322245,0.07510404856204986,-0.3825912041097879
1772648281070659800,0.188659912109375,-0.5235404745012522,0.08344692949354648,-0.45422538460418577
1772648281080701000,0.198700927734375,-0.27489801437109707,-0.06391279246211051,-0.46207186032086606
1772648281090741800,0.20874169921875,-0.36353432920128104,-0.18469313504993914,-0.4547378641709685
1772648281100781800,0.21878173828125,-0.721693979626894,-0.1541477746605873,-0.4927027070365846
1772648281110823000,0.228822998046875,-0.5419304099336266,-0.10102408723831176,-0.45817032283768055
1772648281120863000,0.238863037109375,-0.15635229896754024,-0.2757692442476749,-0.19896978994458914
1772648281130904000,0.248904052734375,-0.1246896249860525,-0.4199579349517822,-0.07407645907998085
1772648281140944000,0.25894384765625,-0.2138742213487625,-0.46447979824542995,-0.14728577993661165
1772648281150984700,0.268984619140625,-0.3461576624646783,-0.4923141461104154,-0.19725816372111438
1772648281161025800,0.27902587890625,-0.2821788190290332,-0.44687692153751846,-0.3302878931596875
1772648281171065900,0.28906591796875,-0.12293518253415822,-0.4629623794198036,-0.3343628875136375
1772648281181106700,0.299106689453125,0.02646422855556011,-0.5537456431508064,-0.1845369215749204
1772648281191146800,0.309146728515625,0.0000526069700717926,-0.6027694940388202,-0.08929507099986075
1772648281201187800,0.319187744140625,-0.0402893402904272,-0.5080021291077137,-0.07817293461337685
1772648281211228000,0.329227783203125,-0.032549101427197455,-0.35365444796085355,-0.006688099461793899
1772648281221269000,0.33926904296875,0.06358253759443759,-0.2752998731702566,0.1203380056478083
1772648281231309000,0.34930908203125,0.20577683961093424,-0.30868659446537494,0.2683404094211757
1772648281241350000,0.359349853515625,0.18581570933908223,-0.27120295924544335,0.3162380327582359
1772648281251391000,0.369390869140625,0.2307312481254339,-0.14727496628165243,0.30785365077257154
1772648281261430800,0.3794306640625,0.2801011359721422,-0.017775310665369033,0.2789084190562367
1772648281271471600,0.3894716796875,0.3328472222536802,0.09134908092021941,0.17740487773790956
1772648281281511700,0.39951171875,0.3833931681424379,0.09944354004859923,0.13248846216872334
1772648281291552800,0.409552734375,0.3443459368675947,0.06163958683311939,0.11206424442976713
1772648281301592800,0.4195927734375,0.25629239036142826,0.0884440071284771,0.07194967618435621
1772648281311634000,0.429634033203125,0.16772563363611698,0.09190671480298042,0.07094049914181232
1772648281321674800,0.4396748046875,0.11939093405604362,0.06866495542526245,0.09254808144643903
1772648281331714800,0.44971484375,0.06194120012819767,0.0699216774880886,0.15775310567617415
1772648281341756000,0.459755859375,-0.058982934844493864,0.02270984445810318,0.17090937823876737
1772648281351796000,0.4697958984375,-0.16742986555993555,-0.010662263789772987,0.14733663334101438
1772648281361836800,0.4798369140625,-0.249476280605793,-0.015504443123936652,0.2991952741511166
1772648281371876900,0.489876953125,-0.2813023284554481,-0.06328384690880776,0.3469470592767
1772648281381918000,0.49991796875,-0.1725371255710721,-0.15187164642214773,0.2800914913609624
1772648281391959000,0.509958984375,-0.05534457834213972,-0.2902951977282762,0.20891557602807878
1772648281401998800,0.519998779296875,-0.13386311152279376,-0.3862298528730869,0.31178733695968985
1772648281412039700,0.530039794921875,-0.14067980580031872,-0.43425534037351604,0.4165175852395594
1772648281422079700,0.540079833984375,-0.10537176105380058,-0.4810469021648168,0.4469586084716022
1772648281432120800,0.550120849609375,-0.034059798251092434,-0.4921867203384638,0.4521420024588704
1772648281442161000,0.560160888671875,0.031170506550371645,-0.5457072981238364,0.531102288057655
1772648281452201700,0.57020166015625,0.03461772439479828,-0.5751163479596376,0.714932376537472
1772648281462242800,0.580242919921875,0.043648295329511165,-0.5788391678750515,0.8578571847856045
1772648281472283000,0.590282958984375,0.028425884017348288,-0.5950701717078686,0.9268722688227892
1772648281482324000,0.600323974609375,0.019638766449689864,-0.5885831477761269,0.8721452378571033
1772648281492364000,0.610364013671875,-0.07480272752791643,-0.5226233596563339,0.7892579880729317
1772648281502404900,0.62040478515625,-0.0806833099991083,-0.4340840754598379,0.7146513676390052
1772648281512444700,0.630444580078125,-0.12449468693584204,-0.3812766143798828,0.7081384786136448
1772648281522485800,0.64048583984375,-0.16755875263661146,-0.38852877746522424,0.6809665401801467
1772648281532526800,0.65052685546875,-0.23581483500003814,-0.3643833472460508,0.6616852088660001
1772648281542566700,0.660566650390625,-0.3301531608641147,-0.40633214518129823,0.6663941172093153
1772648281552607700,0.670607666015625,-0.35368688892573114,-0.35676994963288305,0.7071566279694438
1772648281562647800,0.680647705078125,-0.4388593270376324,-0.37120179508924483,0.8207778925828635
1772648281572689000,0.69068896484375,-0.49209465814083814,-0.4298924689888954,0.9289920374557376
1772648281582729000,0.70072900390625,-0.4900301268264651,-0.498611200428009,0.9472646301187574
1772648281592769800,0.710769775390625,-0.5290066309526562,-0.5572556970983743,0.9262218420900404
1772648281602811000,0.720810791015625,-0.4666428214982152,-0.6406669707566499,0.8663749838925897
1772648281612851000,0.730850830078125,-0.44931583912223577,-0.7129495321571826,0.847721575218439
1772648281622891800,0.740891845703125,-0.40686961305886504,-0.792107240024209,0.8063077609427273
1772648281632931800,0.750931884765625,-0.40318098767399785,-0.8051999458312988,0.776620040296018
1772648281642973000,0.760972900390625,-0.4637935695469379,-0.7074258002996444,0.7691998271673918
1772648281653012700,0.7710126953125,-0.4309142132520675,-0.6220920341461896,0.7523447000868618
1772648281663053800,0.7810537109375,-0.4383861565679312,-0.561482374882698,0.76740329913944
1772648281673094000,0.791093994140625,-0.4668903665184974,-0.49703240680396554,0.8191846320420503
1772648281683134700,0.801134765625,-0.3699501875929534,-0.4765677109241485,0.8586176477640867
1772648281693175800,0.81117578125,-0.32952874535545706,-0.460481083998084,0.9253836377002298
1772648281703215900,0.8212158203125,-0.4661562070250511,-0.43684769495427606,1.0577113563492893
1772648281713257000,0.831257080078125,-0.514158021388948,-0.38378070615530013,1.1193360378742216
1772648281723296800,0.841296875,-0.4803019290164113,-0.29537527747154235,1.0870486561231314
1772648281733337900,0.851337890625,-0.4225272009178996,-0.22592530914843081,1.107424504675716
1772648281743378000,0.8613779296875,-0.4515424291305244,-0.22061960395574567,1.184104424252361
1772648281753419000,0.8714189453125,-0.5317687891423702,-0.21542378887832164,1.2147234343998135
1772648281763459800,0.8814599609375,-0.5587140792131423,-0.15394143843352795,1.1978573475338519
1772648281773500000,0.8915,-0.5701524419419467,-0.05270400070548057,1.1645321471676229
1772648281783541000,0.901541015625,-0.6046195058196783,0.12322832026183604,1.1519937142424286
1772648281793580800,0.911580810546875,-0.5379647211730479,0.2743231370925903,1.1811939436331391
1772648281803622000,0.921621826171875,-0.3896078048735857,0.42112931681871413,1.166860736245662
1772648281813661700,0.93166162109375,-0.3587092471323907,0.6022609599947929,1.1735090882189572
1772648281823702800,0.941702880859375,-0.5035165081262588,0.7977852856606245,1.2377956824295222
1772648281833744000,0.951743896484375,-0.6930119288913905,0.9311258346140384,1.3097438973091542
1772648281843784000,0.961783935546875,-0.7767106411889195,1.0381085379958153,1.3349508192799984
1772648281853824800,0.97182470703125,-0.7622714892089366,1.0386281779557467,1.3652650012619794
1772648281863864800,0.98186474609375,-0.7474871770530939,0.9107283587515353,1.4106968190073965
1772648281873906000,0.991906005859375,-0.772389416988939,0.7004618065059185,1.4101067441597581
1772648281883946000,1.001946044921875,-0.8218369001165032,0.6782084736436605,1.3113808508612215
1772648281893986800,1.01198681640625,-0.8146525415703654,0.8198194228142499,1.20070966822505
1772648281904028000,1.02202783203125,-0.6663473554581404,0.9092793289870024,1.1179428299501537
1772648281914067700,1.032067626953125,-0.45409401330947874,0.9930307943850755,1.0301287912882864
1772648281924108800,1.04210888671875,-0.29259280714616176,1.0580424879997967,1.0183910072214901
1772648281934148900,1.05214892578125,-0.09041311524435877,1.0173509966492653,0.9977736049979925
1772648281944189700,1.062189697265625,0.15959756449908016,1.034459367838502,0.8390523849420249
1772648281954229800,1.072229736328125,0.3209980867668986,1.0011293451666832,0.5474998806290328
1772648281964270800,1.082270751953125,0.4271531071528792,0.8327502160578966,0.22137334493249652
1772648281974312000,1.09231201171875,0.5880138234555721,0.578502483266592,-0.14904256047606468
1772648281984352000,1.10235205078125,0.6821101572573185,0.27332944988012314,-0.6085669282712042
1772648281994392800,1.112392822265625,0.7081935698017477,-0.04581190310418606,-1.099962790492922
1772648282004433000,1.122432861328125,0.7973284818038344,-0.4025421052485704,-1.533764103488624
1772648282014474000,1.132473876953125,0.7089860353536903,-0.8080261091679334,-1.7927341886267065
1772648282024514000,1.14251416015625,0.6713464789196848,-1.1111866336882115,-1.8945510336779057
1772648282034555000,1.152554931640625,0.5541717596083879,-1.3229483929276467,-1.8527485123455523
1772648282044596000,1.162595947265625,0.31180823361724613,-1.3997767810642718,-1.6519016764827072
1772648282054635800,1.1726357421875,0.09022504532635212,-1.272379650685191,-1.4543835466511548
1772648282064676900,1.1826767578125,0.011516834792494773,-0.8478805651724338,-1.3386879599817096
1772648282074717000,1.192717041015625,-0.03275339182764291,-0.26996318831741806,-1.270887658561766
1772648282084757800,1.2027578125,-0.21268442704230545,0.37981881678700447,-1.2492949815653265
1772648282094797800,1.2127978515625,-0.3908813319407403,1.0073393057227134,-1.2477489211671053
1772648282104839000,1.2228388671875,-0.43832069011628627,1.542943727505207,-1.2276555428177118
1772648282114879000,1.23287890625,-0.3114658499203622,1.804432517465949,-1.1910825927019117
1772648282124919800,1.242919921875,-0.09585077625364065,1.7630875306427478,-1.2353618794113397
1772648282134961000,1.2529609375,-0.07239800447374582,1.5166630388230085,-1.2597060470730066
1772648282145001000,1.2630009765625,-0.06040741468966007,1.2000368835300206,-1.1493296095997094
1772648282155042000,1.2730419921875,0.17808628413081168,0.7840186261147261,-1.1433704089343548
1772648282165081900,1.283081787109375,0.11415946314334868,0.3552618831574917,-1.0991080733597278
1772648282175122700,1.293122802734375,0.1556248614758253,-0.044482115805149075,-1.0317892718464134
1772648282185163800,1.303163818359375,0.04962152452021837,-0.32072716087102887,-0.9262168736539781
1772648282195203800,1.313203857421875,0.004702040211111307,-0.41350247520208355,-0.9028688774228095
1772648282205244700,1.32324462890625,0.05918547167927026,-0.49776481273174283,-0.7188445815451443
1772648282215284700,1.33328466796875,-0.043104105450212954,-0.6132838737905025,-0.7037940196685493
1772648282225325800,1.343325927734375,-0.11838321831822395,-0.755247289660573,-0.6603003303788602
1772648282235366000,1.353365966796875,-0.26695056249797344,-0.8445037822157144,-0.5875304238528013
1772648282245407000,1.363406982421875,-0.38212037172764535,-0.8526058401286601,-0.563881691109389
1772648282255446800,1.37344677734375,-0.31227088269293307,-0.7573194197595119,-0.6025910687319934
1772648282265488000,1.38348779296875,-0.24041619131565092,-0.6717939304262399,-0.5067980140149593
1772648282275529000,1.393529052734375,-0.25950521492809053,-0.6596791297405957,-0.3752237440817058
1772648282285569000,1.403569091796875,-0.33824411286115647,-0.8480676121771336,-0.3433132328189909
1772648282295609900,1.41360986328125,-0.363776905785501,-1.1286018788695336,-0.32547888544276354
1772648282305649700,1.423649658203125,-0.3033852731868624,-1.297083883830905,-0.27600860596150156
1772648282315690800,1.433690673828125,-0.2782154683560133,-1.4176549675822256,-0.18807094091996548
1772648282325730800,1.443730712890625,-0.2242746193319559,-1.4964093553453683,-0.08762231548205017
1772648282335772000,1.45377197265625,-0.15313392144292592,-1.5121043526053428,0.06130509418174624
1772648282345812700,1.463812744140625,-0.19411621243357657,-1.511223478117585,0.15300386532247065
1772648282355852800,1.473852783203125,-0.363631359834969,-1.4601719207942485,0.263712749620527
1772648282365894000,1.483893798828125,-0.49934886705279347,-1.2806710936903953,0.3925374285846948
1772648282375934000,1.493933837890625,-0.6027230245485902,-1.120894957754016,0.5158465589977801
1772648282385974800,1.503974853515625,-0.6389706882327795,-1.0251216306507587,0.5701064108431338
1772648282396014800,1.514014892578125,-0.6477694962382317,-0.9562959317058324,0.5196655327640474
1772648282406056000,1.524055908203125,-0.8504279115676879,-0.865249048602581,0.5148799059227108
1772648282416097000,1.534096923828125,-1.269291621541977,-0.7568056250184774,0.5631826029293239
1772648282426136800,1.54413671875,-1.620990259259939,-0.5376859042316675,0.5035343360438943
1772648282436177700,1.554177734375,-1.7257339515432715,-0.3807587279856205,0.29833441953808065
1772648282446217700,1.5642177734375,-1.5739248489633202,-0.4003513172060251,0.11579612443447113
1772648282456258800,1.5742587890625,-1.4567372701704502,-0.4247825786292553,0.16921674897670744
1772648282466299000,1.584298828125,-1.4783368152990937,-0.5636299083054065,0.28274010617360473
1772648282476339700,1.594339599609375,-1.5008090516090393,-0.45803193728029723,0.4688423773691058
1772648282486380800,1.604380859375,-1.4201631510108708,-0.25497546254396436,0.5814689318567514
1772648282496420900,1.6144208984375,-1.312253688172996,-0.19589608158767222,0.49908700124621386
1772648282506462000,1.6244619140625,-1.2498331800952553,-0.36227322322428224,0.4392283064804971
1772648282516502000,1.634501953125,-1.3464406199350953,-0.6203712017029523,0.4739057982385158
1772648282526542800,1.64454296875,-1.5530796293333171,-0.823303173276782,0.5817191072255372
1772648282536583000,1.6545830078125,-1.8932243151187895,-0.943791839441657,0.7025671082220971
1772648282546624000,1.6646240234375,-2.43849497539103,-0.8956833498328923,0.7375356918811797
1772648282556664800,1.674664794921875,-2.278335977616906,-0.286658887052536,0.3465057452499866
1772648282566704600,1.68470458984375,-1.0203834962129592,0.8101005773544311,-0.31361148364692926
1772648282576745700,1.694745849609375,-0.735468822479248,1.8917536580443381,-0.8007480809889733
1772648282586785800,1.704785888671875,-1.5591443361997603,3.2364801675379273,-0.5245563735455274
1772648282596827000,1.714826904296875,-1.9564614002764225,4.458264772495627,0.5393846709735691
1772648282606867000,1.724866943359375,-1.8809099002078173,4.391326494732499,1.145722963409871
1772648282616907800,1.73490771484375,-1.272387249469757,3.4132787499457597,0.7597644748240708
1772648282626948900,1.744948974609375,-0.7177250759959221,2.1163030026644467,-0.11771715562492609
1772648282636989000,1.754989013671875,-0.7449477217033506,0.9034487231373787,-0.6455918599382042
1772648282647029800,1.76502978515625,-0.5229927774906158,0.08891279368400573,-1.1179572968669236
1772648282657069800,1.77506982421875,-0.04936112001836299,-0.20754151119589803,-1.525792247826606
1772648282667111000,1.78511083984375,0.48622810419499873,-0.3431143492460251,-1.6916753223359584
1772648282677151000,1.79515087890625,1.0064484943628311,-0.5496598351418972,-1.6144878916285932
1772648282687192000,1.805192138671875,1.583311685989797,-0.6853402252197265,-1.4228442067883909
1772648282697233000,1.81523291015625,1.9281278707176446,-0.6469324608922005,-1.2762661367297172
1772648282707272700,1.825272705078125,2.055432062116265,-0.2975894463896751,-1.0551622563883662
1772648282717313800,1.835313720703125,2.31618844614923,0.14397767830193042,-0.6937364437736571
1772648282727353900,1.845353759765625,2.739045025151968,0.30890228304266926,-0.4407710058778524
1772648282737394700,1.855394775390625,2.849997801208496,0.28502631741464135,-0.36490547142401336
1772648282747434800,1.865434814453125,2.581959443473816,0.29427228466570376,-0.3231720698051154
1772648282757475800,1.875475830078125,2.32092482702136,0.47080666317939757,-0.2809513230606913
1772648282767517000,1.885516845703125,2.2745348317682743,0.5349176085621118,-0.33102482913210984
1772648282777557000,1.895556884765625,2.1132687495350835,0.30376725824177264,-0.5162101316131651
1772648282787597800,1.905597900390625,1.8583499856144188,-0.06527648203074932,-0.8995815263152122
1772648282797638000,1.915637939453125,1.45425714379251,-0.3845259715646505,-1.2272253347069024
1772648282807679000,1.925678955078125,1.0842425126612185,-0.5233218633145094,-1.3655873650841415
1772648282817718800,1.93571875,0.7668705074369907,-0.6628168432444334,-1.278355217963457
1772648282827759600,1.945759521484375,0.6440858392894268,-0.813679604884982,-1.170529926277697
1772648282837800700,1.95580078125,0.6043284139186144,-0.852052297899127,-0.9719492817811667
1772648282847840800,1.9658408203125,0.6171601307019591,-0.746433284085989,-0.703133363802731
1772648282857881900,1.9758818359375,0.7841662178918719,-0.6168272454857826,-0.43486265861690043
1772648282867922000,1.985921875,0.8271835218414664,-0.5086339972704649,-0.20975173459127544
1772648282877962800,1.995962646484375,0.817976717557013,-0.39562370416224,-0.060854720065742725
1772648282888002800,2.0060029296875,0.7546697820335626,-0.2980290068507194,0.02364391043782234
1772648282898044000,2.0160439453125,0.8168506361365317,-0.2744675139993429,-0.010900164198875427
1772648282908085000,2.0260849609375,0.8761731781989336,-0.3168921127527952,-0.13335267778262494
1772648282918124800,2.036124755859375,0.9234183289766311,-0.3924164325535297,-0.16623276472985743
1772648282928166000,2.046165771484375,0.8585703014910221,-0.45541620182394976,-0.13084741696342825
1772648282938206000,2.0562060546875,0.685055855320394,-0.47414837482273575,-0.03368205097988248
1772648282948247600,2.06624755859375,0.530818064288795,-0.43107378772795196,0.07895020259618758
1772648282958287400,2.076287353515625,0.37593496109098196,-0.4175234012812376,0.17602789029628038
1772648282968328200,2.086328125,0.3064005293548107,-0.4348819478392601,0.16450184928402303
1772648282978369300,2.096369384765625,0.2759729501262307,-0.45892157959640023,0.10981354289352893
1772648282988409300,2.106409423828125,0.18095307173877953,-0.4640606960505247,0.09838029473125934
1772648282998450200,2.1164501953125,0.2000119924739003,-0.43056934533715246,0.037690994360297915
1772648283008490200,2.126490234375,0.2573784320324659,-0.4176461508780718,0.04888078915551305
1772648283018531300,2.13653125,0.24605711981207132,-0.4613151967346668,0.13177417641952632
1772648283028571400,2.1465712890625,0.2435477673396468,-0.5719862332403659,0.2449194940842688
1772648283038612500,2.156612548828125,0.22196195847541092,-0.6746323687225579,0.349910585257411
1772648283048652300,2.16665234375,0.187011641125381,-0.7236193947315216,0.4921240303657949
1772648283058693400,2.176693359375,0.10336042123138904,-0.7085323002368211,0.6461417489059269
1772648283068734500,2.186734375,0.01648264050632715,-0.655342561841011,0.7040016710698604
1772648283078774500,2.1967744140625,-0.07611877856254577,-0.5359422754347324,0.6373430870309472
1772648283088815400,2.2068154296875,-0.031547230908274645,-0.47874037878811354,0.5399149784579873
1772648283098855200,2.216855224609375,-0.06974193700700998,-0.4504986191660166,0.49355143282040953
1772648283108896300,2.226896240234375,-0.10433189661204814,-0.4613105205595493,0.500660826434195
1772648283118937300,2.236937255859375,-0.03992562154456973,-0.4465677094578743,0.5016917769171297
1772648283128977400,2.246977294921875,-0.038974166038632393,-0.3289607362091541,0.6155376440666616
1772648283139018200,2.257018310546875,-0.09715615976378321,-0.20758535033762454,0.714583416969329
1772648283149058300,2.267058349609375,-0.19928440885171292,-0.09695113871097565,0.7433725813411176
1772648283159099400,2.277099365234375,-0.2515926882378757,-0.047211833029985426,0.7991888688482344
1772648283169139500,2.287139404296875,-0.28397710062265397,-0.04319441408216953,0.848017197164148
1772648283179180300,2.29718017578125,-0.18538170183598995,0.0022264438778162,0.7751072976455092
1772648283189221400,2.307221435546875,-0.04964958157092333,0.06354045201838016,0.7556387731961905
1772648283199261400,2.317261474609375,-0.14453531218469143,0.1263449909776449,0.8782016152866184
1772648283209302500,2.327302490234375,-0.19038871634304522,0.21340543479323387,1.0131539833508432
1772648283219342300,2.33734228515625,-0.2383563361763954,0.2492927407324314,1.1201165207274257
1772648283229383200,2.347383056640625,-0.3459931195527315,0.25519115112125873,1.2202125333353877
1772648283239423200,2.35742333984375,-0.3798123870462179,0.24679449417591093,1.3581558999091385
1772648283249464300,2.36746435546875,-0.4148763939037919,0.23865385781824588,1.5849730433307587
1772648283259505200,2.377505126953125,-0.4279943802826106,0.2676876446008682,1.7543612033516167
1772648283269545200,2.387545166015625,-0.4724094222009182,0.5174409885823726,1.8942896062627435
1772648283279586300,2.39758642578125,-0.8493333943292498,1.045040967607498,1.693191133726388
1772648283289626400,2.40762646484375,-0.7867657328657806,1.5298141968190668,1.775282118566334
1772648283299667500,2.41766748046875,-0.7507533392421901,1.769987811550498,1.9795698886632918
1772648283309707500,2.42770751953125,-0.7963695736438036,1.8761855020344256,1.7555924987122415
1772648283319748400,2.437748291015625,-0.6763017632395029,1.8359891007244586,1.7629395004741846
1772648283329789400,2.44778955078125,-0.2779448347210884,1.668560988730192,1.9794084144912658
1772648283339829500,2.45782958984375,0.07983546099811792,1.542906318104267,2.0263022676132616
1772648283349870300,2.467870361328125,0.259233996771276,1.486025323975086,1.7195599390834568
1772648283359910100,2.47791015625,0.28731618191748853,1.3765110562890768,1.206913345170766
1772648283369951200,2.487951171875,0.3463691132582724,1.2536539074271917,0.6683747696325183
1772648283379991300,2.4979912109375,0.5225456182450056,1.0938321787834167,0.2552193543024361
1772648283390032400,2.508032470703125,0.7464455590456723,0.7347218035042286,-0.23540187028497456
1772648283400073200,2.5180732421875,1.0966045661062,0.2232984677761793,-0.8832467698469757
1772648283410113300,2.52811328125,1.2737433402538298,-0.19360300221443175,-1.454264450316131
1772648283420154400,2.538154296875,1.3723856469221412,-0.40494624378085137,-1.9505542220592498
1772648283430194400,2.5481943359375,1.3117847554869948,-0.42846623557806013,-2.3787039390340445
1772648283440235300,2.5582353515625,1.1510416742146015,-0.3987432974874973,-2.7301071009367703
1772648283450275300,2.568275390625,0.8896107519209384,-0.4350385997056961,-2.9185470212996005
1772648283460316400,2.57831640625,0.5751368062257767,-0.5229115289479493,-3.013452333396673
1772648283470357500,2.588357421875,0.3500985090449452,-0.5256161117315292,-2.9838755257785317
1772648283480397600,2.5983974609375,0.18319924323037265,-0.38570027604103085,-2.772963661366701
1772648283490438400,2.6084384765625,0.1065425583988428,-0.21595336571037768,-2.3906543429382143
1772648283500478200,2.618478271484375,0.15052549251019953,-0.0481061515212059,-1.8952762792125344
1772648283510519300,2.628519287109375,0.15223887229934333,0.06994272027611732,-1.3378789816863834
1772648283520559400,2.638559326171875,0.10571078374981879,0.21455635839402673,-0.8715675840996205
1772648283530600200,2.64860009765625,0.09148352095484732,0.42880642731785773,-0.48096010066419836
1772648283540641300,2.658641357421875,0.13519246043041347,0.5608242032349109,-0.20141732922717928
1772648283550681300,2.668681396484375,0.12911504021286963,0.6646499038904905,-0.13437880595996976
1772648283560722400,2.678722412109375,0.06797989577054978,0.7996919960647821,-0.30766806507259603
1772648283570762500,2.688762451171875,-0.00015577508360147476,0.8782003001123666,-0.48016792737320063
1772648283580803300,2.69880322265625,-0.1695505109757185,0.9384761973768472,-0.5656247353844345
1772648283590843400,2.708843505859375,-0.16563070718348025,0.8481342476725577,-0.7532363882295787
1772648283600884500,2.718884521484375,-0.11264818179756403,0.5515700526773929,-0.891336552800238
1772648283610925300,2.72892529296875,-0.005587152482569217,0.1813221973121166,-0.9697551327377557
1772648283620965000,2.738965087890625,0.19351532393097876,-0.15409867482185363,-0.9583147241823374
1772648283631006200,2.749006103515625,0.31174072133898734,-0.4588748178452253,-0.8881750200293957
1772648283641046300,2.75904638671875,0.2579196993023157,-0.7517424964100122,-0.6421705071873962
1772648283651087400,2.76908740234375,0.1594046722754836,-0.9930021528124808,-0.40707682606875895
1772648283661128200,2.779128173828125,0.06843991449773311,-1.1614280436724425,-0.1628146268494427
1772648283671168300,2.789168212890625,-0.01108867250829935,-1.2433785971283913,0.03774374746084213
1772648283681209300,2.799209228515625,0.002765080799162388,-1.1663023717105387,0.17722075334265827
1772648283691249400,2.80924951171875,0.06017214462906122,-1.0500035584509373,0.21364844976887107
1772648283701290500,2.81929052734375,-0.03567804710268974,-1.020581649133563,0.2563913206912577
1772648283711330300,2.829330322265625,-0.22488310661911964,-1.10261052852273,0.21626623105183243
1772648283721371400,2.839371337890625,-0.3689773970380425,-1.1238514694720505,0.2223749231904745
1772648283731412500,2.84941259765625,-0.40491643316447734,-1.1258084487587212,0.13948358175307513
1772648283741452500,2.85945263671875,-0.37141982175409793,-1.1227250957906245,0.04630991575419902
1772648283751493400,2.869493408203125,-0.315585121807456,-1.1336913109630347,-0.07521686128675938
1772648283761533200,2.879533203125,-0.31194150460809467,-1.137002627468109,-0.16068360617011784
1772648283771574300,2.88957421875,-0.2768207991272211,-1.1614859113395213,-0.18486849161684513
1772648283781615400,2.899615478515625,-0.1865419777870178,-1.1912906824946403,-0.20950813509374855
1772648283791655400,2.909655517578125,-0.002877309001982212,-1.2723241211056708,-0.27311507647708055
1772648283801696300,2.9196962890625,0.03563420796096325,-1.306338034388423,-0.26846125932186843
1772648283811736300,2.929736328125,0.09311550607085227,-1.244223815780878,-0.22834464524984358
1772648283821777400,2.93977734375,0.06559124706834554,-1.0941273623377084,-0.16665522792562842
1772648283831817500,2.9498173828125,-0.2211266766950488,-0.8395201485842466,-0.10302212918773293
1772648283841858300,2.9598583984375,-0.6009565993979573,-0.5397767390310764,-0.13174129706323146
1772648283851899400,2.9698994140625,-1.0067202970415354,-0.21417641916573046,-0.19288959324806929
1772648283861939500,2.979939453125,-1.219603753787279,0.08587094177007674,-0.23750614908784626
1772648283871980500,2.98998046875,-1.2127104871422052,0.2568734051197767,-0.19725816372111438
1772648283882020400,3.000020263671875,-1.030147057597339,0.26563246563673015,0.03275017695724964
1772648283892061200,3.010061279296875,-0.9981827703207731,0.2651566648185253,0.47601752969548106
1772648283902101200,3.020101318359375,-0.9984335302114486,0.3718044371575117,0.9217572638966143
1772648283912142300,3.030142333984375,-0.963283014114201,0.4197317249804735,1.2403351377792655
1772648283922183200,3.04018310546875,-0.9270064165964722,0.2033259393274784,1.25645917410627
1772648283932223200,3.05022314453125,-0.9641510291203856,-0.10350830526947974,1.1655755187407135
1772648283942264300,3.060264404296875,-1.1028215409249067,-0.3753378719806671,1.048177073676139
1772648283952303600,3.0703037109375,-1.3563736926674843,-0.5310621021777391,1.0531360112577677
1772648283962344700,3.0803447265625,-1.5448635896518825,-0.637841391941905,1.1344329231105743
1772648283972385500,3.090385498046875,-1.5642629943877457,-0.8338181375503539,1.1279171114757656
1772648283982425600,3.100425537109375,-1.6783797874331474,-1.07187461399734,1.1885820080578327
1772648283992466700,3.110466796875,-1.9604428711280226,-1.1472504652380942,1.1856390864737332
1772648284002506800,3.1205068359375,-2.116199250029027,-0.8307593345016241,0.9534157000944018
1772648284012547800,3.1305478515625,-1.2932690017178654,0.13448153568208218,0.34980376388207074
1772648284022588700,3.140588623046875,-0.6183379423096775,1.4896049360275267,-0.24538550416082142
1772648284032628700,3.150628662109375,-1.4540639593079685,3.02733414375484,-0.08132555342540145
1772648284042669800,3.160669921875,-1.8262749314397573,4.778361234247684,0.3252813170440495
1772648284052710000,3.1707099609375,-1.0928750241890548,5.473128043982387,0.2227880340360105
1772648284062750700,3.180750732421875,-0.6763377113357186,4.6723833239942785,-0.09340016823112963
1772648284072790800,3.190790771484375,-0.4936398417562246,3.247682529553771,-0.42351606582477686
1772648284082832000,3.200831787109375,0.032362638944387435,1.8638193569362163,-1.2682526338830589
1772648284092873000,3.210873046875,0.39919133351594205,0.7256874331772327,-1.828980537136644
1772648284102912800,3.220912841796875,0.6618558892577886,-0.2502934422075748,-2.1926748792052266
1772648284112953600,3.23095361328125,1.1642816795378923,-1.0829413669347763,-2.5729560528069735
1772648284122993700,3.24099365234375,1.9135642155751584,-1.6769003625303507,-2.583665662869811
1772648284133034800,3.25103466796875,2.363580019660294,-1.981110103842616,-2.286575398173928
1772648284143075600,3.26107568359375,2.377212531432509,-1.9167419688284395,-1.8690823920309543
1772648284153115600,3.27111572265625,2.2546496893420813,-1.469611949312687,-1.4345003039211035
1772648284163156700,3.28115673828125,2.271387473653257,-0.8839134170621633,-0.9921661403797566
1772648284173196800,3.29119677734375,2.613978675808012,-0.2979875057965517,-0.6971744553983211
1772648284183238000,3.30123779296875,2.8074077827602624,0.19335867206454277,-0.5801292076855897
1772648284193278700,3.31127880859375,2.734638022364676,0.47058512938320635,-0.5628210761405528
1772648284203318800,3.32131884765625,2.4722040605083104,0.5664262610256672,-0.6669197485186159
1772648284213359900,3.33135986328125,1.9787346068829297,0.6308703838855028,-0.910697744417563
1772648284223400000,3.34139990234375,1.5862053616046905,0.6614771190732717,-1.3200208150431514
1772648284233440800,3.351440673828125,1.444437760567665,0.5688315686017275,-1.5762949390955268
1772648284243481900,3.36148193359375,1.1603946089714765,0.3824982651293278,-1.7300445082187652
1772648284253521700,3.371521728515625,0.7120528755784035,0.16988602654039858,-1.7869763557523488
1772648284263562800,3.381562744140625,0.41288200521618124,-0.11512392426133156,-1.6855653150230645
1772648284273602800,3.391602783203125,0.29996611239314075,-0.47759939205944535,-1.4195052716240286
1772648284283643600,3.4016435546875,0.324182854282856,-0.8153238649606704,-1.0629564173959194
1772648284293684700,3.411684814453125,0.6047405018508434,-1.077833814662695,-0.803383982450515
1772648284303724800,3.421724853515625,0.789679136094451,-1.2944786697685717,-0.5225266212835907
1772648284313766000,3.431765869140625,0.8570040750876069,-1.3835650664538144,-0.2688287774600088
1772648284323805700,3.4418056640625,0.9308353272348642,-1.2611463090091943,-0.005800941363722086
1772648284333846800,3.4518466796875,0.9763090844258665,-0.9430746310830116,0.26695494641214607
1772648284343886800,3.461886962890625,1.02049397085011,-0.512059880065918,0.4532084626466036
1772648284353928000,3.471927978515625,0.967244318960607,-0.0524894811719656,0.5616825736299157
1772648284363968800,3.48196875,0.7790121961295604,0.28633447740375995,0.6932600584335625
1772648284374008600,3.492008544921875,0.5899444992572069,0.3862164088696241,0.7415966577097773
1772648284384049700,3.502049560546875,0.4253264762476086,0.31923896813988684,0.7099431899480522
1772648284394089700,3.51208984375,0.3523068327441811,0.1346592303365469,0.6155310681954026
1772648284404130800,3.522130859375,0.2313029105335474,-0.10975625974833965,0.47104675554558634
1772648284414171600,3.532171630859375,0.1375695648252964,-0.36543899377882477,0.2633205354325473
1772648284424211700,3.542211669921875,0.07810323037803173,-0.5383984364151955,0.013324322605878115
1772648284434252800,3.552252685546875,-0.017129998499155044,-0.6180751997202635,-0.20237974451854823
1772648284444292900,3.56229296875,-0.04170972848236561,-0.7000842053651809,-0.3555430381864309
1772648284454333700,3.572333740234375,-0.05229074372947216,-0.7737702038228511,-0.3721766314707696
1772648284464374800,3.582374755859375,-0.08562719614207744,-0.7923083155542612,-0.25809783234819766
1772648284474414800,3.592414794921875,-0.0944813875965774,-0.7800421236991882,-0.14119053180143237
1772648284484456000,3.6024560546875,-0.1337438690572977,-0.7139069790124892,0.07774813333004713
1772648284494495700,3.612495849609375,-0.191918410128355,-0.6440478453665971,0.3036804567411542
1772648284504536800,3.622536865234375,-0.21806626621112227,-0.6056792440056801,0.5335609332561493
1772648284514578000,3.632577880859375,-0.22259455729052424,-0.5639730226546525,0.7623566832743585
1772648284524617700,3.64261767578125,-0.16306611739248036,-0.507837293934822,0.9341462053485214
1772648284534658600,3.652658447265625,-0.0051950844250619405,-0.4432067085921764,1.0283724491402506
1772648284544698600,3.66269873046875,0.12471037551313638,-0.3873977276086807,1.1568731568470596
1772648284554739700,3.67273974609375,0.15661927934065462,-0.3419353685945272,1.2557910655863582
1772648284564780800,3.68278076171875,0.05715864202678203,-0.1804950988382101,1.2785013484358787
1772648284574820900,3.69282080078125,-0.1240603871718049,0.04040098397135734,1.279719345923513
1772648284584861700,3.70286181640625,-0.34539223105013367,0.19202245502471924,1.321111679019779
1772648284594901800,3.71290185546875,-0.4607159156672656,0.21666823598146437,1.3256471304923296
1772648284604942800,3.72294287109375,-0.5017103354871273,0.15126082104742525,1.3740382364347576
1772648284614983700,3.732983642578125,-0.42228725468218326,0.018072247785329818,1.4745387381903827
1772648284625023700,3.743023681640625,-0.34649113220274447,-0.046294718185067175,1.6444116129882633
1772648284635064800,3.75306494140625,-0.2632818108573556,0.06144494104385376,1.8219801568552851
1772648284645104600,3.763104736328125,-0.25431378376483915,0.28352877233326435,2.020460117456317
1772648284655145700,3.773145751953125,-0.3282918970368802,0.41617432475984095,2.149915349408984
1772648284665186800,3.783186767578125,-0.3533206859618425,0.3839075474053621,2.1531448328495024
1772648284675226600,3.7932265625,-0.3484469424456358,0.2726630949258804,2.0931648497916755
1772648284685267700,3.803267822265625,-0.2682391410037875,0.17905483690202234,2.0012553585097193
1772648284695307800,3.813307861328125,-0.19973843622952697,0.1925894412577152,1.9335767837733029
1772648284705348600,3.8233486328125,0.04253390434682369,0.48936815578639503,1.8203282979950308
1772648284715389700,3.8333896484375,-0.3999024043947458,1.0017927775114774,1.1150183208055793
1772648284725429800,3.8434296875,-0.42493689240813254,1.3731599922955036,0.6752680362775921
1772648284735470800,3.853470947265625,-0.3015926906816661,1.4726017787784338,0.49320393455699085
1772648284745511700,3.86351171875,-0.3129880910515785,1.472383167591691,0.19611703086197374
1772648284755551700,3.8735517578125,-0.15350129345059393,1.3266618604928255,0.2618697521023452
1772648284765592800,3.8835927734375,0.09752426242381333,1.2675421475261448,0.46042701572328804
1772648284775633000,3.8936328125,0.18106383863687514,1.5601421150654553,0.558556988955289
1772648284785674000,3.903674072265625,0.16023147848844527,2.041899795848131,0.3214426156640053
1772648284795714800,3.91371484375,0.35455694975852964,2.215082525846362,-0.2965016511529684
1772648284805754600,3.923754638671875,0.6633586950361728,1.9207815996080635,-0.9618645256184041
1772648284815795700,3.933795654296875,0.8197937038511037,1.3101391802370548,-1.5915962608627974
1772648284825835800,3.943835693359375,0.9045774349063634,0.623792408323288,-2.1920665380485356
1772648284835876600,3.953876708984375,0.957190980849415,-0.0408124873816967,-2.7404256658554074
1772648284845917700,3.963917724609375,0.94364176344648,-0.6080933194100856,-3.088190763516724
1772648284855957800,3.973957763671875,0.8063853562235832,-1.074443003180623,-3.225928378385305
1772648284865998800,3.983998779296875,0.6548229218810796,-1.2814321411907672,-3.2172815460711717
1772648284876039000,3.994038818359375,0.5709761794149876,-1.2843974207371474,-3.1274817404195665
1772648284886079700,4.004079833984375,0.4723196980908513,-1.0308721570014954,-3.0557436611592768
1772648284896120800,4.014120849609375,0.3825160930469632,-0.6187181737989187,-2.89049873842299
1772648284906161000,4.024160888671875,0.3041419367730617,-0.08437631929814815,-2.6553046656697985
1772648284916201700,4.03420166015625,0.2259109883621335,0.5277198060125112,-2.157249053297937
1772648284926241800,4.04424169921875,0.271071149559319,1.0477671777009963,-1.4784952207311988
1772648284936283000,4.054282958984375,0.07537775093689561,1.406227564638853,-0.7309354168333113
1772648284946324000,4.064323974609375,-0.13829773296937345,1.6343378166109324,-0.09895414909645915
1772648284956364500,4.074364501953125,-0.2073117940932512,1.739517269963026,0.30675986418649553
1772648284966405600,4.084405517578125,-0.18567133243232964,1.6240274349987507,0.4473690889686346
1772648284976445700,4.09444580078125,-0.15176204856783151,1.3024345972090958,0.2648490601740777
1772648284986486800,4.10448681640625,-0.17382161242365837,0.8850415443092584,-0.04744242691546678
1772648284996527600,4.114527587890625,-0.2231412313878536,0.4539268400490284,-0.22155966128483412
1772648285006567700,4.124567626953125,-0.22857114748209714,0.12386311103403568,-0.5061304900169372
1772648285016608800,4.13460888671875,-0.1970516813635826,-0.02320902615189552,-0.6674040249042212
1772648285026648800,4.14464892578125,-0.00032090251743793486,-0.38332302551567554,-0.7792344605781137
1772648285036689700,4.154689697265625,0.24186054490506648,-0.880598008903861,-0.9313529213681816
1772648285046730800,4.164730712890625,0.34353374370187517,-1.326599316650629,-1.0295736416235566
1772648285056770800,4.174770751953125,0.28289982677996156,-1.566364350581169,-0.991429788929224
1772648285066812000,4.18481201171875,0.10614128412157296,-1.6438567555844783,-0.8234460888788103
1772648285076852700,4.194852783203125,-0.11830109299272298,-1.546175549033284,-0.6775812816560268
1772648285086892500,4.204892578125,-0.21613047584295272,-1.1376473551124333,-0.5095804843403399
1772648285096933600,4.21493359375,-0.3576546235129237,-0.6465548597514629,-0.2491454412162304
1772648285106973700,4.2249736328125,-0.558893819694221,-0.3581920913904905,-0.12520283520519732
1772648285117014500,4.2350146484375,-0.6251514217168093,-0.15346972926855088,-0.1093866957835853
1772648285127055600,4.2450556640625,-0.5575365598663687,-0.4165343902438879,-0.33987039888873694
1772648285137095700,4.255095703125,-0.4379208771437406,-0.7018599828660488,-0.5318041527166962
1772648285147136800,4.26513671875,-0.3857955531090498,-0.9887976868599653,-0.5810859238885343
1772648285157176800,4.2751767578125,-0.30089754802435636,-1.3443062382549047,-0.47945671036392445
1772648285167217700,4.2852177734375,-0.30381606581956144,-1.6086013178080318,-0.34993075126260514
1772648285177258800,4.2952587890625,-0.3143348294854164,-1.774411473211646,-0.20072788565829394
1772648285187298800,4.305298828125,-0.38002544527500864,-1.8600906918019056,-0.03324365956261754
1772648285197339600,4.315339599609375,-0.3622010347709059,-1.967284407585859,0.054587037973105906
1772648285207379700,4.325379638671875,-0.2628524795293808,-1.7510796974629164,0.14903028551638126
1772648285217420800,4.3354208984375,-0.16683394549340008,-1.4960457827299833,0.11137596990466117
1772648285227462000,4.3454619140625,-0.3046925563931465,-1.2452379612594842,0.04384440242350101
1772648285237501700,4.355501708984375,-0.43903234551697967,-0.8920575605511665,-0.022999621184915303
1772648285247542500,4.36554248046875,-0.5990969430059194,-0.48094928700923917,-0.12871551950126886
1772648285257583600,4.37558349609375,-0.7141933947384357,-0.07612228569388389,-0.10339476189240812
1772648285267623700,4.385623779296875,-0.7164192540943622,0.14140052129030226,0.04127747454494238
1772648285277664800,4.395664794921875,-0.7893743079289793,0.28469489350318905,0.2338135781802237
1772648285287704800,4.405704833984375,-0.7910007400870323,0.4259960460722446,0.3209346661418676
1772648285297745700,4.41574560546875,-0.7388961665794253,0.7465162861943244,0.46653600012287494
1772648285307786800,4.425786865234375,-0.9464423539504409,0.9455652788549661,0.698479985038936
1772648285317826800,4.435826904296875,-1.119945109683275,0.9583528642356395,0.7823565381214023
1772648285327867600,4.44586767578125,-1.1897218257427216,0.7564373762279748,0.7242623688101768
1772648285337907700,4.45590771484375,-1.2755308081924914,0.34132863487303255,0.4450982214272022
1772648285347948800,4.46594873046875,-1.3163573240995405,-0.2175041022837162,0.13018529979288576
1772648285357990000,4.475989990234375,-1.452302502593398,-0.703157621461153,0.08458265552520751
1772648285368030000,4.486030029296875,-1.8907126245588064,-1.0002268433690071,0.18328984412327406
1772648285378070800,4.49607080078125,-2.103489990581572,-1.184831131091714,0.19805442866533993
1772648285388110600,4.506110595703125,-2.113883666563034,-1.2435972083151339,0.16903993110507726
1772648285398151700,4.516151611328125,-1.9718349104970692,-0.9255769683152437,-0.07293488782942295
1772648285408192500,4.526192626953125,-0.9998656088411807,0.16365969937145708,-0.7303269295461475
1772648285418232600,4.536232666015625,-0.4735340423166752,1.7021049464136362,-1.0368393948428332
1772648285428273700,4.546273681640625,-0.9960025036722421,3.19757088342905,-0.906773191384971
1772648285438314800,4.556314697265625,-1.0754928044945,4.432855021429062,-0.6229533271506429
1772648285448354800,4.566354736328125,-0.6660977646112441,4.83903869805038,-0.43504152231514454
1772648285458395600,4.576395751953125,-0.4353101101234555,4.108725358638167,-0.47995823014527556
1772648285468435700,4.586435791015625,-0.005317980152368545,2.8244050947904586,-0.9320962870813906
1772648285478476800,4.596476806640625,0.38657121365666386,1.5864286489665507,-1.3755587240003049
1772648285488518000,4.606517822265625,0.44404140585064883,0.6994780561655759,-1.7856819320276378
1772648285498557700,4.6165576171875,0.30380525216460225,0.5633516758859157,-2.138096901321411
1772648285508598800,4.626598876953125,0.2848787256374955,0.5383236176133156,-2.0420475337557495
1772648285518638600,4.636638671875,0.6479319933235644,0.19836393300592897,-1.8188767840124667
1772648285528679700,4.6466796875,1.0553989877536891,-0.19701193387508392,-1.7636197378233074
1772648285538720500,4.656720458984375,1.4744482834279535,-0.5456698887228966,-1.8181090145103633
1772648285548760600,4.666760498046875,1.9366028535962103,-0.8016080588191747,-1.644263875080645
1772648285558801700,4.6768017578125,2.1100500797495245,-0.9556360064923762,-1.3877178022190928
1772648285568842800,4.6868427734375,2.471304481320083,-0.9737117614090443,-1.0454111160941422
1772648285578882800,4.6968828125,2.6856372600913048,-0.9642945292443037,-0.6279939516663551
1772648285588923600,4.706923583984375,2.7665768829390407,-0.8964601794242858,-0.320607626144588
1772648285598963700,4.716963623046875,2.548205934692919,-0.6298240897029638,-0.132772539807111
1772648285609004800,4.7270048828125,2.507367728348076,-0.2505494627952575,-0.09240969588905572
1772648285619045600,4.737045654296875,2.3226833611264825,0.11719956149160861,-0.33888840211406346
1772648285629085700,4.747085693359375,2.047989052633941,0.4621300202488899,-0.6809419902607798
1772648285639126800,4.757126708984375,1.700650655952096,0.7059691717505454,-0.9948644395530223
1772648285649166800,4.767166748046875,1.2336144512221217,0.8158306454390287,-1.1845311252318322
1772648285659208000,4.7772080078125,0.8540823424220084,0.7268652447849512,-1.3615439349122345
1772648285669248800,4.787248779296875,0.5591720521137118,0.412311804112792,-1.4826035328328608
1772648285679288600,4.79728857421875,0.5646300252586602,-0.08958324029147624,-1.4406931672118604
1772648285689329700,4.80732958984375,0.6292594415575266,-0.5081313084453344,-1.3263250297538935
1772648285699370500,4.81737060546875,0.7013137471601366,-0.8424936114370822,-1.1281873067192734
1772648285709410600,4.82741064453125,0.7748571222767233,-1.1275333728551864,-0.9101856301769614
1772648285719451600,4.83745166015625,0.8190767877534031,-1.3322428754955529,-0.7315152625478804
1772648285729491700,4.84749169921875,0.8469026600509881,-1.4581670107126234,-0.5498144411817193
1772648285739532800,4.85753271484375,0.6782640032231807,-1.4940350274294614,-0.26645050402134657
1772648285749573600,4.86757373046875,0.529458466373384,-1.4410498716950415,-0.04403101103678345
1772648285759613700,4.87761376953125,0.56133887475878,-1.312878249812126,0.1697470564611256
1772648285769654800,4.88765478515625,0.5346726938903331,-1.0409095668911934,0.32804289071187376
1772648285779694800,4.89769482421875,0.4305845429062843,-0.5646037217736244,0.4374366007581353
1772648285789735700,4.907735595703125,0.33365824637562036,0.04490940130650997,0.6992258349701762
1772648285799776800,4.91777685546875,0.19491729968339203,0.5519599287778139,0.9819299930475651
1772648285809816800,4.92781689453125,0.13201689913421868,0.8086462868928909,1.0928744396671652
1772648285819858000,4.93785791015625,0.09618307694792746,0.7454185540854931,1.054023753877729
1772648285829897700,4.947897705078125,0.09161445385813713,0.4429460118293762,0.9554263092644512
1772648285839938600,4.9579384765625,0.023736849418282507,-0.028138299247622487,0.9312667043894529
1772648285849979600,4.967979736328125,-0.05022533563226461,-0.49717736823260783,0.9569481120042502
1772648285860019700,4.978019775390625,-0.10185235475599765,-0.8944330575108528,0.9922834831491112
1772648285870060800,4.988060791015625,-0.14094284065067766,-1.1513193221122027,0.9791565828114748
1772648285880101600,4.9981015625,-0.20089082113504408,-1.2232587691634893,1.0699880695983768
1772648285890141700,5.0081416015625,-0.2930909659266472,-1.136879877871275,1.180148672363907
1772648285900182800,5.018182861328125,-0.2358139582172036,-0.9326853390157223,1.2011119654156266
1772648285910222800,5.028222900390625,-0.19560615873038767,-0.6955892320334911,1.1773412137277424
1772648285920263700,5.038263671875,-0.2543172908961773,-0.4553296925842762,1.1512205379128455
1772648285930304800,5.0483046875,-0.24453853194266556,-0.3213239577203989,1.0529330360315738
1772648285940344800,5.0583447265625,-0.18077625386714935,-0.2994458879113197,0.9079624011695384
1772648285950384600,5.068384521484375,-0.12684300362765788,-0.32863223490715027,0.7750199116230011
1772648285960424400,5.078424560546875,-0.03650573009848594,-0.37472178590893745,0.6867139977909624
1772648285970465500,5.088465576171875,0.033006489805877205,-0.38934360097944737,0.5756982395008206
1772648285980506400,5.09850634765625,0.03934066126346588,-0.4384603908479213,0.49926265007406473
1772648285990546400,5.10854638671875,0.05929536179453134,-0.5125783509820699,0.3990320513010025
1772648286000587500,5.11858740234375,-0.08547463592886924,-0.4614075511932373,0.3784878604441881
1772648286010628400,5.12862841796875,-0.20908172637522218,-0.38498949742317196,0.4194219283789396
1772648286020668400,5.13866845703125,-0.3553980767577886,-0.35272155102491376,0.57799789474532
1772648286030709500,5.14870947265625,-0.33801614932417867,-0.3604121055275202,0.7493598390571773
1772648286040749600,5.15874951171875,-0.21373072122484443,-0.36333062332272525,0.8395563889414072
1772648286050790700,5.168790771484375,-0.15273469299227,-0.3158113317787647,0.9887843889869748
1772648286060831500,5.17883154296875,-0.15692425363659857,-0.1794365296959877,1.1276391713172196
1772648286070871600,5.18887158203125,-0.14396832595169543,-0.01733107402920723,1.2464357927419245
1772648286080912600,5.19891259765625,-0.1400660578161478,0.23665888460874557,1.3184917057797312
1772648286090952400,5.208952392578125,-0.30610300771296023,0.46307343857884403,1.3962301944985984
1772648286100993300,5.2189931640625,-0.45560821726471185,0.5771107366472482,1.4964119856938718
1772648286111034600,5.22903466796875,-0.4738090598657727,0.6136907010257244,1.605274949864298
1772648286121074400,5.239074462890625,-0.3741059920981526,0.5744406406551599,1.7017327521003782
1772648286131115500,5.249115478515625,-0.1810682225510478,0.5725789384365082,1.8758384421624241
1772648286141155600,5.259155517578125,-0.4117044858694076,0.8212485788345336,1.70169665787369
1772648286151196400,5.269196533203125,-0.7025859590530396,1.2372872945159672,1.3226004562728106
1772648286161237500,5.279237548828125,-0.7098822535410523,1.4751836119651793,1.434232300634682
1772648286171277600,5.289277587890625,-0.7603630252391099,1.6462135478436946,1.2210275029800832
1772648286181318400,5.299318359375,-0.6415080977559089,1.7270558477967977,0.81983812751472
1772648286191359500,5.309359375,-0.19162118074744938,1.6015467231214044,0.7786443857304751
1772648286202654700,5.32065478515625,0.019419570741057393,1.5126479579627512,0.7826148967966436
1772648286212695600,5.330695556640625,0.046690585634857416,1.5566349837273359,0.6542191107690334
1772648286222735400,5.3407353515625,0.2380135140880942,1.7519541422098874,0.08069967661201953
1772648286232776400,5.3507763671875,0.3950076180905103,1.7957032675653695,-0.4924475632317364
1772648286242817300,5.3608173828125,0.3879419174879789,1.6136293751031159,-0.7805759383149444
1772648286252857300,5.370857421875,0.6279612184405327,1.2437772410571575,-1.0426781839989125
1772648286262898400,5.3808984375,1.2110521985411644,0.6867699657618999,-1.4777692445442079
1772648286272939500,5.390939453125,1.4802449870079755,0.07781973726153374,-1.782649432463944
1772648286282979600,5.4009794921875,1.4381250702895223,-0.41689328668415543,-1.9089004615478216
1772648286293020400,5.4110205078125,1.3176795126140117,-0.7928636113494634,-2.0284214517243204
1772648286303060500,5.421060546875,1.1158500954546033,-1.0527075567126274,-2.1496021918065846
1772648286313101600,5.4311015625,0.9261141439318656,-1.3089987780302763,-2.2072189528644084
1772648286323142700,5.441142578125,0.6504425148397683,-1.3951087892532348,-2.2137578531138598
1772648286333182500,5.451182373046875,0.3944301104635,-1.178995264545083,-2.13068121823743
1772648286343223600,5.4612236328125,0.1552285556346178,-0.8422089492768049,-1.9915045104764402
1772648286353263600,5.471263671875,0.05989800386279821,-0.45698915022909636,-1.7802081767916678
1772648286363304700,5.4813046875,0.12191665314137935,0.04262450523972511,-1.469912831955403
1772648286373345500,5.491345458984375,0.13238777827322482,0.49006899753212924,-1.0745100770674645
1772648286383385300,5.50138525390625,0.05377630611211061,0.8614356277942657,-0.6889199834026396
1772648286393426400,5.511426513671875,-0.0051876317709684365,1.1418968292504548,-0.3924722543939948
1772648286403466500,5.521466552734375,-0.05346183333545923,1.3289274673372506,-0.18301950274929404
1772648286413507600,5.531507568359375,-0.07053454868942499,1.3749860386788844,-0.06317731779441237
1772648286423548400,5.54154833984375,-0.14949527267962692,1.268202072739601,-0.054587914755940437
1772648286433588500,5.55158837890625,-0.12334697820544242,1.0534773720413446,-0.24807255128771066
1772648286443629600,5.561629638671875,-0.1546601080968976,0.8088748349517584,-0.32578868204429745
1772648286453670400,5.57167041015625,-0.13083587265610694,0.521591678521037,-0.4605097255706787
1772648286463710500,5.58171044921875,0.0007052256599068642,0.21608897478878497,-0.6702649672932922
1772648286473751600,5.59175146484375,0.11550678609907626,-0.09922200625240803,-0.819476308465004
1772648286483791600,5.60179150390625,0.19140636895298957,-0.5143085357755423,-0.9099347241558134
1772648286493832700,5.611832763671875,0.16201280894726514,-0.9947966350138187,-0.8803868503712117
1772648286503873500,5.62187353515625,0.18629121789634226,-1.3327677761524914,-0.8172643315039575
1772648286513913600,5.63191357421875,0.2336550266176462,-1.4507932670742272,-0.6564648438692092
1772648286523954700,5.64195458984375,0.12258768427073954,-1.3958078774333,-0.5088029240965843
1772648286533994500,5.651994384765625,-0.01861848349124193,-1.0997329272598027,-0.27314576387628914
1772648286544035300,5.662035400390625,-0.16645575983077288,-0.6389554906636477,-0.06745470285266637
1772648286554076400,5.672076416015625,-0.2534218033611774,-0.2956710455477238,0.14629720729067922
1772648286564116500,5.682116455078125,-0.33968700514584776,-0.17554419843256472,0.2866786146663129
1772648286574157600,5.692157470703125,-0.3882143046885729,-0.2812432917445898,0.15351283775791524
1772648286584198400,5.702198486328125,-0.3280696325883269,-0.44833355008661746,-0.009567454290390014
1772648286594238500,5.712238525390625,-0.2548036131083965,-0.6579495294690132,-0.13536314082220197
1772648286604279600,5.722279541015625,-0.2011433345913887,-0.8731617214232683,-0.20323782265260815
1772648286614319600,5.732319580078125,-0.13743570931255816,-1.0677730238974095,-0.2731700215347111
1772648286624360400,5.7423603515625,-0.0773807613223791,-1.1919412553578614,-0.34115240152329207
1772648286634401500,5.752401611328125,-0.13156155658215282,-1.239050212535262,-0.33171471109241246
1772648286644441600,5.762441650390625,-0.21596271806061268,-1.2317851899683474,-0.2617079856693745
1772648286654482700,5.772482666015625,-0.2017766640588641,-1.1395096418529749,-0.16205854778513312
1772648286664523500,5.7825234375,-0.08967442570626735,-0.9864414791226387,-0.1089937509432435
1772648286674563300,5.792563232421875,-0.010185293927788735,-0.7723544918060302,-0.1352067812167108
1772648286684604400,5.8026044921875,0.02584814248383045,-0.5920891100704669,-0.1717795852020383
1772648286694644500,5.81264453125,-0.03546323530822992,-0.47859366379380225,-0.14193389751464128
1772648286704685600,5.822685546875,-0.22441899623870848,-0.37957097950577734,-0.12356997330635786
1772648286714726400,5.832726318359375,-0.46300797212719913,-0.29983342592418194,-0.1629265627913177
1772648286724766500,5.842766357421875,-0.6646551645874976,-0.17294190697968004,-0.26519465874135495
1772648286734807600,5.8528076171875,-0.8530603058978915,0.02690612710416317,-0.29409955844730135
1772648286744847600,5.86284765625,-0.9139449827104806,0.11997720951139926,-0.2363201541736722
1772648286754888400,5.872888427734375,-0.8422332069352269,0.05513970341980457,-0.08639964181929827
1772648286764929500,5.882929443359375,-0.703657387676835,-0.051504561787843704,0.06587298661917447
1772648286774969600,5.892969482421875,-0.6424950629666447,-0.06660217767655849,0.27377982399612666
1772648286785010700,5.9030107421875,-0.7095864854648709,-0.0804530083745718,0.5974446457542478
1772648286795051500,5.913051513671875,-0.7905491969272493,-0.08084171543121338,0.8252830950476229
1772648286805091600,5.923091552734375,-0.8450655077517032,-0.2789391064554453,0.913704598083347
1772648286815132700,5.933132568359375,-0.8679208981603383,-0.4388759859114885,0.9914992009036242
1772648286825172500,5.94317236328125,-0.9480895366355776,-0.6101707102060318,0.9903206586435437
1772648286835213300,5.95321337890625,-1.1555866241678594,-0.7898316963076591,1.0143735882736742
1772648286845254400,5.96325439453125,-1.4079215090751647,-0.9388526294738053,1.0242070000238717
1772648286855294500,5.97329443359375,-1.5145815563738345,-1.076671785145998,0.9496155771590769
1772648286865335600,5.98333544921875,-1.537415611733496,-1.0487176102936266,0.8205043363384902
1772648286875375600,5.993375732421875,-1.8826997062340378,-0.5711649799853563,0.7084316163413226
1772648286885416400,6.00341650390625,-0.6423945252016187,0.6199667125552892,-0.07227496261596679
1772648286895457500,6.01345751953125,0.019995909324288366,1.8464444437652825,-0.7000634548380971
1772648286905497600,6.02349755859375,-0.829321410652995,3.1790888857990502,-0.7160634263940155
1772648286915538400,6.033538330078125,-0.617917378810048,4.897033790901303,-0.8482977676711976
1772648286925578500,6.04357861328125,-0.2173185165837407,5.530411189171671,-0.8549889358729124
1772648286935619600,6.05361962890625,-0.46324382670968767,4.56478804167211,-0.7674412930622696
1772648286945660700,6.06366064453125,-0.31387159588783975,3.086579528927803,-1.2454722084067762
1772648286955700500,6.073700439453125,0.3012193273246288,1.7750351580679415,-2.0112899919204414
1772648286965741300,6.0837412109375,0.6432096409767866,0.531832502028346,-2.387219692314416
1772648286975782400,6.093782470703125,0.8874933213755488,-0.37577217174470423,-2.6141373735010625
1772648286985822500,6.103822509765625,1.1223486636936664,-1.052883497801423,-2.6764398081570864
1772648286995863600,6.113863525390625,1.5389327382981777,-1.557069283491373,-2.49348474894613
1772648287005903400,6.1239033203125,1.8123089499294758,-1.8008388768881558,-2.0660892113395035
1772648287015944400,6.1339443359375,1.864578943131864,-1.7594903829336166,-1.6043706945009528
1772648287025985500,6.143985595703125,2.1143135824128985,-1.4367711714625357,-1.212943272984773
1772648287036025600,6.154025634765625,2.224107836084068,-0.8999193799674511,-0.9966944314591586
1772648287046066400,6.16406640625,2.1357602750673887,-0.25877134769558907,-0.8533196874864399
1772648287056106500,6.1741064453125,1.9480343481928108,0.4091214836388826,-0.6947507353827357
1772648287066147600,6.184147705078125,1.8929460826992988,0.9770908824533223,-0.8114527226157486
1772648287076188700,6.194188720703125,1.7921145954236388,1.3432844939917326,-1.1597127641871572
1772648287086228500,6.204228515625,1.4852224831596017,1.4695757089555264,-1.5533011631295084
1772648287096269300,6.214269287109375,1.1511810826852917,1.3919050247758626,-1.838741760433465
1772648287106310400,6.224310302734375,0.9282996712774038,1.1416647740602492,-1.943581314306706
1772648287116350500,6.2343505859375,0.6837120394960046,0.6785147631138563,-1.9180488136433065
1772648287126391300,6.244391357421875,0.6199383632436394,0.1465706174045801,-1.8971217609487472
1772648287136431400,6.254431396484375,0.607727116446197,-0.2711094357430935,-1.5696074241556226
1772648287146472400,6.264472412109375,0.5934481234639882,-0.5490887572556734,-1.094539304139465
1772648287156513500,6.274513427734375,0.7222866848230362,-0.7429939572870731,-0.676401278091222
1772648287166553600,6.2845537109375,0.8520248253703117,-0.8268687568038702,-0.3714579618074
1772648287176594400,6.294594482421875,0.8903732607260346,-0.9049930299699306,-0.10365151313245295
1772648287186634500,6.304634521484375,0.9463497072309255,-0.8915741609483957,0.09928718044310808
1772648287196675600,6.314675537109375,0.9614894086956978,-0.7057067214220761,0.2644936708651483
1772648287206716400,6.32471630859375,0.8747960446268319,-0.4592068262785673,0.3551588611744344
1772648287216756500,6.334756591796875,0.7609954779237509,-0.22774551031291485,0.283078105956316
1772648287226797600,6.344797607421875,0.6454366693764925,0.02304477550089359,0.12197861246168613
1772648287236838700,6.354838623046875,0.5281652116924525,0.16943419111967087,-0.07130377949625254
1772648287246878500,6.36487841796875,0.44051147815883157,0.1817979981303215,-0.19727058481127022
1772648287256919300,6.374919189453125,0.3661567866593599,0.046266076612472534,-0.2596330790914595
1772648287266959400,6.38495947265625,0.24681641374677418,-0.1265069035410881,-0.2792944957643747
1772648287277000400,6.39500048828125,0.19879706372618675,-0.2786918536961078,-0.3338664822988212
1772648287287041500,6.40504150390625,0.12977467316538094,-0.41739071481227874,-0.28713863339349627
1772648287297081300,6.415081298828125,0.057933718052506446,-0.512119501298666,-0.22291998985260725
1772648287307122400,6.425122314453125,0.0035088849037885664,-0.5882412024706601,-0.1751005463182926
1772648287317162500,6.43516259765625,0.007147533667087555,-0.5993348434150219,-0.14726079162582753
1772648287327203600,6.44520361328125,0.02285655945241451,-0.5952046117424965,-0.055347939343005415
1772648287337244400,6.455244384765625,-0.01435819569826126,-0.5604173759996891,0.08032631325498223
1772648287347284500,6.465284423828125,-0.10270224958360194,-0.5557803638488054,0.27714593942835924
1772648287357325600,6.47532568359375,-0.17361352263092994,-0.6298427944034337,0.43992695626914496
1772648287367365400,6.485365478515625,-0.17824059790968894,-0.711775812202692,0.5623537508897483
1772648287377406500,6.495406494140625,-0.12382131771892309,-0.7439426363140345,0.6390792631737887
1772648287387447300,6.505447265625,-0.01917056441605091,-0.7107476381987333,0.6655240563765168
1772648287397487400,6.5154873046875,0.09679185649603604,-0.6947200479835272,0.6446858510091901
1772648287407528400,6.525528564453125,0.14294307455718516,-0.7167565232247114,0.6560859275542199
1772648287417569300,6.5355693359375,0.04150105416774749,-0.6479828467279672,0.691784871314466
1772648287427609300,6.545609375,0.0019768530309200285,-0.5103963307678699,0.6140531045973301
1772648287437650400,6.555650390625,0.06086071141511201,-0.43736675039231776,0.5097558409072458
1772648287447690500,6.5656904296875,0.08955518324077129,-0.40272798320949077,0.3899602715730667
1772648287457731600,6.575731689453125,0.11669628814458846,-0.39951778899133206,0.2832335887789726
1772648287467772400,6.5857724609375,0.08844780652076005,-0.39675124688744545,0.23583470874428747
1772648287477812500,6.5958125,-0.042782618410885334,-0.3446206621557474,0.2536890759952366
1772648287487853600,6.605853515625,-0.16552549324333668,-0.2863981902897358,0.27934549529924985
1772648287497894400,6.615894287109375,-0.34181583386808634,-0.1886380732834339,0.25167890521660446
1772648287507934500,6.6259345703125,-0.4785480710864067,-0.059037295380234715,0.17097922860458492
1772648287517975600,6.6359755859375,-0.5415630379259586,0.09517945286333561,0.14103227249979972
1772648287528015400,6.646015380859375,-0.5799965212166309,0.25690672286748883,0.22390344793200492
1772648287538056400,6.656056396484375,-0.5722086438193917,0.36604689654409883,0.3236908329822123
1772648287548097300,6.66609716796875,-0.658349050180614,0.45455169394910333,0.5635130039274692
1772648287558137300,6.676137451171875,-0.7235089200943708,0.4801677812427282,0.8314256894558668
1772648287568178400,6.686178466796875,-0.7324614573568106,0.49175885031521316,1.1333037729501723
1772648287578218500,6.696218505859375,-0.6653674045100808,0.4760106615632772,1.4320451658539473
1772648287588259600,6.706259521484375,-0.6243745921254158,0.41779403491616246,1.6314171068586407
1772648287598300400,6.716300537109375,-0.5648685101896525,0.34793431674838066,1.8461492602109908
1772648287608340500,6.726340576171875,-0.5405497692301869,0.2974456540048122,2.035874690339714
1772648287618381600,6.736381591796875,-0.4537348246082663,0.27676936120092865,2.1523072129815817
1772648287628422400,6.74642236328125,-0.42804684112221,0.4182715893000364,2.0099325859621167
1772648287638462500,6.75646240234375,-0.4761556229919195,0.7251373980790377,1.7510555859349668
1772648287648503600,6.766503662109375,-0.39324645363688465,1.0135726471543312,1.6777920506730675
1772648287658543600,6.776543701171875,-0.37012276768088337,1.3093506602078675,1.5378222928382455
1772648287668584700,6.786584716796875,-0.21916063731908797,1.5424018757134674,1.3062439263641834
1772648287678625500,6.79662548828125,0.029594051013886926,1.6868220370858906,1.1720960065506398
1772648287688665300,6.806665283203125,0.125511170502007,1.7366829233199357,0.9563787876836956
1772648287698706400,6.81670654296875,0.22321108175367116,1.726411704674363,0.626943127439171
1772648287708747300,6.826747314453125,0.31556904745548964,1.6783435470759867,0.2639253694579005
1772648287718787300,6.836787353515625,0.35435032127052546,1.4669126272261142,-0.09916603828147053
1772648287728828400,6.846828369140625,0.43341304433047767,1.1558715785890816,-0.4242490562744438
1772648287738868500,6.856868408203125,0.6246610078513621,0.6766250038444995,-0.7361264096051454
1772648287748909600,6.86690966796875,0.8248276063650846,0.09856441912651061,-1.1280351848974823
1772648287758950400,6.876950439453125,0.8715244756102561,-0.33665304427742954,-1.6306638042733073
1772648287768990500,6.886990478515625,0.874727071043849,-0.6944903308808803,-2.08939366068989
1772648287779031600,6.897031494140625,0.6909986893728375,-0.9764999308228492,-2.3397541767843064
1772648287789072600,6.90707275390625,0.5357987753108143,-1.086798626884818,-2.5232713999226686
1772648287799112400,6.917112548828125,0.40000937190055846,-0.9816647662401199,-2.561009302164614
1772648287809153500,6.927153564453125,0.2277089776948094,-0.6272726516544819,-2.470730773085356
1772648287819193300,6.937193359375,0.21034458591789007,-0.22365970230400561,-2.301861230111122
1772648287829234400,6.947234375,0.2270864618822932,0.09165127873718738,-2.0842520600177346
1772648287839275300,6.957275146484375,0.12495382888019084,0.43355917480289935,-1.7854278111360966
1772648287849315300,6.9673154296875,-0.0003375613912940025,0.8046691999554634,-1.3687280011974274
1772648287859356400,6.9773564453125,-0.08125088075399399,1.134421378803253,-0.9110831635385751
1772648287869396500,6.987396484375,-0.16918723062127827,1.3356348560214042,-0.5058699393846094
1772648287879437600,6.9974375,-0.29079613298773765,1.3753648088634014,-0.20167904890328645
1772648287889478400,7.007478515625,-0.4292679073497653,1.311729664298892,0.03761778299361467
1772648287899518500,7.0175185546875,-0.3682233638003468,1.1100573373973368,0.1551071212120354
1772648287909559600,7.0275595703125,0.03563917639702558,0.7487608502507209,0.0629297727741301
1772648287919600400,7.037600341796875,0.09781067814975976,0.34261809016168115,-0.1873810589596629
1772648287929640400,7.047640380859375,0.04176350449621677,0.02668517782986164,-0.4067340039804578
1772648287939681500,7.057681640625,0.13361878137290478,-0.1869347764968872,-0.5833909859605133
1772648287949722600,7.06772265625,0.11995499767959117,-0.3622293840825557,-0.6281574716649949
1772648287959762700,7.0777626953125,0.2103846256673336,-0.6105383744746447,-0.5709079364843667
1772648287969803500,7.087803466796875,0.22546733624786136,-0.8575538179248571,-0.5001612063489854
1772648287979843300,7.09784326171875,0.16371961286514997,-1.079775011858344,-0.41921164662912486
1772648287989884400,7.107884521484375,0.07309037065207957,-1.1794769105821847,-0.2997561229042709
1772648287999925200,7.11792529296875,0.021052724900841712,-1.196496434444189,-0.22659663253873585
1772648288009965300,7.12796533203125,0.15157821643352506,-1.2509148378521204,-0.1686985703215003
1772648288020006400,7.13800634765625,0.10552636709362267,-1.2704974902004003,-0.16949498139619826
1772648288030046500,7.14804638671875,0.009974281525611877,-1.2054676764070986,-0.14839432570040226
1772648288040087600,7.158087646484375,-0.1139279924750328,-1.1584569189071654,-0.1742323851816356
1772648288050128400,7.16812841796875,-0.2388835749208927,-1.1415747576892374,-0.26071137584745885
1772648288060168400,7.17816845703125,-0.29774609825611115,-1.2296107685387134,-0.367348334531486
1772648288070209500,7.18820947265625,-0.3686573713034391,-1.2746855895400047,-0.4869350834205746
1772648288080250600,7.198250732421875,-0.359302682980895,-1.2540209871739147,-0.5648819541931152
1772648288090290400,7.20829052734375,-0.27304829485118387,-1.2286983298689127,-0.5677196618370711
1772648288100331500,7.21833154296875,-0.19843173754513263,-1.2265700856685637,-0.5271152642481028
1772648288110372600,7.22837255859375,-0.06631751551628112,-1.2692512895315884,-0.4922584704004228
1772648288120412700,7.23841259765625,0.02192716964781284,-1.3138959024220704,-0.4372423933602869
1772648288130453500,7.24845361328125,-0.03601239362359047,-1.3485375922143459,-0.3635756841249764
1772648288140493300,7.258493408203125,-0.13317922091186046,-1.3170417992323635,-0.33294556806161996
1772648288150534400,7.268534423828125,-0.2443780806839466,-1.1836106493860483,-0.35819033782482146
1772648288160575500,7.278575439453125,-0.41863370061069727,-0.932230580985546,-0.3933867388904094
1772648288170615600,7.288615478515625,-0.6600926789775491,-0.6654015990406275,-0.42553705025836824
1772648288180656400,7.298656494140625,-0.80918872320652,-0.31379122412800786,-0.5020629483170808
1772648288190697500,7.308697509765625,-0.9782447286635637,0.031222821259498594,-0.4476541895203292
1772648288200737500,7.318737548828125,-1.0595613681301475,0.2613666248857975,-0.3131865362331271
1772648288210778400,7.3287783203125,-1.1113923853933811,0.3797118492811918,-0.1304981651343405
1772648288220818400,7.338818359375,-1.0395432469740509,0.46187809131443497,0.07739917376190424
1772648288230859500,7.348859619140625,-0.9938362655490636,0.4700111288875341,0.36520372371822596
1772648288240900600,7.358900634765625,-1.0264853202193975,0.3864221605747938,0.5393449234850705
1772648288250940700,7.368940673828125,-0.9115934511482715,0.19763328064382074,0.5084827522315085
1772648288260981500,7.3789814453125,-0.825533708807826,-0.14979776275753975,0.401206618861109
1772648288271022600,7.389022705078125,-0.7587503293454647,-0.5394429770320653,0.26539193487912416
1772648288281062400,7.3990625,-0.8411673312693834,-0.8514706986188888,0.2899960686512291
1772648288291103500,7.409103515625,-1.0200117402911186,-1.0423135884702206,0.3743706343837082
1772648288301144300,7.419144287109375,-1.189245440402627,-1.1268488977223634,0.4470343040563166
1772648288311184400,7.429184326171875,-1.4256658400803803,-1.1319143644183873,0.6415495988100767
1772648288321225500,7.4392255859375,-1.6273942810833453,-1.0303507634758948,0.7951328714556991
1772648288331265500,7.449265625,-1.735775745347142,-0.8038374253064393,0.6481726702116429
1772648288341306400,7.459306396484375,-1.4994044455081224,-0.11368307780325412,0.20195611227899787
1772648288351347500,7.469347412109375,-0.8534738551348447,0.9047457772105931,-0.3814807586498558
1772648288361387500,7.479387451171875,-0.8401859190165996,1.9531933383911846,-0.5551368052482605
1772648288371428600,7.4894287109375,-0.9760387430518865,3.0287083547174927,-0.5351632538862526
1772648288381469400,7.499469482421875,-0.8213587612107396,3.7817110803216694,-0.5726596024572849
1772648288391509500,7.509509521484375,-0.8282701480343937,3.6501772885292767,-0.5411823680453002
1772648288401550600,7.519550537109375,-0.8446201020717621,2.8335937788963315,-0.562205282329768
1772648288411590700,7.529590576171875,-0.7260007369101047,1.7514467772096394,-0.7057282026015221
1772648288421631500,7.539631591796875,-0.46386429669559,0.6504658957153558,-1.0444413942791522
1772648288431672600,7.549672607421875,-0.24996084925234316,-0.1500952843993902,-1.4492984984718262
1772648288441712400,7.55971240234375,-0.04254501026272774,-0.3937777840346098,-1.5630841598667204
1772648288451753500,7.56975341796875,0.18535189121961593,-0.3663970251560211,-1.5301399216420948
1772648288461794300,7.579794189453125,0.2591559630990028,-0.41873102350533004,-1.3784848405800758
1772648288471834400,7.58983447265625,0.46704351125359533,-0.3948112187355757,-1.275582976771146
1772648288481875500,7.59987548828125,0.8799100266396999,-0.32044892845153805,-1.2974028866522014
1772648288491916500,7.60991650390625,1.2256009483754635,-0.23368892888724802,-1.257251055136323
1772648288501956400,7.619956298828125,1.6011191453590987,-0.10120704258978366,-1.1096006796710192
1772648288511997400,7.62999755859375,1.943811762061715,-0.07326748078465462,-0.8600598093964159
1772648288522038500,7.64003857421875,2.1650357616513967,-0.11769055987894535,-0.5735958603940904
1772648288532078600,7.65007861328125,2.057396640187502,-0.13820844725072384,-0.36247605232000346
1772648288542119400,7.660119384765625,1.966719759440422,0.034900048467516896,-0.15773016319200395
1772648288552159500,7.670159423828125,2.060477362807095,0.2661713948190212,0.06518383531123399
1772648288562200600,7.68020068359375,2.042127759385109,0.43975043065845965,0.17674480639398096
1772648288572241700,7.69024169921875,1.9034931956768035,0.5634510446071624,0.15594649464562535
1772648288582281500,7.700281494140625,1.7815052308648824,0.5687035583078861,-0.014215718487650155
1772648288592322600,7.710322509765625,1.5692463357582687,0.5006353997319937,-0.22628683593720197
1772648288602363600,7.72036376953125,1.3044400918126104,0.3450438560038805,-0.4159701804898679
1772648288612403500,7.730403564453125,1.032288453540206,0.18302841670811176,-0.4867418989360332
1772648288622444300,7.7404443359375,0.8093287161991,0.006719663643836975,-0.5892670383870602
1772648288632484400,7.750484375,0.5413602088302374,-0.12801672358214855,-0.6612586540170013
1772648288642525400,7.760525390625,0.32097792076170445,-0.2530792735338211,-0.6715973849408328
1772648288652566500,7.77056640625,0.2933756280869245,-0.3865338042557239,-0.6097872638463974
1772648288662606600,7.780606689453125,0.3693611356586218,-0.5276368039041758,-0.5723663185991347
1772648288672647400,7.7906474609375,0.41982992465794083,-0.6142904204845429,-0.5018314776487648
1772648288682688500,7.8006884765625,0.5167904157191515,-0.7149363220602274,-0.4650869703583419
1772648288692728600,7.810728515625,0.49984892552942034,-0.7514730318188667,-0.4505013956449926
1772648288702769400,7.820769287109375,0.4864785718247294,-0.6977221524089574,-0.30306437066942454
1772648288712810500,7.830810546875,0.5213485174149275,-0.6551227816104889,-0.030258798532932996
1772648288722850600,7.8408505859375,0.4696919799357652,-0.6274912628412246,0.20542700325995683
1772648288732891600,7.8508916015625,0.4776408931136131,-0.5770826795965432,0.3404343163818121
1772648288742931500,7.860931396484375,0.5628130389645696,-0.5358674566328525,0.42148119899630543
1772648288752972300,7.87097216796875,0.5839546111926436,-0.4949813194930553,0.4810954174816608
1772648288763013400,7.881013427734375,0.46505350648015736,-0.434703084141016,0.5738099415361881
1772648288773053400,7.891053466796875,0.35257308246493335,-0.29361937371492386,0.4939744805380702
1772648288783094500,7.901094482421875,0.31630057660043237,-0.19293080204129218,0.35245325547754763
1772648288793135400,7.91113525390625,0.3398424879685044,-0.10538929671049117,0.23731340299472212
1772648288803175400,7.921175537109375,0.4174064969033003,-0.09099076900184154,0.13429887259155512
1772648288813216500,7.931216552734375,0.41218145573139187,-0.10581015247106551,0.14325550150722263
1772648288823257300,7.94125732421875,0.3303095204696059,-0.16344868696928022,0.248936328510195
1772648288833297400,7.95129736328125,0.2653214999914169,-0.22457857071459292,0.36214229032099243
1772648288843338500,7.96133837890625,0.23398761957287786,-0.3097638683080673,0.44531800165772434
1772648288853379600,7.971379638671875,0.22138766571879387,-0.33233108942508693,0.5120497970633209
1772648288863419600,7.981419677734375,0.23511194742769,-0.3510936575621366,0.565045474191755
1772648288873460500,7.99146044921875,0.2680500481724739,-0.36596097182631493,0.580252687934786
1772648288883500500,8.00150048828125,0.3063438307315111,-0.35741117014586926,0.542941486672312
1772648288893541600,8.011541748046875,0.31717268325984477,-0.3657534665554762,0.5354216125614941
1772648288903582500,8.02158251953125,0.28199381785094735,-0.2895376573592424,0.5196384986266493
1772648288913622300,8.031622314453125,0.24886662427484987,-0.14828560462892054,0.49211511640697714
1772648288923663400,8.041663330078125,0.2625701554566622,0.03170271373093128,0.43561143115758894
1772648288933704400,8.051704345703126,0.25441490605175493,0.11707622737288474,0.3340861163988709
1772648288943744500,8.06174462890625,0.240770411580801,0.18556115005612372,0.24726313460096716
1772648288953786000,8.0717861328125,0.2000888571023941,0.25385493408143517,0.14916078002825378
1772648288963827200,8.0818271484375,0.10805676235407591,0.2862193265914917,0.1277579265154898
1772648288973867300,8.0918671875,-0.02601414670050144,0.36585458884239197,0.21003478931635616
1772648288983908000,8.101908203125,-0.16763006430715321,0.40910862415730953,0.23857144023180007
1772648288993948000,8.111947998046874,-0.2703676774650812,0.44412382343709467,0.28109716127216816
1772648289003989000,8.121989013671875,-0.34524756188243627,0.3882090439915657,0.34194369803145525
1772648289014030000,8.132030029296875,-0.300443082255125,0.3224813110619783,0.40009968053251505
1772648289024070100,8.142070068359375,-0.28968524913638827,0.3344827145010233,0.5532167969711125
1772648289034111000,8.152111083984375,-0.22686463582515715,0.3864811972856521,0.757672617111355
1772648289044152000,8.162152099609376,-0.17716507763266562,0.4155407030314207,0.9552002454236149
1772648289054192000,8.172192138671875,-0.15848492708206177,0.39811026028096674,1.1340490383595228
1772648289064233000,8.18223291015625,-0.1745037494689226,0.3472936807572841,1.2392178241871297
1772648289074274000,8.192274169921875,-0.2080313405394554,0.26636077991127965,1.3773111206255853
1772648289084314000,8.202314208984374,-0.3211483088925481,0.2012999864578247,1.5385039914920926
1772648289094355200,8.212355224609375,-0.4079799123883247,0.10579027872681616,1.7158933793999254
1772648289104395300,8.222395263671874,-0.4369505708068609,0.023909867897629736,1.8712281718879937
1772648289114436000,8.23243603515625,-0.5001774268314242,0.11867021856606005,1.6989311386831103
1772648289124477200,8.242477294921875,-0.6104305301859975,0.35289223141670223,1.2706379215843975
1772648289134517200,8.252517333984375,-0.5675917976737022,0.5521732792675494,1.1027465759925543
1772648289144558000,8.26255810546875,-0.4706532261833548,0.46788288468718525,1.1451973321005702
1772648289154599200,8.27259912109375,-0.23045155440121887,0.7160609421759844,1.088898814034462
1772648289164639000,8.282638916015625,-0.07028203523308038,0.6138140351444482,1.1907986611939967
1772648289174680000,8.29268017578125,0.20692659416794776,0.6831137813419104,1.3475241773881017
1772648289184721000,8.302720947265625,0.4343190532594919,0.8454828563809395,1.233085312781483
1772648289194761000,8.312760986328126,0.5395563742786645,1.046801547539234,0.8371902443319559
1772648289204802000,8.322802001953125,0.5681000394567847,1.2189029120415449,0.4512482684895396
1772648289214842000,8.332842041015626,0.7822033933863043,1.1448726301908492,0.15893793154656885
1772648289224883200,8.34288330078125,1.0320528912186622,0.8065314866960048,-0.1036018287718296
1772648289234924000,8.352924072265624,1.2183555072918533,0.4433797270715236,-0.484561193896085
1772648289244964000,8.362964111328125,1.184420212203264,0.2038788970351219,-0.9722995565235614
1772648289255005200,8.373005126953124,1.0790934593349695,-0.0019996493846178055,-1.4528019765481353
1772648289265046000,8.3830458984375,1.0327531484425068,-0.2387532265394926,-1.7223884405076502
1772648289275086000,8.393086181640625,0.8342150279134511,-0.441336823067069,-1.8500016978554426
1772648289285127200,8.403127197265626,0.592605535160005,-0.5132973129063845,-1.9525256682626901
1772648289295168300,8.413168212890625,0.4703559968024492,-0.42215106108188627,-2.0576994225263596
1772648289305208300,8.423208251953126,0.4254647156745195,-0.15370236898064613,-2.107870689883828
1772648289315249200,8.433249267578125,0.32634821562319993,0.2675830151826143,-2.003672210393101
1772648289325290200,8.443290283203124,0.23987141691446304,0.7143570608675479,-1.8215676305316388
1772648289335330000,8.453330078125,0.1624082380056381,1.065226262024045,-1.5667982119537889
1772648289345371000,8.463370849609374,0.006962824749946594,1.294720661830902,-1.284537705990672
1772648289355411000,8.473410888671875,-0.05100479557216167,1.435771054509282,-1.1143393986307084
1772648289365452000,8.4834521484375,-0.012749006935954094,1.409187583488226,-0.9816595055431127
1772648289375493000,8.4934931640625,0.07474076820760965,1.1349345890223979,-0.8754097926110028
1772648289385533200,8.503533203125,0.08808861781954765,0.7991150729596614,-0.8401905951917171
1772648289395574000,8.513573974609375,0.1315679863229394,0.4851788874030113,-0.7666939818263053
1772648289405615000,8.523614990234375,0.2283656880378723,0.1931914988040924,-0.70045888389647
1772648289415655200,8.5336552734375,0.36288492538183925,-0.09432079020738601,-0.604590279725194
1772648289425696300,8.5436962890625,0.41914223465472455,-0.3590641980499029,-0.49122123630717396
1772648289435737000,8.553737060546876,0.5011690682172775,-0.6400286728531122,-0.40615284309163685
1772648289445777200,8.563777099609375,0.5316898786872625,-0.8986346008539199,-0.3911509426623583
1772648289455818200,8.573818359375,0.5472215020790696,-1.120603865852952,-0.356518312959373
1772648289465858000,8.583858154296875,0.5570896928817033,-1.2748890031576157,-0.34904578512161966
1772648289475899000,8.59389892578125,0.5332254176914691,-1.3089853340268134,-0.38508185188174243
1772648289485940000,8.60393994140625,0.41584611571878194,-1.2042448566138744,-0.3884039820417762
1772648289495980000,8.61397998046875,0.22513445103168486,-1.0032073204845189,-0.43114714522510766
1772648289506021000,8.624021240234375,0.05701923355609178,-0.7501718860924244,-0.45824265742152925
1772648289516062000,8.63406201171875,-0.03493511978089809,-0.4813526071131229,-0.427971291667968
1772648289526102000,8.64410205078125,-0.15569471184164285,-0.33244799380302426,-0.41969300040528174
1772648289536143000,8.65414306640625,-0.22527327498048544,-0.3378507296293974,-0.4785727671362459
1772648289546184000,8.664183837890626,-0.2422901684939861,-0.38092590124607084,-0.5487390670351684
1772648289556224000,8.67422412109375,-0.251316940036416,-0.4835808045566082,-0.5143545668743551
1772648289566265000,8.68426513671875,-0.2577338213413954,-0.626916093301773,-0.4446189134776592
1772648289576305200,8.69430517578125,-0.19887246704995631,-0.7682493945747614,-0.34207053928151726
1772648289586346200,8.70434619140625,-0.1420192377105355,-0.8761860376805066,-0.2086962341889739
1772648289596387000,8.714386962890625,-0.10368804575055837,-0.9626093526363372,-0.07998013016581534
1772648289606427100,8.72442724609375,-0.08377659983932971,-1.0505816505998373,0.02436199557930231
1772648289616468200,8.73446826171875,-0.08291150744259357,-1.0486755247175692,0.11052037598863243
1772648289626509300,8.74450927734375,-0.10996785667240619,-0.9573054010093212,0.15532558626830578
1772648289636549000,8.754549072265625,-0.16530454396903513,-0.8225795351773499,0.18289485345631837
1772648289646590000,8.76458984375,-0.2306684120222926,-0.6692839934319257,0.1431309983447194
1772648289656631000,8.774631103515626,-0.37506694608479735,-0.5310971734911203,0.02140066155567765
1772648289666671000,8.784671142578125,-0.5888263088822364,-0.35699966673552985,-0.06833952286317944
1772648289676712000,8.7947119140625,-0.7044774718880653,-0.19859306558668613,-0.1704025977604091
1772648289686752000,8.804751953125,-0.6599407032862306,-0.10331307495832442,-0.32078955858275293
1772648289696793000,8.81479296875,-0.6035851943358779,-0.11523849055171012,-0.33332609181180595
1772648289706834200,8.824834228515625,-0.606772299939394,-0.1409545310884714,-0.2271780856885016
1772648289716874200,8.834874267578124,-0.674680884039402,-0.11597791074216365,-0.06380933208763599
1772648289726915000,8.8449150390625,-0.7787918313771486,-0.02064414409995079,0.0792168907083571
1772648289736956200,8.8549560546875,-0.7847676909163593,0.029329554858803748,0.08919102610349655
1772648289746996200,8.864996337890625,-0.7244140522405504,0.033981180056929586,0.0522977579921484
1772648289757037000,8.875037109375,-0.7714587120100855,-0.03328559900820255,0.022130875526368617
1772648289767078100,8.885078125,-0.8888073265835642,-0.12810849351882933,0.03589052080959081
1772648289777118200,8.8951181640625,-1.0024456884622572,-0.22106500963568687,0.04278568715080618
1772648289787159300,8.9051591796875,-1.087447738443315,-0.30767069542109965,0.07437602654844522
1772648289797199000,8.91519921875,-1.0859808807611464,-0.39388299797475335,0.16287775521352887
1772648289807240000,8.925239990234376,-1.1121844125539064,-0.5118763401925563,0.3155345606639981
1772648289817281000,8.935281005859375,-1.1671201178342103,-0.6403583431988954,0.4573499463655054
1772648289827321000,8.945321044921876,-1.2522124764472244,-0.6997399219721555,0.5461667323291302
1772648289837362200,8.955362060546875,-1.3469330796271561,-0.7120885314136743,0.7314455583125352
1772648289847403000,8.965403076171874,-1.2677666039317845,-0.6372521938771009,0.789798378559947
1772648289857443000,8.975443115234375,-1.0761936462402344,-0.29351357525289057,0.5674973973885178
1772648289867484200,8.985484130859374,-0.4894388829350471,0.38929099400937556,-0.16106383765935897
1772648289877525000,8.99552490234375,-0.4277311993017792,1.3074381045848131,-0.4472450241975486
1772648289887565000,9.00556494140625,-1.030104387499392,2.340040446379781,-0.1313973059311509
1772648289897606100,9.015606201171876,-0.992041491086781,3.0893805578231808,-0.010088847815990447
1772648289907647200,9.025647216796875,-0.6198661747902632,3.1119384265899654,-0.01959317374229431
1772648289917687300,9.035687255859376,-0.5329039306521416,2.7279934697836636,-0.25762992257550354
1772648289927728000,9.04572802734375,-0.6571905277952551,2.2162726124137637,-0.6547831743925809
1772648289937768000,9.055767822265626,-0.7719672460541128,1.592698230755329,-1.072645013847947
1772648289947809000,9.06580908203125,-0.36676118229329585,0.8335854978382587,-1.3480376798681915
1772648289957849900,9.075849853515624,0.1161895076662302,0.03812602477669716,-1.4407057344324885
1772648289967889700,9.0858896484375,0.4329319828152656,-0.4864589903414249,-1.6203801645375788
1772648289977930800,9.0959306640625,0.9021908320307731,-0.7995464501142502,-1.6951424139246343
1772648289987971800,9.105971923828125,1.2364628263905644,-1.092042957279086,-1.6614437040708958
1772648289998012000,9.116011962890624,1.4218714162334798,-1.1700327904105186,-1.4876814206190407
1772648290008052700,9.126052734375,1.5418722988814115,-1.0288795218795537,-1.333587568102777
1772648290018093800,9.13609375,1.6187907033890485,-0.7400280932188034,-1.2039992112897335
1772648290028134000,9.1461337890625,1.6859294721603393,-0.3821551507800817,-1.1193469976596533
1772648290038175000,9.156175048828125,1.7394360214203595,-0.021689269238710403,-1.0997547007001935
1772648290048215000,9.166215087890626,1.7797557568490505,0.3248141379237175,-1.1429147741213441
1772648290058256000,9.176255859375,1.7088269481450318,0.6705085667908192,-1.1737331062331795
1772648290068297000,9.186296875,1.5501310086607931,0.951160322383046,-1.166033783902228
1772648290078337000,9.1963369140625,1.510664090669155,1.0789081658959387,-1.2289321386247873
1772648290088377900,9.2063779296875,1.6053928771555424,1.0158528670459985,-1.295504651815444
1772648290098419000,9.2164189453125,1.6039847639232874,0.828918675071001,-1.29515803033486
1772648290108458800,9.226458740234374,1.5188038502439856,0.4845891048163175,-1.194516804934293
1772648290118499800,9.236499755859375,1.3560779245913028,0.12303367447257041,-1.0271944914020597
1772648290128540700,9.246540771484375,1.1542419315606356,-0.12448621136844157,-0.8150007704861462
1772648290138580700,9.256580810546875,1.0217436786502598,-0.19822481679618356,-0.625843787895143
1772648290148621800,9.266621826171875,0.9442372451215982,-0.22061960395574567,-0.42199031756222244
1772648290158662000,9.276661865234376,0.8689531638175249,-0.27433015135526656,-0.25208602471277114
1772648290168702700,9.28670263671875,0.8613347977682948,-0.1712497161090374,-0.18245529299527405
