time,seconds_elapsed,z,y,x
1772648280950174000,0.068174072265625,-0.01860862225294113,0.05204705521464348,-0.015636436641216278
1772648280960214000,0.078214111328125,-0.02117777429521084,0.06192125752568245,-0.011777251027524471
1772648280970254800,0.0882548828125,-0.022465767338871956,0.06945939362049103,-0.007297957316040993
1772648280980295000,0.098294921875,-0.029299171641469002,0.07066687196493149,0.009535351768136024
1772648280990336000,0.1083359375,-0.028620854020118713,0.0817779004573822,0.03841274604201317
1772648281000375800,0.118375732421875,-0.03394211456179619,0.09817498177289963,0.060606732964515686
1772648281010416600,0.128416748046875,-0.04110344871878624,0.11171891540288925,0.055588822811841965
1772648281020457700,0.138457763671875,-0.04965352639555931,0.13401728868484497,0.04539743810892105
1772648281030497800,0.148497802734375,-0.05442946404218674,0.15496747195720673,0.04190871864557266
1772648281040539000,0.158538818359375,-0.05384809523820877,0.16968010365962982,0.06985300034284592
1772648281050579000,0.168578857421875,-0.043982792645692825,0.1750127524137497,0.11476532369852066
1772648281060619800,0.178619873046875,-0.03909269720315933,0.16006895899772644,0.12648296356201172
1772648281070659800,0.188659912109375,-0.03554747998714447,0.15201818943023682,0.10601875185966492
1772648281080701000,0.198700927734375,-0.028638174757361412,0.1455317884683609,0.09817919880151749
1772648281090741800,0.20874169921875,-0.02460276149213314,0.10243795812129974,0.15595947206020355
1772648281100781800,0.21878173828125,-0.01732460968196392,0.07203078269958496,0.19221921265125275
1772648281110823000,0.228822998046875,0.011651653796434402,0.12293114513158798,0.16386009752750397
1772648281120863000,0.238863037109375,0.038138654083013535,0.19320876896381378,0.13719041645526886
1772648281130904000,0.248904052734375,0.058982204645872116,0.23427075147628784,0.1407303512096405
1772648281140944000,0.25894384765625,0.07792659848928452,0.24617108702659607,0.17718662321567535
1772648281150984700,0.268984619140625,0.09084048122167587,0.22612729668617249,0.21882428228855133
1772648281161025800,0.27902587890625,0.10665113478899002,0.21604910492897034,0.23130279779434204
1772648281171065900,0.28906591796875,0.1258094161748886,0.24934503436088562,0.2120777815580368
1772648281181106700,0.299106689453125,0.13634328544139862,0.2871035933494568,0.1898140162229538
1772648281191146800,0.309146728515625,0.13379928469657898,0.3036790192127228,0.1929553896188736
1772648281201187800,0.319187744140625,0.13200165331363678,0.3079683184623718,0.21138979494571686
1772648281211228000,0.329227783203125,0.1262669861316681,0.30206775665283203,0.21887004375457764
1772648281221269000,0.33926904296875,0.12042960524559021,0.2991076409816742,0.197679802775383
1772648281231309000,0.34930908203125,0.10692782700061798,0.27695223689079285,0.17445139586925507
1772648281241350000,0.359349853515625,0.08847984671592712,0.2434624582529068,0.15429286658763885
1772648281251391000,0.369390869140625,0.07660366594791412,0.19679701328277588,0.1336263120174408
1772648281261430800,0.3794306640625,0.0719178318977356,0.13606654107570648,0.12017016857862473
1772648281271471600,0.3894716796875,0.07814980298280716,0.09092026203870773,0.09832055121660233
1772648281281511700,0.39951171875,0.08456775546073914,0.05847497284412384,0.07981530576944351
1772648281291552800,0.409552734375,0.07577310502529144,0.05411090701818466,0.06879501044750214
1772648281301592800,0.4195927734375,0.054195914417505264,0.08029643446207047,0.07250852137804031
1772648281311634000,0.429634033203125,0.020634924992918968,0.11545787751674652,0.07760892063379288
1772648281321674800,0.4396748046875,-0.007194574922323227,0.1653016060590744,0.09347603470087051
1772648281331714800,0.44971484375,-0.03142232820391655,0.23324277997016907,0.10766737163066864
1772648281341756000,0.459755859375,-0.04760875552892685,0.3014836311340332,0.12258826196193695
1772648281351796000,0.4697958984375,-0.04798683524131775,0.3706377446651459,0.1292722523212433
1772648281361836800,0.4798369140625,-0.0484321154654026,0.42438727617263794,0.1271185427904129
1772648281371876900,0.489876953125,-0.04790651425719261,0.45853692293167114,0.10798823833465576
1772648281381918000,0.49991796875,-0.037514325231313705,0.4893859028816223,0.0779818668961525
1772648281391959000,0.509958984375,-0.01768353208899498,0.534369945526123,0.05840878188610077
1772648281401998800,0.519998779296875,-0.003874243702739477,0.5681646466255188,0.03350822627544403
1772648281412039700,0.530039794921875,-0.003780021332204342,0.5871289968490601,0.001568610779941082
1772648281422079700,0.540079833984375,-0.011097322218120098,0.5762044191360474,-0.043212972581386566
1772648281432120800,0.550120849609375,-0.027570217847824097,0.5549325942993164,-0.09661773592233658
1772648281442161000,0.560160888671875,-0.04486958310008049,0.5385193228721619,-0.13060127198696136
1772648281452201700,0.57020166015625,-0.057005442678928375,0.5320854783058167,-0.15347054600715637
1772648281462242800,0.580242919921875,-0.06707991659641266,0.5240786671638489,-0.16558633744716644
1772648281472283000,0.590282958984375,-0.07825721055269241,0.5067210793495178,-0.17189359664916992
1772648281482324000,0.600323974609375,-0.09249047189950943,0.48560968041419983,-0.1651153266429901
1772648281492364000,0.610364013671875,-0.0988217145204544,0.4670391380786896,-0.1577189415693283
1772648281502404900,0.62040478515625,-0.09539955109357834,0.45910635590553284,-0.1550896018743515
1772648281512444700,0.630444580078125,-0.09119962155818939,0.4409619867801666,-0.149462029337883
1772648281522485800,0.64048583984375,-0.08225113898515701,0.407976359128952,-0.13595980405807495
1772648281532526800,0.65052685546875,-0.08139877766370773,0.3707943558692932,-0.11516616493463516
1772648281542566700,0.660566650390625,-0.09295956045389175,0.334237664937973,-0.10783661156892776
1772648281552607700,0.670607666015625,-0.10715921223163605,0.31385669112205505,-0.10181726515293121
1772648281562647800,0.680647705078125,-0.12073733657598495,0.2978106141090393,-0.09765581041574478
1772648281572689000,0.69068896484375,-0.13609030842781067,0.27872371673583984,-0.09187442064285278
1772648281582729000,0.70072900390625,-0.14931823313236237,0.2542492747306824,-0.08206493407487869
1772648281592769800,0.710769775390625,-0.16168083250522614,0.21624664962291718,-0.08107003569602966
1772648281602811000,0.720810791015625,-0.16820211708545685,0.17760364711284637,-0.07833390682935715
1772648281612851000,0.730850830078125,-0.17628639936447144,0.14294084906578064,-0.08057798445224762
1772648281622891800,0.740891845703125,-0.1855158507823944,0.11578885465860367,-0.07915426045656204
1772648281632931800,0.750931884765625,-0.19376914203166962,0.11375878751277924,-0.07577069848775864
1772648281642973000,0.760972900390625,-0.19986751675605774,0.12623649835586548,-0.074287049472332
1772648281653012700,0.7710126953125,-0.2000400274991989,0.15369288623332977,-0.07333113253116608
1772648281663053800,0.7810537109375,-0.19453394412994385,0.1774112582206726,-0.0652545690536499
1772648281673094000,0.791093994140625,-0.184524267911911,0.18390847742557526,-0.06441778689622879
1772648281683134700,0.801134765625,-0.17125266790390015,0.18663501739501953,-0.06900054961442947
1772648281693175800,0.81117578125,-0.16139043867588043,0.19090300798416138,-0.07174602150917053
1772648281703215900,0.8212158203125,-0.15832246840000153,0.1863439381122589,-0.07760044932365417
1772648281713257000,0.831257080078125,-0.15983916819095612,0.17092955112457275,-0.09034978598356247
1772648281723296800,0.841296875,-0.162051722407341,0.1631520539522171,-0.11065638810396194
1772648281733337900,0.851337890625,-0.15909218788146973,0.18198750913143158,-0.12704998254776
1772648281743378000,0.8613779296875,-0.15644340217113495,0.21864672005176544,-0.13594867289066315
1772648281753419000,0.8714189453125,-0.1594642847776413,0.24628742039203644,-0.14678889513015747
1772648281763459800,0.8814599609375,-0.1743263304233551,0.2621558606624603,-0.16126318275928497
1772648281773500000,0.8915,-0.18637196719646454,0.26931437849998474,-0.17766760289669037
1772648281783541000,0.901541015625,-0.1962895691394806,0.2789795398712158,-0.200856015086174
1772648281793580800,0.911580810546875,-0.20516733825206757,0.30215883255004883,-0.2339647114276886
1772648281803622000,0.921621826171875,-0.1949000507593155,0.3196355700492859,-0.2548271417617798
1772648281813661700,0.93166162109375,-0.16513262689113617,0.33714956045150757,-0.25147324800491333
1772648281823702800,0.941702880859375,-0.12985827028751373,0.3489399254322052,-0.2384977787733078
1772648281833744000,0.951743896484375,-0.09565122425556183,0.3383294641971588,-0.23177729547023773
1772648281843784000,0.961783935546875,-0.05863674730062485,0.30649057030677795,-0.23987117409706116
1772648281853824800,0.97182470703125,-0.01962088979780674,0.2704787254333496,-0.24947716295719147
1772648281863864800,0.98186474609375,0.0025722961872816086,0.23410473763942719,-0.252562940120697
1772648281873906000,0.991906005859375,0.019944965839385986,0.20285333693027496,-0.2476930171251297
1772648281883946000,1.001946044921875,0.03628638759255409,0.18352624773979187,-0.23362591862678528
1772648281893986800,1.01198681640625,0.04610467329621315,0.1610172688961029,-0.21341100335121155
1772648281904028000,1.02202783203125,0.05319400876760483,0.1087399423122406,-0.1948956400156021
1772648281914067700,1.032067626953125,0.07163196057081223,0.060081008821725845,-0.16212555766105652
1772648281924108800,1.04210888671875,0.10519444942474365,0.01834448240697384,-0.12093018740415573
1772648281934148900,1.05214892578125,0.14502058923244476,-0.03512093424797058,-0.07814119756221771
1772648281944189700,1.062189697265625,0.18137432634830475,-0.10019447654485703,-0.04187799617648125
1772648281954229800,1.072229736328125,0.22075387835502625,-0.1629161834716797,-0.015201747417449951
1772648281964270800,1.082270751953125,0.2563142776489258,-0.23931987583637238,0.009703334420919418
1772648281974312000,1.09231201171875,0.27956005930900574,-0.3149802088737488,0.042470093816518784
1772648281984352000,1.10235205078125,0.28973492980003357,-0.38382744789123535,0.07415984570980072
1772648281994392800,1.112392822265625,0.279664546251297,-0.4467576742172241,0.07759300619363785
1772648282004433000,1.122432861328125,0.2618573307991028,-0.48466113209724426,0.07660604268312454
1772648282014474000,1.132473876953125,0.2528284192085266,-0.48415884375572205,0.06798245757818222
1772648282024514000,1.14251416015625,0.24945737421512604,-0.4418976902961731,0.051947031170129776
1772648282034555000,1.152554931640625,0.2630234956741333,-0.362277626991272,0.03890655189752579
1772648282044596000,1.162595947265625,0.2885800004005432,-0.2672017216682434,0.03305186331272125
1772648282054635800,1.1726357421875,0.3046448528766632,-0.20519860088825226,0.02539791725575924
1772648282064676900,1.1826767578125,0.31467539072036743,-0.18324004113674164,0.025855714455246925
1772648282074717000,1.192717041015625,0.30854296684265137,-0.20039233565330505,0.048978015780448914
1772648282084757800,1.2027578125,0.2866901159286499,-0.24759019911289215,0.08774805068969727
1772648282094797800,1.2127978515625,0.2506635785102844,-0.31206974387168884,0.13996604084968567
1772648282104839000,1.2228388671875,0.20249980688095093,-0.3728278875350952,0.17652884125709534
1772648282114879000,1.23287890625,0.1521712988615036,-0.43091022968292236,0.19987227022647858
1772648282124919800,1.242919921875,0.10368284583091736,-0.4921448230743408,0.23731151223182678
1772648282134961000,1.2529609375,0.07636487483978271,-0.5385631322860718,0.2837055027484894
1772648282145001000,1.2630009765625,0.04697716608643532,-0.5723937749862671,0.30419453978538513
1772648282155042000,1.2730419921875,0.02384737692773342,-0.5801657438278198,0.3173869550228119
1772648282165081900,1.283081787109375,-0.0011613023234531283,-0.5749744772911072,0.31485453248023987
1772648282175122700,1.293122802734375,-0.037292394787073135,-0.5679872035980225,0.31473982334136963
1772648282185163800,1.303163818359375,-0.08728232234716415,-0.5661588907241821,0.3124023675918579
1772648282195203800,1.313203857421875,-0.1125517189502716,-0.5325348973274231,0.3011738657951355
1772648282205244700,1.32324462890625,-0.13891060650348663,-0.4855937063694,0.2996992766857147
1772648282215284700,1.33328466796875,-0.16276848316192627,-0.4382702708244324,0.3045205771923065
1772648282225325800,1.343325927734375,-0.16983623802661896,-0.3916308581829071,0.32575422525405884
1772648282235366000,1.353365966796875,-0.17466524243354797,-0.36458951234817505,0.36350134015083313
1772648282245407000,1.363406982421875,-0.20062653720378876,-0.34749069809913635,0.3779151737689972
1772648282255446800,1.37344677734375,-0.2159586101770401,-0.31326428055763245,0.35674649477005005
1772648282265488000,1.38348779296875,-0.1939563751220703,-0.27135464549064636,0.3274940550327301
1772648282275529000,1.393529052734375,-0.18151161074638367,-0.22170943021774292,0.30234840512275696
1772648282285569000,1.403569091796875,-0.17809396982192993,-0.1641758382320404,0.2839973568916321
1772648282295609900,1.41360986328125,-0.17080816626548767,-0.11303627490997314,0.24960073828697205
1772648282305649700,1.423649658203125,-0.16425758600234985,-0.07534535974264145,0.21080860495567322
1772648282315690800,1.433690673828125,-0.16139018535614014,-0.04556877166032791,0.16770131886005402
1772648282325730800,1.443730712890625,-0.15152397751808167,-0.022183019667863846,0.11971913278102875
1772648282335772000,1.45377197265625,-0.15140126645565033,-0.004002678208053112,0.0809713676571846
1772648282345812700,1.463812744140625,-0.15713612735271454,0.018747108057141304,0.057775769382715225
1772648282355852800,1.473852783203125,-0.1494683474302292,0.03543650358915329,0.04880821332335472
1772648282365894000,1.483893798828125,-0.13712753355503082,0.0544767752289772,0.047457724809646606
1772648282375934000,1.493933837890625,-0.11998583376407623,0.07200974225997925,0.048127733170986176
1772648282385974800,1.503974853515625,-0.09884912520647049,0.08714555203914642,0.048300039023160934
1772648282396014800,1.514014892578125,-0.06880058348178864,0.11140657961368561,0.06884224712848663
1772648282406056000,1.524055908203125,-0.02122347056865692,0.14670199155807495,0.11957919597625732
1772648282416097000,1.534096923828125,0.04628303274512291,0.16947238147258759,0.1895247995853424
1772648282426136800,1.54413671875,0.0893506109714508,0.15952306985855103,0.26223042607307434
1772648282436177700,1.554177734375,0.12530072033405304,0.1465270221233368,0.2927587032318115
1772648282446217700,1.5642177734375,0.1616470068693161,0.1474870890378952,0.28947556018829346
1772648282456258800,1.5742587890625,0.19135506451129913,0.16693416237831116,0.28928714990615845
1772648282466299000,1.584298828125,0.2011277973651886,0.16872140765190125,0.27288928627967834
1772648282476339700,1.594339599609375,0.18511785566806793,0.12846426665782928,0.2311457097530365
1772648282486380800,1.604380859375,0.14086730778217316,0.04511478915810585,0.16508600115776062
1772648282496420900,1.6144208984375,0.09286720305681229,-0.035127267241477966,0.08869387954473495
1772648282506462000,1.6244619140625,0.06208958476781845,-0.07908513396978378,0.022695424035191536
1772648282516502000,1.634501953125,0.054135799407958984,-0.08310138434171677,-0.026451945304870605
1772648282526542800,1.64454296875,0.06421879678964615,-0.08282388746738434,-0.04640541225671768
1772648282536583000,1.6545830078125,0.08327692747116089,-0.08076797425746918,-0.039706721901893616
1772648282546624000,1.6646240234375,0.09372290968894958,-0.15398840606212616,-0.020571907982230186
1772648282556664800,1.674664794921875,0.08123579621315002,-0.27840015292167664,-0.05816885828971863
1772648282566704600,1.68470458984375,0.05471497401595116,-0.36386924982070923,-0.0862974300980568
1772648282576745700,1.694745849609375,0.056436024606227875,-0.33687013387680054,-0.010981510393321514
1772648282586785800,1.704785888671875,0.1095770075917244,-0.1847383975982666,0.12388655543327332
1772648282596827000,1.714826904296875,0.16837966442108154,-0.017719822004437447,0.2687266170978546
1772648282606867000,1.724866943359375,0.18265393376350403,0.08056414127349854,0.3374423086643219
1772648282616907800,1.73490771484375,0.17887340486049652,0.09726476669311523,0.3343060314655304
1772648282626948900,1.744948974609375,0.17650771141052246,0.12272804975509644,0.3339153528213501
1772648282636989000,1.754989013671875,0.15654951333999634,0.11496945470571518,0.32801201939582825
1772648282647029800,1.76502978515625,0.1367742121219635,0.08925823122262955,0.3052110970020294
1772648282657069800,1.77506982421875,0.11487522721290588,0.09671040624380112,0.2536832392215729
1772648282667111000,1.78511083984375,0.10442791879177094,0.15681767463684082,0.18127937614917755
1772648282677151000,1.79515087890625,0.09880708158016205,0.2326517403125763,0.09578762948513031
1772648282687192000,1.805192138671875,0.07386311888694763,0.28206801414489746,0.04042236879467964
1772648282697233000,1.81523291015625,0.03323836997151375,0.27812790870666504,0.033958736807107925
1772648282707272700,1.825272705078125,0.005106600001454353,0.23815946280956268,0.03872233256697655
1772648282717313800,1.835313720703125,-0.02765616960823536,0.15878847241401672,0.014065736904740334
1772648282727353900,1.845353759765625,-0.07943334430456161,0.026939628645777702,-0.007633432745933533
1772648282737394700,1.855394775390625,-0.14021137356758118,-0.1260160356760025,0.01371342409402132
1772648282747434800,1.865434814453125,-0.19143594801425934,-0.2516176402568817,0.04605112597346306
1772648282757475800,1.875475830078125,-0.21565766632556915,-0.3075077533721924,0.04268324747681618
1772648282767517000,1.885516845703125,-0.21656900644302368,-0.29342415928840637,0.01254638284444809
1772648282777557000,1.895556884765625,-0.19882459938526154,-0.23084081709384918,-0.027630716562271118
1772648282787597800,1.905597900390625,-0.161562979221344,-0.1414715200662613,-0.06016043201088905
1772648282797638000,1.915637939453125,-0.1062268540263176,-0.04237142205238342,-0.08572676032781601
1772648282807679000,1.925678955078125,-0.033943600952625275,0.09038583189249039,-0.11630517244338989
1772648282817718800,1.93571875,0.03545864298939705,0.23777420818805695,-0.16250915825366974
1772648282827759600,1.945759521484375,0.09716565907001495,0.3561137914657593,-0.20881181955337524
1772648282837800700,1.95580078125,0.13529857993125916,0.4273008406162262,-0.2567434310913086
1772648282847840800,1.9658408203125,0.1558603197336197,0.45484405755996704,-0.3081858456134796
1772648282857881900,1.9758818359375,0.15543188154697418,0.44981876015663147,-0.3382553458213806
1772648282867922000,1.985921875,0.13174492120742798,0.4277630150318146,-0.3516875207424164
1772648282877962800,1.995962646484375,0.09370807558298111,0.3997806906700134,-0.3441023528575897
1772648282888002800,2.0060029296875,0.047343235462903976,0.37844932079315186,-0.3347102105617523
1772648282898044000,2.0160439453125,-0.0022412638645619154,0.36161839962005615,-0.3350280821323395
1772648282908085000,2.0260849609375,-0.04927987977862358,0.3564974069595337,-0.33499374985694885
1772648282918124800,2.036124755859375,-0.0793856829404831,0.36724600195884705,-0.3264286518096924
1772648282928166000,2.046165771484375,-0.10047712177038193,0.39327308535575867,-0.30369246006011963
1772648282938206000,2.0562060546875,-0.11192559450864792,0.42228221893310547,-0.275063157081604
1772648282948247600,2.06624755859375,-0.11685217916965485,0.44975540041923523,-0.24939319491386414
1772648282958287400,2.076287353515625,-0.12334610521793365,0.45908987522125244,-0.23644806444644928
1772648282968328200,2.086328125,-0.13361552357673645,0.46199271082878113,-0.2352842539548874
1772648282978369300,2.096369384765625,-0.14958980679512024,0.4738534688949585,-0.2323743999004364
1772648282988409300,2.106409423828125,-0.17778335511684418,0.481956422328949,-0.23334646224975586
1772648282998450200,2.1164501953125,-0.20937998592853546,0.47692596912384033,-0.23793303966522217
1772648283008490200,2.126490234375,-0.22674459218978882,0.4628186821937561,-0.2339548021554947
1772648283018531300,2.13653125,-0.23006102442741394,0.44642311334609985,-0.22228452563285828
1772648283028571400,2.1465712890625,-0.2232332080602646,0.41321617364883423,-0.20638251304626465
1772648283038612500,2.156612548828125,-0.21151672303676605,0.3733101487159729,-0.18540924787521362
1772648283048652300,2.16665234375,-0.19781875610351562,0.34541380405426025,-0.16322751343250275
1772648283058693400,2.176693359375,-0.18433710932731628,0.3342558443546295,-0.13340915739536285
1772648283068734500,2.186734375,-0.17836736142635345,0.3369259238243103,-0.09144466370344162
1772648283078774500,2.1967744140625,-0.17070038616657257,0.3427722752094269,-0.05616167560219765
1772648283088815400,2.2068154296875,-0.16165895760059357,0.36064422130584717,-0.015569505281746387
1772648283098855200,2.216855224609375,-0.15575262904167175,0.38555270433425903,0.0104517862200737
1772648283108896300,2.226896240234375,-0.1589186042547226,0.4071245789527893,0.018007973209023476
1772648283118937300,2.236937255859375,-0.16178341209888458,0.41879966855049133,0.011606903746724129
1772648283128977400,2.246977294921875,-0.17105601727962494,0.4117113947868347,-0.005535597912967205
1772648283139018200,2.257018310546875,-0.1890912652015686,0.3997347950935364,-0.02682490274310112
1772648283149058300,2.267058349609375,-0.19980517029762268,0.39941173791885376,-0.04693043604493141
1772648283159099400,2.277099365234375,-0.21044602990150452,0.4111672043800354,-0.06588645279407501
1772648283169139500,2.287139404296875,-0.22581858932971954,0.39953264594078064,-0.08794275671243668
1772648283179180300,2.29718017578125,-0.23962533473968506,0.3793018162250519,-0.10857635736465454
1772648283189221400,2.307221435546875,-0.24439160525798798,0.3804014325141907,-0.11603666841983795
1772648283199261400,2.317261474609375,-0.23970060050487518,0.39261189103126526,-0.11522708833217621
1772648283209302500,2.327302490234375,-0.2353641837835312,0.42678263783454895,-0.11403106153011322
1772648283219342300,2.33734228515625,-0.22671616077423096,0.4794395864009857,-0.11311648786067963
1772648283229383200,2.347383056640625,-0.20867644250392914,0.5385732054710388,-0.11610747873783112
1772648283239423200,2.35742333984375,-0.1702784299850464,0.6055424809455872,-0.12333216518163681
1772648283249464300,2.36746435546875,-0.12495888024568558,0.6535808444023132,-0.1456363946199417
1772648283259505200,2.377505126953125,-0.06215287744998932,0.6742464303970337,-0.18680420517921448
1772648283269545200,2.387545166015625,-0.013840737752616405,0.6171512007713318,-0.20303750038146973
1772648283279586300,2.39758642578125,0.04389367625117302,0.5119327306747437,-0.23056426644325256
1772648283289626400,2.40762646484375,0.11613644659519196,0.3770419955253601,-0.25544989109039307
1772648283299667500,2.41766748046875,0.17828600108623505,0.21440933644771576,-0.2662173807621002
1772648283309707500,2.42770751953125,0.23501957952976227,0.0580410398542881,-0.27928975224494934
1772648283319748400,2.437748291015625,0.28542274236679077,-0.0697518140077591,-0.3115401864051819
1772648283329789400,2.44778955078125,0.30477088689804077,-0.17884235084056854,-0.34432822465896606
1772648283339829500,2.45782958984375,0.28442612290382385,-0.2916982173919678,-0.3466302156448364
1772648283349870300,2.467870361328125,0.2363899052143097,-0.41965723037719727,-0.30298471450805664
1772648283359910100,2.47791015625,0.18417797982692719,-0.5594832897186279,-0.2205459028482437
1772648283369951200,2.487951171875,0.14990070462226868,-0.6800025105476379,-0.12555308640003204
1772648283379991300,2.4979912109375,0.13900162279605865,-0.7676570415496826,-0.027162309736013412
1772648283390032400,2.508032470703125,0.1459423452615738,-0.8360385298728943,0.06504032015800476
1772648283400073200,2.5180732421875,0.16845370829105377,-0.8680201172828674,0.15874141454696655
1772648283410113300,2.52811328125,0.19810748100280762,-0.8471036553382874,0.23044303059577942
1772648283420154400,2.538154296875,0.2302514612674713,-0.7792572379112244,0.28126028180122375
1772648283430194400,2.5481943359375,0.25293201208114624,-0.6728489995002747,0.30908313393592834
1772648283440235300,2.5582353515625,0.27011027932167053,-0.5477891564369202,0.3300151228904724
1772648283450275300,2.568275390625,0.2733931541442871,-0.41157427430152893,0.33931034803390503
1772648283460316400,2.57831640625,0.26308682560920715,-0.2705093026161194,0.32496264576911926
1772648283470357500,2.588357421875,0.25151780247688293,-0.14696286618709564,0.29328781366348267
1772648283480397600,2.5983974609375,0.23876866698265076,-0.049950603395700455,0.25449323654174805
1772648283490438400,2.6084384765625,0.22125758230686188,0.017451871186494827,0.21043255925178528
1772648283500478200,2.618478271484375,0.20259062945842743,0.05313805863261223,0.1753666251897812
1772648283510519300,2.628519287109375,0.172994926571846,0.04654673486948013,0.15708668529987335
1772648283520559400,2.638559326171875,0.14279840886592865,0.004486899822950363,0.13800300657749176
1772648283530600200,2.64860009765625,0.12057433277368546,-0.0824032574892044,0.12959566712379456
1772648283540641300,2.658641357421875,0.09660838544368744,-0.1920049637556076,0.15228278934955597
1772648283550681300,2.668681396484375,0.07528126239776611,-0.2891536056995392,0.19253407418727875
1772648283560722400,2.678722412109375,0.058859046548604965,-0.37069055438041687,0.23798376321792603
1772648283570762500,2.688762451171875,0.047175224870443344,-0.4274238646030426,0.2943277359008789
1772648283580803300,2.69880322265625,0.03384707495570183,-0.47327324748039246,0.3387300968170166
1772648283590843400,2.708843505859375,0.023960089311003685,-0.4994281232357025,0.37642449140548706
1772648283600884500,2.718884521484375,0.004876792896538973,-0.5199739336967468,0.3912597596645355
1772648283610925300,2.72892529296875,-0.021588634699583054,-0.5349558591842651,0.3804643750190735
1772648283620965000,2.738965087890625,-0.04957856237888336,-0.548608660697937,0.3587213158607483
1772648283631006200,2.749006103515625,-0.05584444850683212,-0.540165364742279,0.33747008442878723
1772648283641046300,2.75904638671875,-0.056750647723674774,-0.5283793807029724,0.3274728059768677
1772648283651087400,2.76908740234375,-0.0515015572309494,-0.5265955924987793,0.32135260105133057
1772648283661128200,2.779128173828125,-0.051222063601017,-0.5389215350151062,0.32022935152053833
1772648283671168300,2.789168212890625,-0.04786914214491844,-0.5697707533836365,0.3057745099067688
1772648283681209300,2.799209228515625,-0.04756354168057442,-0.6215910911560059,0.2770346701145172
1772648283691249400,2.80924951171875,-0.03818681463599205,-0.6658461689949036,0.24369561672210693
1772648283701290500,2.81929052734375,-0.030028825625777245,-0.6986360549926758,0.21464815735816956
1772648283711330300,2.829330322265625,-0.013534802943468094,-0.7100924849510193,0.18540877103805542
1772648283721371400,2.839371337890625,-0.0015042335726320744,-0.7069343328475952,0.1465301811695099
1772648283731412500,2.84941259765625,0.01340574026107788,-0.6956273317337036,0.09001365303993225
1772648283741452500,2.85945263671875,0.024698376655578613,-0.6647042632102966,0.031143421307206154
1772648283751493400,2.869493408203125,0.03384687006473541,-0.6191149353981018,-0.023263894021511078
1772648283761533200,2.879533203125,0.04501873999834061,-0.5599139332771301,-0.06672791391611099
1772648283771574300,2.88957421875,0.05761176347732544,-0.5056581497192383,-0.09907839447259903
1772648283781615400,2.899615478515625,0.06856220960617065,-0.47811776399612427,-0.14038190245628357
1772648283791655400,2.909655517578125,0.07978104799985886,-0.43854397535324097,-0.16955043375492096
1772648283801696300,2.9196962890625,0.09018722921609879,-0.38739609718322754,-0.1913333535194397
1772648283811736300,2.929736328125,0.10225933790206909,-0.332182914018631,-0.201880544424057
1772648283821777400,2.93977734375,0.11818592995405197,-0.2780311405658722,-0.17977099120616913
1772648283831817500,2.9498173828125,0.13138055801391602,-0.22210021317005157,-0.12535995244979858
1772648283841858300,2.9598583984375,0.13719767332077026,-0.16313941776752472,-0.04954998940229416
1772648283851899400,2.9698994140625,0.1305490881204605,-0.10963304340839386,0.02325817011296749
1772648283861939500,2.979939453125,0.11853146553039551,-0.06670422852039337,0.06868229061365128
1772648283871980500,2.98998046875,0.11101469397544861,-0.046857818961143494,0.08015785366296768
1772648283882020400,3.000020263671875,0.11361507326364517,-0.04442571848630905,0.07084343582391739
1772648283892061200,3.010061279296875,0.12018749117851257,-0.07604676485061646,0.05628073960542679
1772648283902101200,3.020101318359375,0.13906016945838928,-0.14408648014068604,0.03540701046586037
1772648283912142300,3.030142333984375,0.1259787231683731,-0.24504691362380981,0.007966861128807068
1772648283922183200,3.04018310546875,0.08768104761838913,-0.34579354524612427,-0.016342245042324066
1772648283932223200,3.05022314453125,0.05067535489797592,-0.42772942781448364,-0.04324949532747269
1772648283942264300,3.060264404296875,0.030925536528229713,-0.4676225781440735,-0.07286813855171204
1772648283952303600,3.0703037109375,0.02313658967614174,-0.47463998198509216,-0.11030685901641846
1772648283962344700,3.0803447265625,0.021282844245433807,-0.47338026762008667,-0.172968327999115
1772648283972385500,3.090385498046875,0.015515768900513649,-0.46677935123443604,-0.2401990294456482
1772648283982425600,3.100425537109375,0.008316198363900185,-0.4677610397338867,-0.2825688421726227
1772648283992466700,3.110466796875,-0.020801207050681114,-0.48756083846092224,-0.2964271306991577
1772648284002506800,3.1205068359375,-0.07925210148096085,-0.5720162391662598,-0.3077068328857422
1772648284012547800,3.1305478515625,-0.13458967208862305,-0.645515501499176,-0.30769965052604675
1772648284022588700,3.140588623046875,-0.15020233392715454,-0.5785811543464661,-0.18381203711032867
1772648284032628700,3.150628662109375,-0.16558022797107697,-0.472296804189682,-0.012849356979131699
1772648284042669800,3.160669921875,-0.19032634794712067,-0.3997068405151367,0.1115342229604721
1772648284052710000,3.1707099609375,-0.16991189122200012,-0.301845520734787,0.23125077784061432
1772648284062750700,3.180750732421875,-0.09567412734031677,-0.18296559154987335,0.35291844606399536
1772648284072790800,3.190790771484375,-0.07083908468484879,-0.12462638318538666,0.400688111782074
1772648284082832000,3.200831787109375,-0.05778415873646736,-0.07036681473255157,0.4009304642677307
1772648284092873000,3.210873046875,-0.03774866834282875,-0.008348984643816948,0.3692021071910858
1772648284102912800,3.220912841796875,-0.03334548696875572,0.06449022144079208,0.3008718192577362
1772648284112953600,3.23095361328125,-0.022896841168403625,0.13954795897006989,0.18997646868228912
1772648284122993700,3.24099365234375,-0.010158304125070572,0.20741665363311768,0.0748513862490654
1772648284133034800,3.25103466796875,-0.006567297037690878,0.24599841237068176,0.012608524411916733
1772648284143075600,3.26107568359375,-0.023447535932064056,0.23076875507831573,0.005644372198730707
1772648284153115600,3.27111572265625,-0.05319850891828537,0.16757246851921082,0.02592434361577034
1772648284163156700,3.28115673828125,-0.09852129966020584,0.05540309101343155,0.016855968162417412
1772648284173196800,3.29119677734375,-0.15291424095630646,-0.07995153218507767,-0.012269691564142704
1772648284183238000,3.30123779296875,-0.20143631100654602,-0.20151513814926147,-0.05078426003456116
1772648284193278700,3.31127880859375,-0.23115238547325134,-0.26107725501060486,-0.07928381115198135
1772648284203318800,3.32131884765625,-0.24205410480499268,-0.24207934737205505,-0.0778103768825531
1772648284213359900,3.33135986328125,-0.24141095578670502,-0.15569011867046356,-0.06343356519937515
1772648284223400000,3.34139990234375,-0.22481292486190796,-0.021773450076580048,-0.07749716192483902
1772648284233440800,3.351440673828125,-0.19612562656402588,0.15433260798454285,-0.1013399139046669
1772648284243481900,3.36148193359375,-0.14462295174598694,0.36947309970855713,-0.109368234872818
1772648284253521700,3.371521728515625,-0.06770767271518707,0.5761389136314392,-0.10973415523767471
1772648284263562800,3.381562744140625,0.02148638293147087,0.7646158933639526,-0.11540082842111588
1772648284273602800,3.391602783203125,0.1022384837269783,0.9028635025024414,-0.1329859495162964
1772648284283643600,3.4016435546875,0.16134686768054962,0.9682937264442444,-0.1773240715265274
1772648284293684700,3.411684814453125,0.20219175517559052,0.9708199501037598,-0.22306199371814728
1772648284303724800,3.421724853515625,0.2262599766254425,0.9228949546813965,-0.2690132260322571
1772648284313766000,3.431765869140625,0.2285556197166443,0.8395811319351196,-0.31556981801986694
1772648284323805700,3.4418056640625,0.20525449514389038,0.7276062369346619,-0.35842588543891907
1772648284333846800,3.4518466796875,0.16407163441181183,0.6098814606666565,-0.3829525113105774
1772648284343886800,3.461886962890625,0.10411542654037476,0.49627113342285156,-0.38780292868614197
1772648284353928000,3.471927978515625,0.05351509526371956,0.4269844591617584,-0.37891727685928345
1772648284363968800,3.48196875,0.016894718632102013,0.3973727524280548,-0.3587673306465149
1772648284374008600,3.492008544921875,0.003437766572460532,0.39160487055778503,-0.32793858647346497
1772648284384049700,3.502049560546875,0.0008559913258068264,0.4012810289859772,-0.29547616839408875
1772648284394089700,3.51208984375,0.007746388204395771,0.41459017992019653,-0.2622998356819153
1772648284404130800,3.522130859375,0.005804331041872501,0.42601829767227173,-0.23802809417247772
1772648284414171600,3.532171630859375,-0.01348600909113884,0.4374784231185913,-0.22377006709575653
1772648284424211700,3.542211669921875,-0.0461609810590744,0.45476385951042175,-0.2135787159204483
1772648284434252800,3.552252685546875,-0.0936528667807579,0.467894047498703,-0.21468977630138397
1772648284444292900,3.56229296875,-0.14585214853286743,0.47868338227272034,-0.21676763892173767
1772648284454333700,3.572333740234375,-0.18997806310653687,0.47606387734413147,-0.2104058861732483
1772648284464374800,3.582374755859375,-0.2253115177154541,0.44955435395240784,-0.18816113471984863
1772648284474414800,3.592414794921875,-0.24736061692237854,0.4254399538040161,-0.15461568534374237
1772648284484456000,3.6024560546875,-0.2556585967540741,0.41777142882347107,-0.11326546221971512
1772648284494495700,3.612495849609375,-0.24945449829101562,0.42828693985939026,-0.07588347047567368
1772648284504536800,3.622536865234375,-0.2314096838235855,0.44974610209465027,-0.035745855420827866
1772648284514578000,3.632577880859375,-0.20472028851509094,0.46389785408973694,-0.006376249250024557
1772648284524617700,3.64261767578125,-0.1845666766166687,0.4542020261287689,0.008051125332713127
1772648284534658600,3.652658447265625,-0.16775387525558472,0.4335513412952423,0.0063379136845469475
1772648284544698600,3.66269873046875,-0.1562848687171936,0.4112718403339386,-0.010323477908968925
1772648284554739700,3.67273974609375,-0.15020966529846191,0.38605570793151855,-0.01708391308784485
1772648284564780800,3.68278076171875,-0.14705009758472443,0.36037352681159973,-0.01878327690064907
1772648284574820900,3.69282080078125,-0.14928023517131805,0.35096484422683716,-0.014560035429894924
1772648284584861700,3.70286181640625,-0.14777490496635437,0.36299437284469604,-0.01463004294782877
1772648284594901800,3.71290185546875,-0.13990658521652222,0.38797882199287415,-0.01838882640004158
1772648284604942800,3.72294287109375,-0.12933161854743958,0.40010103583335876,-0.027772972360253334
1772648284614983700,3.732983642578125,-0.12534593045711517,0.38322964310646057,-0.04076201096177101
1772648284625023700,3.743023681640625,-0.1279001533985138,0.3300897181034088,-0.06918693333864212
1772648284635064800,3.75306494140625,-0.1286354511976242,0.26885750889778137,-0.09932646155357361
1772648284645104600,3.763104736328125,-0.12912096083164215,0.21553269028663635,-0.12040799111127853
1772648284655145700,3.773145751953125,-0.13564011454582214,0.1851436346769333,-0.1317831575870514
1772648284665186800,3.783186767578125,-0.14528314769268036,0.1736421287059784,-0.1263427436351776
1772648284675226600,3.7932265625,-0.15830866992473602,0.17843236029148102,-0.12144785374403
1772648284685267700,3.803267822265625,-0.1731787621974945,0.18942520022392273,-0.1252015084028244
1772648284695307800,3.813307861328125,-0.14754851162433624,0.20943406224250793,-0.16518300771713257
1772648284705348600,3.8233486328125,-0.11582408100366592,0.18207988142967224,-0.1437699794769287
1772648284715389700,3.8333896484375,-0.06678436696529388,0.12418647855520248,-0.11459053307771683
1772648284725429800,3.8434296875,0.005894935689866543,0.05781199410557747,-0.11079633235931396
1772648284735470800,3.853470947265625,0.12382476776838303,-0.011188908480107784,-0.11869100481271744
1772648284745511700,3.86351171875,0.27472978830337524,-0.09009911864995956,-0.14394083619117737
1772648284755551700,3.8735517578125,0.39917904138565063,-0.19497200846672058,-0.16759105026721954
1772648284765592800,3.8835927734375,0.4863850176334381,-0.2767520546913147,-0.16713862121105194
1772648284775633000,3.8936328125,0.5427790284156799,-0.3171655237674713,-0.14157627522945404
1772648284785674000,3.903674072265625,0.5650773644447327,-0.33524101972579956,-0.09192933887243271
1772648284795714800,3.91371484375,0.5455619692802429,-0.34503185749053955,-0.013705641031265259
1772648284805754600,3.923754638671875,0.513715922832489,-0.34749528765678406,0.09741901606321335
1772648284815795700,3.933795654296875,0.48724356293678284,-0.34043657779693604,0.21971723437309265
1772648284825835800,3.943835693359375,0.4656336307525635,-0.32243093848228455,0.32098057866096497
1772648284835876600,3.953876708984375,0.4493076801300049,-0.28527212142944336,0.38168200850486755
1772648284845917700,3.963917724609375,0.4361887276172638,-0.21834205090999603,0.41741225123405457
1772648284855957800,3.973957763671875,0.4175444543361664,-0.11262866109609604,0.42311033606529236
1772648284865998800,3.983998779296875,0.4022980332374573,0.013712286949157715,0.3954032063484192
1772648284876039000,3.994038818359375,0.38206201791763306,0.12995927035808563,0.34567639231681824
1772648284886079700,4.004079833984375,0.36524948477745056,0.21076330542564392,0.29106375575065613
1772648284896120800,4.014120849609375,0.33956408500671387,0.23617517948150635,0.2402024269104004
1772648284906161000,4.024160888671875,0.3008321225643158,0.22617107629776,0.16094431281089783
1772648284916201700,4.03420166015625,0.2593960165977478,0.17782671749591827,0.08153682947158813
1772648284926241800,4.04424169921875,0.21825668215751648,0.09613391757011414,0.027647197246551514
1772648284936283000,4.054282958984375,0.16271406412124634,-0.0312205757945776,0.014015541411936283
1772648284946324000,4.064323974609375,0.09763381630182266,-0.19990193843841553,0.034092970192432404
1772648284956364500,4.074364501953125,0.04371625930070877,-0.36713647842407227,0.0780111625790596
1772648284966405600,4.084405517578125,0.0025311612989753485,-0.5086599588394165,0.14175479114055634
1772648284976445700,4.09444580078125,-0.027188917621970177,-0.6227295398712158,0.2174072116613388
1772648284986486800,4.10448681640625,-0.03273481875658035,-0.6934698820114136,0.2922883629798889
1772648284996527600,4.114527587890625,-0.047246385365724564,-0.7606337666511536,0.3538867235183716
1772648285006567700,4.124567626953125,-0.05705757066607475,-0.8155198693275452,0.3825547695159912
1772648285016608800,4.13460888671875,-0.06047707051038742,-0.8393093943595886,0.36897000670433044
1772648285026648800,4.14464892578125,-0.06466222554445267,-0.8398638367652893,0.3229907751083374
1772648285036689700,4.154689697265625,-0.07338807731866837,-0.8131725788116455,0.261043518781662
1772648285046730800,4.164730712890625,-0.0812305361032486,-0.7621985673904419,0.20826628804206848
1772648285056770800,4.174770751953125,-0.08012345433235168,-0.6976962685585022,0.17688491940498352
1772648285066812000,4.18481201171875,-0.09876300394535065,-0.6354801058769226,0.16085053980350494
1772648285076852700,4.194852783203125,-0.13298675417900085,-0.5837787985801697,0.13393236696720123
1772648285086892500,4.204892578125,-0.13711844384670258,-0.5549057722091675,0.11340321600437164
1772648285096933600,4.21493359375,-0.12624822556972504,-0.5414456129074097,0.12375146150588989
1772648285106973700,4.2249736328125,-0.08721571415662766,-0.5315417647361755,0.13657303154468536
1772648285117014500,4.2350146484375,-0.09533249586820602,-0.5318743586540222,0.15742717683315277
1772648285127055600,4.2450556640625,-0.09437736123800278,-0.5345578193664551,0.15317746996879578
1772648285137095700,4.255095703125,-0.08151403069496155,-0.5258074402809143,0.12500788271427155
1772648285147136800,4.26513671875,-0.054657965898513794,-0.4842025935649872,0.08504743874073029
1772648285157176800,4.2751767578125,-0.02924182452261448,-0.4269406199455261,0.04096280783414841
1772648285167217700,4.2852177734375,0.008417410776019096,-0.3588676452636719,0.0018237670883536339
1772648285177258800,4.2952587890625,0.04033219814300537,-0.2952719032764435,-0.021610185503959656
1772648285187298800,4.305298828125,0.05319267511367798,-0.2511841952800751,-0.03238966688513756
1772648285197339600,4.315339599609375,0.08520307391881943,-0.22310568392276764,-0.035872817039489746
1772648285207379700,4.325379638671875,0.11532096564769745,-0.20325395464897156,-0.034457433968782425
1772648285217420800,4.3354208984375,0.13988488912582397,-0.18895196914672852,-0.009273250587284565
1772648285227462000,4.3454619140625,0.15857861936092377,-0.1798747479915619,0.021748121827840805
1772648285237501700,4.355501708984375,0.16198374330997467,-0.19420069456100464,0.05810320004820824
1772648285247542500,4.36554248046875,0.1595311313867569,-0.21288366615772247,0.08585149049758911
1772648285257583600,4.37558349609375,0.163275808095932,-0.21697083115577698,0.0882805585861206
1772648285267623700,4.385623779296875,0.16858495771884918,-0.22412630915641785,0.08837831765413284
1772648285277664800,4.395664794921875,0.14892230927944183,-0.2543976902961731,0.08779402077198029
1772648285287704800,4.405704833984375,0.14606617391109467,-0.30583566427230835,0.08910128474235535
1772648285297745700,4.41574560546875,0.15263405442237854,-0.3444072902202606,0.1123751848936081
1772648285307786800,4.425786865234375,0.16459210216999054,-0.376010537147522,0.14157432317733765
1772648285317826800,4.435826904296875,0.17833560705184937,-0.40255826711654663,0.1742798089981079
1772648285327867600,4.44586767578125,0.18388108909130096,-0.4343642592430115,0.20319092273712158
1772648285337907700,4.45590771484375,0.18360306322574615,-0.46431469917297363,0.2134038805961609
1772648285347948800,4.46594873046875,0.18832939863204956,-0.45701953768730164,0.19811178743839264
1772648285357990000,4.475989990234375,0.19590768218040466,-0.4155599772930145,0.17443335056304932
1772648285368030000,4.486030029296875,0.1905728578567505,-0.3733176589012146,0.1284160166978836
1772648285378070800,4.49607080078125,0.16345787048339844,-0.33220645785331726,0.06659898161888123
1772648285388110600,4.506110595703125,0.11264476180076599,-0.3018152713775635,0.02529202401638031
1772648285398151700,4.516151611328125,0.02121881954371929,-0.32296642661094666,-0.005754376761615276
1772648285408192500,4.526192626953125,-0.05753357335925102,-0.3389318883419037,-0.018098346889019012
1772648285418232600,4.536232666015625,-0.12727297842502594,-0.29699188470840454,0.04959521070122719
1772648285428273700,4.546273681640625,-0.20262481272220612,-0.2222915142774582,0.14894002676010132
1772648285438314800,4.556314697265625,-0.22958025336265564,-0.10852685570716858,0.23779480159282684
1772648285448354800,4.566354736328125,-0.19197827577590942,0.07401382178068161,0.31785085797309875
1772648285458395600,4.576395751953125,-0.14798764884471893,0.22297479212284088,0.36033228039741516
1772648285468435700,4.586435791015625,-0.11459536105394363,0.3133082091808319,0.3495357632637024
1772648285478476800,4.596476806640625,-0.10894732922315598,0.3235970735549927,0.32533109188079834
1772648285488518000,4.606517822265625,-0.12147898226976395,0.28126752376556396,0.3388935625553131
1772648285498557700,4.6165576171875,-0.12494216114282608,0.3129367530345917,0.33903762698173523
1772648285508598800,4.626598876953125,-0.1111200824379921,0.4227253198623657,0.31438902020454407
1772648285518638600,4.636638671875,-0.10021071135997772,0.5350360870361328,0.2906349301338196
1772648285528679700,4.6466796875,-0.10209092497825623,0.5913559198379517,0.2704603970050812
1772648285538720500,4.656720458984375,-0.11330869048833847,0.60799241065979,0.23333963751792908
1772648285548760600,4.666760498046875,-0.15185604989528656,0.565585196018219,0.2022300362586975
1772648285558801700,4.6768017578125,-0.21205733716487885,0.4533497393131256,0.15487690269947052
1772648285568842800,4.6868427734375,-0.28088805079460144,0.30871838331222534,0.10333636403083801
1772648285578882800,4.6968828125,-0.3514208197593689,0.14305482804775238,0.05429292470216751
1772648285588923600,4.706923583984375,-0.41237157583236694,0.0009000827558338642,0.0447087362408638
1772648285598963700,4.716963623046875,-0.44622302055358887,-0.09643019735813141,0.023296920582652092
1772648285609004800,4.7270048828125,-0.4678170680999756,-0.14867976307868958,-0.006142600905150175
1772648285619045600,4.737045654296875,-0.46340635418891907,-0.1472211480140686,-0.03711836040019989
1772648285629085700,4.747085693359375,-0.4261687099933624,-0.08181177079677582,-0.0625777319073677
1772648285639126800,4.757126708984375,-0.35867729783058167,0.04825461283326149,-0.06909608095884323
1772648285649166800,4.767166748046875,-0.2795637547969818,0.2384566217660904,-0.06236922740936279
1772648285659208000,4.7772080078125,-0.19117611646652222,0.45263469219207764,-0.04627148434519768
1772648285669248800,4.787248779296875,-0.10429783165454865,0.6700717210769653,-0.06373591721057892
1772648285679288600,4.79728857421875,-0.043445926159620285,0.8216386437416077,-0.09870082885026932
1772648285689329700,4.80732958984375,-0.014387746341526508,0.9053100347518921,-0.1371052861213684
1772648285699370500,4.81737060546875,-0.00959032867103815,0.9410773515701294,-0.1741999387741089
1772648285709410600,4.82741064453125,-0.02256864868104458,0.9490506052970886,-0.2070121169090271
1772648285719451600,4.83745166015625,-0.04604947566986084,0.9441349506378174,-0.22948387265205383
1772648285729491700,4.84749169921875,-0.06706886738538742,0.9593225717544556,-0.23153768479824066
1772648285739532800,4.85753271484375,-0.07904829829931259,0.9675602912902832,-0.22662842273712158
1772648285749573600,4.86757373046875,-0.07868962734937668,0.9673082828521729,-0.23329003155231476
1772648285759613700,4.87761376953125,-0.07540568709373474,0.949373722076416,-0.2385423183441162
1772648285769654800,4.88765478515625,-0.08114583045244217,0.9097607731819153,-0.23470887541770935
1772648285779694800,4.89769482421875,-0.08311257511377335,0.8739486932754517,-0.23519809544086456
1772648285789735700,4.907735595703125,-0.07609382271766663,0.8491975665092468,-0.2276320904493332
1772648285799776800,4.91777685546875,-0.06894563138484955,0.8202551007270813,-0.21860824525356293
1772648285809816800,4.92781689453125,-0.06323517858982086,0.7861497402191162,-0.20390179753303528
1772648285819858000,4.93785791015625,-0.05568084865808487,0.7475637197494507,-0.1905396580696106
1772648285829897700,4.947897705078125,-0.04665008932352066,0.7055906653404236,-0.17544853687286377
1772648285839938600,4.9579384765625,-0.04010830074548721,0.6593949794769287,-0.16325844824314117
1772648285849979600,4.967979736328125,-0.03744223713874817,0.6077167391777039,-0.15969742834568024
1772648285860019700,4.978019775390625,-0.04627887159585953,0.5363003611564636,-0.1623411625623703
1772648285870060800,4.988060791015625,-0.060641903430223465,0.4648595452308655,-0.16303350031375885
1772648285880101600,4.9981015625,-0.06985457241535187,0.39295631647109985,-0.15253397822380066
1772648285890141700,5.0081416015625,-0.08450952172279358,0.31750258803367615,-0.14234775304794312
1772648285900182800,5.018182861328125,-0.09684155881404877,0.2540106773376465,-0.13083331286907196
1772648285910222800,5.028222900390625,-0.11170580983161926,0.21396559476852417,-0.10953349620103836
1772648285920263700,5.038263671875,-0.13091757893562317,0.17475107312202454,-0.09095767885446548
1772648285930304800,5.0483046875,-0.15258431434631348,0.1457693874835968,-0.07665461301803589
1772648285940344800,5.0583447265625,-0.18208575248718262,0.13389888405799866,-0.07489639520645142
1772648285950384600,5.068384521484375,-0.2235875427722931,0.13418735563755035,-0.0781559869647026
1772648285960424400,5.078424560546875,-0.2724720239639282,0.14278510212898254,-0.0845920518040657
1772648285970465500,5.088465576171875,-0.3236977159976959,0.1573915332555771,-0.09995044767856598
1772648285980506400,5.09850634765625,-0.3750900626182556,0.18414485454559326,-0.13514971733093262
1772648285990546400,5.10854638671875,-0.40767204761505127,0.20905637741088867,-0.1534733921289444
1772648286000587500,5.11858740234375,-0.4183414578437805,0.22830145061016083,-0.15988096594810486
1772648286010628400,5.12862841796875,-0.405975341796875,0.2514508366584778,-0.1584366410970688
1772648286020668400,5.13866845703125,-0.38212621212005615,0.268993616104126,-0.16226999461650848
1772648286030709500,5.14870947265625,-0.3553314805030823,0.2750813364982605,-0.17611798644065857
1772648286040749600,5.15874951171875,-0.3151931166648865,0.28248119354248047,-0.18655385076999664
1772648286050790700,5.168790771484375,-0.2765432894229889,0.2794104814529419,-0.19702723622322083
1772648286060831500,5.17883154296875,-0.2449272871017456,0.27965018153190613,-0.20535705983638763
1772648286070871600,5.18887158203125,-0.22725306451320648,0.30054086446762085,-0.21754178404808044
1772648286080912600,5.19891259765625,-0.21729309856891632,0.34665778279304504,-0.21533508598804474
1772648286090952400,5.208952392578125,-0.2221556305885315,0.409441202878952,-0.20948709547519684
1772648286100993300,5.2189931640625,-0.22955229878425598,0.4699831008911133,-0.21438011527061462
1772648286111034600,5.22903466796875,-0.23719193041324615,0.5109730362892151,-0.23614026606082916
1772648286121074400,5.239074462890625,-0.2112327665090561,0.5226123929023743,-0.28602632880210876
1772648286131115500,5.249115478515625,-0.17016714811325073,0.4869697093963623,-0.30014994740486145
1772648286141155600,5.259155517578125,-0.13934345543384552,0.386465460062027,-0.2920006513595581
1772648286151196400,5.269196533203125,-0.08726940304040909,0.292692631483078,-0.3011133074760437
1772648286161237500,5.279237548828125,-0.007918387651443481,0.17338435351848602,-0.3105318248271942
1772648286171277600,5.289277587890625,0.0872599259018898,0.021116141229867935,-0.3169606924057007
1772648286181318400,5.299318359375,0.18039919435977936,-0.12090704590082169,-0.33872485160827637
1772648286191359500,5.309359375,0.26215478777885437,-0.21533633768558502,-0.3474416434764862
1772648286202654700,5.32065478515625,0.3157745897769928,-0.300466388463974,-0.32860884070396423
1772648286212695600,5.330695556640625,0.3207986652851105,-0.38050147891044617,-0.2921721041202545
1772648286222735400,5.3407353515625,0.3117780089378357,-0.43087145686149597,-0.22150377929210663
1772648286232776400,5.3507763671875,0.30922606587409973,-0.42505916953086853,-0.11850208044052124
1772648286242817300,5.3608173828125,0.31064552068710327,-0.42007187008857727,-0.006586194504052401
1772648286252857300,5.370857421875,0.30849266052246094,-0.4488726258277893,0.09126101434230804
1772648286262898400,5.3808984375,0.31142452359199524,-0.4591260552406311,0.17636126279830933
1772648286272939500,5.390939453125,0.31197160482406616,-0.43964049220085144,0.2347780466079712
1772648286282979600,5.4009794921875,0.3015517294406891,-0.4048180878162384,0.2677769958972931
1772648286293020400,5.4110205078125,0.2816169857978821,-0.3557456433773041,0.2791086435317993
1772648286303060500,5.421060546875,0.2654590606689453,-0.27927616238594055,0.26076850295066833
1772648286313101600,5.4311015625,0.2567872107028961,-0.18379466235637665,0.2350449562072754
1772648286323142700,5.441142578125,0.25985410809516907,-0.08562415093183517,0.21169063448905945
1772648286333182500,5.451182373046875,0.2690635919570923,-0.014072520658373833,0.1877504587173462
1772648286343223600,5.4612236328125,0.2754599452018738,0.026817120611667633,0.15761199593544006
1772648286353263600,5.471263671875,0.26040413975715637,0.015196104533970356,0.10883954912424088
1772648286363304700,5.4813046875,0.23103269934654236,-0.03990762680768967,0.059375323355197906
1772648286373345500,5.491345458984375,0.18746352195739746,-0.13323892652988434,0.018080608919262886
1772648286383385300,5.50138525390625,0.13953861594200134,-0.25201350450515747,0.002415894763544202
1772648286393426400,5.511426513671875,0.09373694658279419,-0.38731539249420166,0.010733569972217083
1772648286403466500,5.521466552734375,0.06548134237527847,-0.513481080532074,0.043621744960546494
1772648286413507600,5.531507568359375,0.057220298796892166,-0.6015065312385559,0.10151847451925278
1772648286423548400,5.54154833984375,0.06114260107278824,-0.6568425297737122,0.1595253199338913
1772648286433588500,5.55158837890625,0.09336423128843307,-0.6804328560829163,0.22351323068141937
1772648286443629600,5.561629638671875,0.12570805847644806,-0.7004084587097168,0.2893036901950836
1772648286453670400,5.57167041015625,0.13656388223171234,-0.7282332181930542,0.3260044753551483
1772648286463710500,5.58171044921875,0.12597541511058807,-0.7546493411064148,0.33028578758239746
1772648286473751600,5.59175146484375,0.1235210970044136,-0.7676399946212769,0.3134157359600067
1772648286483791600,5.60179150390625,0.12433469295501709,-0.7634521722793579,0.29446762800216675
1772648286493832700,5.611832763671875,0.12299659103155136,-0.7519437074661255,0.2700696289539337
1772648286503873500,5.62187353515625,0.13307346403598785,-0.7526633143424988,0.24730518460273743
1772648286513913600,5.63191357421875,0.1333329677581787,-0.761023223400116,0.2226191610097885
1772648286523954700,5.64195458984375,0.12962079048156738,-0.7597023248672485,0.19584614038467407
1772648286533994500,5.651994384765625,0.11985798180103302,-0.7688410878181458,0.171145498752594
1772648286544035300,5.662035400390625,0.1331937611103058,-0.7906220555305481,0.16065025329589844
1772648286554076400,5.672076416015625,0.1556748002767563,-0.8276952505111694,0.1627853810787201
1772648286564116500,5.682116455078125,0.16588935256004333,-0.859556257724762,0.17576509714126587
1772648286574157600,5.692157470703125,0.1715964823961258,-0.8726109266281128,0.17669890820980072
1772648286584198400,5.702198486328125,0.1760903000831604,-0.8627966046333313,0.16607661545276642
1772648286594238500,5.712238525390625,0.18394456803798676,-0.8313631415367126,0.13646353781223297
1772648286604279600,5.722279541015625,0.18675526976585388,-0.8050327301025391,0.09011413902044296
1772648286614319600,5.732319580078125,0.17853179574012756,-0.7738046646118164,0.03560901805758476
1772648286624360400,5.7423603515625,0.16415952146053314,-0.7049003839492798,-0.012784079648554325
1772648286634401500,5.752401611328125,0.14958396553993225,-0.6064436435699463,-0.0406184084713459
1772648286644441600,5.762441650390625,0.138657808303833,-0.5074357986450195,-0.052742183208465576
1772648286654482700,5.772482666015625,0.1280897706747055,-0.4424522817134857,-0.06805630028247833
1772648286664523500,5.7825234375,0.11858547478914261,-0.40649721026420593,-0.08473780751228333
1772648286674563300,5.792563232421875,0.11519438028335571,-0.3838028907775879,-0.09926586598157883
1772648286684604400,5.8026044921875,0.1212213784456253,-0.36595413088798523,-0.10375409573316574
1772648286694644500,5.81264453125,0.13389535248279572,-0.3535706102848053,-0.09131351113319397
1772648286704685600,5.822685546875,0.1408803015947342,-0.35837307572364807,-0.0589531734585762
1772648286714726400,5.832726318359375,0.1426985263824463,-0.37679219245910645,-0.020912064239382744
1772648286724766500,5.842766357421875,0.13819751143455505,-0.38411080837249756,0.015789756551384926
1772648286734807600,5.8528076171875,0.13024377822875977,-0.3595004379749298,0.028176631778478622
1772648286744847600,5.86284765625,0.12867143750190735,-0.3273662030696869,0.024461256340146065
1772648286754888400,5.872888427734375,0.14340640604496002,-0.30453649163246155,0.01159751694649458
1772648286764929500,5.882929443359375,0.14091208577156067,-0.28952690958976746,0.00600860733538866
1772648286774969600,5.892969482421875,0.1527767926454544,-0.28643298149108887,0.003922265954315662
1772648286785010700,5.9030107421875,0.17453588545322418,-0.29883426427841187,-0.0012067160569131374
1772648286795051500,5.913051513671875,0.15834715962409973,-0.3319496214389801,-0.007693820632994175
1772648286805091600,5.923091552734375,0.14497755467891693,-0.3633916974067688,-0.024625932797789574
1772648286815132700,5.933132568359375,0.12568408250808716,-0.3948848247528076,-0.03734920173883438
1772648286825172500,5.94317236328125,0.11781337112188339,-0.4033566117286682,-0.05296890810132027
1772648286835213300,5.95321337890625,0.10850019007921219,-0.39260509610176086,-0.07564248889684677
1772648286845254400,5.96325439453125,0.1118999794125557,-0.37897422909736633,-0.09836351126432419
1772648286855294500,5.97329443359375,0.11422231048345566,-0.38886216282844543,-0.1209801658987999
1772648286865335600,5.98333544921875,0.12638257443904877,-0.38603121042251587,-0.07933631539344788
1772648286875375600,5.993375732421875,0.09084773808717728,-0.5003110766410828,-0.051256582140922546
1772648286885416400,6.00341650390625,0.07396543025970459,-0.5204373598098755,-0.028519582003355026
1772648286895457500,6.01345751953125,0.036392271518707275,-0.4504718482494354,0.07028471678495407
1772648286905497600,6.02349755859375,-0.022085683420300484,-0.41301289200782776,0.17173410952091217
1772648286915538400,6.033538330078125,-0.04403230547904968,-0.3266661763191223,0.2698206305503845
1772648286925578500,6.04357861328125,-0.011645873077213764,-0.15016649663448334,0.39328983426094055
1772648286935619600,6.05361962890625,-0.0042726825922727585,-0.009966523386538029,0.4801237881183624
1772648286945660700,6.06366064453125,-0.021055124700069427,0.08025578409433365,0.4675515294075012
1772648286955700500,6.073700439453125,-0.040879495441913605,0.14991235733032227,0.4251083731651306
1772648286965741300,6.0837412109375,-0.06499495357275009,0.19452376663684845,0.38634952902793884
1772648286975782400,6.093782470703125,-0.08752432465553284,0.2416919767856598,0.34394457936286926
1772648286985822500,6.103822509765625,-0.10319169610738754,0.27951470017433167,0.26813289523124695
1772648286995863600,6.113863525390625,-0.1008429303765297,0.31621119379997253,0.18693779408931732
1772648287005903400,6.1239033203125,-0.0992189347743988,0.3322170376777649,0.11531712859869003
1772648287015944400,6.1339443359375,-0.1150583028793335,0.2809780240058899,0.04800241068005562
1772648287025985500,6.143985595703125,-0.15584728121757507,0.17235086858272552,-0.005228320136666298
1772648287036025600,6.154025634765625,-0.20586007833480835,0.04312552139163017,-0.027705397456884384
1772648287046066400,6.16406640625,-0.25297537446022034,-0.0717957392334938,-0.025905366986989975
1772648287056106500,6.1741064453125,-0.28995466232299805,-0.14429247379302979,-0.02989267185330391
1772648287066147600,6.184147705078125,-0.3066910207271576,-0.14629383385181427,-0.04199940338730812
1772648287076188700,6.194188720703125,-0.3102482557296753,-0.06844708323478699,-0.05291221663355827
1772648287086228500,6.204228515625,-0.2867831587791443,0.07684433460235596,-0.048651959747076035
1772648287096269300,6.214269287109375,-0.2296404391527176,0.2796577215194702,-0.04654408618807793
1772648287106310400,6.224310302734375,-0.15445753931999207,0.521007239818573,-0.042076367884874344
1772648287116350500,6.2343505859375,-0.0878911092877388,0.7501115798950195,-0.060564495623111725
1772648287126391300,6.244391357421875,-0.02114936336874962,0.9355275630950928,-0.07864522933959961
1772648287136431400,6.254431396484375,0.028211364522576332,1.0477070808410645,-0.09077557176351547
1772648287146472400,6.264472412109375,0.05468425154685974,1.0617456436157227,-0.10754522681236267
1772648287156513500,6.274513427734375,0.04511542618274689,1.0036866664886475,-0.1276378482580185
1772648287166553600,6.2845537109375,0.023004529997706413,0.9078930616378784,-0.14379152655601501
1772648287176594400,6.294594482421875,-0.016067488119006157,0.8019365668296814,-0.15865014493465424
1772648287186634500,6.304634521484375,-0.06563398241996765,0.7059421539306641,-0.16418233513832092
1772648287196675600,6.314675537109375,-0.1103496178984642,0.6291419267654419,-0.1681920737028122
1772648287206716400,6.32471630859375,-0.16007216274738312,0.5843843221664429,-0.17488326132297516
1772648287216756500,6.334756591796875,-0.20729775726795197,0.5538155436515808,-0.18460120260715485
1772648287226797600,6.344797607421875,-0.24892829358577728,0.5407820343971252,-0.19199307262897491
1772648287236838700,6.354838623046875,-0.276989221572876,0.534520149230957,-0.20784932374954224
1772648287246878500,6.36487841796875,-0.28758859634399414,0.5463771224021912,-0.21806946396827698
1772648287256919300,6.374919189453125,-0.2873859703540802,0.569081723690033,-0.20844976603984833
1772648287266959400,6.38495947265625,-0.2843358516693115,0.5919823050498962,-0.19003693759441376
1772648287277000400,6.39500048828125,-0.2798592746257782,0.6244199275970459,-0.17289447784423828
1772648287287041500,6.40504150390625,-0.27382776141166687,0.6394672989845276,-0.15170210599899292
1772648287297081300,6.415081298828125,-0.2687852680683136,0.6328887343406677,-0.12445468455553055
1772648287307122400,6.425122314453125,-0.26190418004989624,0.6142876148223877,-0.10111261159181595
1772648287317162500,6.43516259765625,-0.25608134269714355,0.5851730108261108,-0.08804955333471298
1772648287327203600,6.44520361328125,-0.25047430396080017,0.5488848090171814,-0.07511937618255615
1772648287337244400,6.455244384765625,-0.24092154204845428,0.5263314843177795,-0.06654606759548187
1772648287347284500,6.465284423828125,-0.23325563967227936,0.5098878145217896,-0.062475159764289856
1772648287357325600,6.47532568359375,-0.23251457512378693,0.4948752820491791,-0.06046243757009506
1772648287367365400,6.485365478515625,-0.23746833205223083,0.4702053666114807,-0.059391845017671585
1772648287377406500,6.495406494140625,-0.24936671555042267,0.43281838297843933,-0.069182388484478
1772648287387447300,6.505447265625,-0.2742995023727417,0.3886815309524536,-0.08475575596094131
1772648287397487400,6.5154873046875,-0.2944227457046509,0.3623855412006378,-0.10414406657218933
1772648287407528400,6.525528564453125,-0.3108627200126648,0.3542304039001465,-0.11349362134933472
1772648287417569300,6.5355693359375,-0.32372650504112244,0.33333903551101685,-0.11675702780485153
1772648287427609300,6.545609375,-0.326894074678421,0.3068712055683136,-0.12262636423110962
1772648287437650400,6.555650390625,-0.317531943321228,0.28391849994659424,-0.1307700276374817
1772648287447690500,6.5656904296875,-0.29556727409362793,0.26115620136260986,-0.13756775856018066
1772648287457731600,6.575731689453125,-0.2636581063270569,0.24147237837314606,-0.13356146216392517
1772648287467772400,6.5857724609375,-0.23276863992214203,0.22969934344291687,-0.12453094869852066
1772648287477812500,6.5958125,-0.2053430676460266,0.24585966765880585,-0.12349649518728256
1772648287487853600,6.605853515625,-0.1925330013036728,0.29603254795074463,-0.12042108178138733
1772648287497894400,6.615894287109375,-0.18405994772911072,0.3705081343650818,-0.12121105939149857
1772648287507934500,6.6259345703125,-0.18733564019203186,0.4489677846431732,-0.12792673707008362
1772648287517975600,6.6359755859375,-0.19426551461219788,0.5193954110145569,-0.13509830832481384
1772648287528015400,6.646015380859375,-0.2103281021118164,0.593579888343811,-0.14667053520679474
1772648287538056400,6.656056396484375,-0.2235015481710434,0.6836097836494446,-0.15462879836559296
1772648287548097300,6.66609716796875,-0.24157162010669708,0.7620745301246643,-0.15218694508075714
1772648287558137300,6.676137451171875,-0.2551353871822357,0.8075006604194641,-0.15669386088848114
1772648287568178400,6.686178466796875,-0.2659182548522949,0.8078058362007141,-0.16110564768314362
1772648287578218500,6.696218505859375,-0.2823866009712219,0.7655597925186157,-0.1565384417772293
1772648287588259600,6.706259521484375,-0.2874452769756317,0.6980170011520386,-0.1506134420633316
1772648287598300400,6.716300537109375,-0.2737560570240021,0.6254484057426453,-0.14322569966316223
1772648287608340500,6.726340576171875,-0.2399783730506897,0.552312433719635,-0.15067270398139954
1772648287618381600,6.736381591796875,-0.19549429416656494,0.46799543499946594,-0.15950755774974823
1772648287628422400,6.74642236328125,-0.15148475766181946,0.3576768934726715,-0.15284991264343262
1772648287638462500,6.75646240234375,-0.10108580440282822,0.24193763732910156,-0.1258266717195511
1772648287648503600,6.766503662109375,-0.03643011301755905,0.13976944983005524,-0.08672401309013367
1772648287658543600,6.776543701171875,0.04668324440717697,0.05377316102385521,-0.06124609708786011
1772648287668584700,6.786584716796875,0.12687928974628448,-0.02005765400826931,-0.03850483149290085
1772648287678625500,6.79662548828125,0.18003909289836884,-0.08799957484006882,-0.0019992110319435596
1772648287688665300,6.806665283203125,0.21517524123191833,-0.14904163777828217,0.04748285561800003
1772648287698706400,6.81670654296875,0.25013285875320435,-0.1881646364927292,0.1070479303598404
1772648287708747300,6.826747314453125,0.28559738397598267,-0.20877137780189514,0.1811477243900299
1772648287718787300,6.836787353515625,0.32544946670532227,-0.22377759218215942,0.2624562978744507
1772648287728828400,6.846828369140625,0.354274719953537,-0.22393152117729187,0.3361126482486725
1772648287738868500,6.856868408203125,0.3661573827266693,-0.2230566143989563,0.4029703736305237
1772648287748909600,6.86690966796875,0.3524114787578583,-0.24993190169334412,0.47184211015701294
1772648287758950400,6.876950439453125,0.33085986971855164,-0.2736237049102783,0.5200182199478149
1772648287768990500,6.886990478515625,0.31388619542121887,-0.26122617721557617,0.5468511581420898
1772648287779031600,6.897031494140625,0.28969043493270874,-0.2304547280073166,0.5458400845527649
1772648287789072600,6.90707275390625,0.2701670527458191,-0.17033334076404572,0.5306805968284607
1772648287799112400,6.917112548828125,0.250337153673172,-0.0934886634349823,0.5004452466964722
1772648287809153500,6.927153564453125,0.2399715930223465,-0.02057265117764473,0.4509437382221222
1772648287819193300,6.937193359375,0.2388818860054016,0.03268348053097725,0.385250985622406
1772648287829234400,6.947234375,0.23185406625270844,0.08403109014034271,0.3107951283454895
1772648287839275300,6.957275146484375,0.2276230752468109,0.12002740055322647,0.22971171140670776
1772648287849315300,6.9673154296875,0.2041449099779129,0.1125074252486229,0.165756955742836
1772648287859356400,6.9773564453125,0.16161909699440002,0.05713290348649025,0.13234949111938477
1772648287869396500,6.987396484375,0.10581175237894058,-0.04599853977560997,0.14214061200618744
1772648287879437600,6.9974375,0.05787902697920799,-0.17331504821777344,0.2073395997285843
1772648287889478400,7.007478515625,0.023238224908709526,-0.29575735330581665,0.2851307988166809
1772648287899518500,7.0175185546875,-0.0024798272643238306,-0.39730170369148254,0.32606518268585205
1772648287909559600,7.0275595703125,-0.027245894074440002,-0.459357887506485,0.3763453960418701
1772648287919600400,7.037600341796875,-0.034911707043647766,-0.5020173788070679,0.42043131589889526
1772648287929640400,7.047640380859375,-0.047842685133218765,-0.5437469482421875,0.4483731985092163
1772648287939681500,7.057681640625,-0.05470741540193558,-0.5605317950248718,0.448363721370697
1772648287949722600,7.06772265625,-0.05254146456718445,-0.547438383102417,0.4170345664024353
1772648287959762700,7.0777626953125,-0.04068667069077492,-0.5388180017471313,0.4029989242553711
1772648287969803500,7.087803466796875,-0.0306769460439682,-0.5190369486808777,0.382504940032959
1772648287979843300,7.09784326171875,-0.022431757301092148,-0.5112144351005554,0.35586556792259216
1772648287989884400,7.107884521484375,-0.02064903825521469,-0.5334789752960205,0.32822996377944946
1772648287999925200,7.11792529296875,-0.01974904164671898,-0.5603525042533875,0.27823999524116516
1772648288009965300,7.12796533203125,-0.027379797771573067,-0.5720752477645874,0.22000809013843536
1772648288020006400,7.13800634765625,-0.034441135823726654,-0.571148693561554,0.16288064420223236
1772648288030046500,7.14804638671875,-0.03740576654672623,-0.5559936761856079,0.11897417157888412
1772648288040087600,7.158087646484375,-0.04021883010864258,-0.5255986452102661,0.0845966637134552
1772648288050128400,7.16812841796875,-0.033342283219099045,-0.4739602208137512,0.05793895572423935
1772648288060168400,7.17816845703125,-0.024349045008420944,-0.4101872146129608,0.04243334010243416
1772648288070209500,7.18820947265625,-0.0093956608325243,-0.3374464213848114,0.030434999614953995
1772648288080250600,7.198250732421875,0.0038743289187550545,-0.25728940963745117,0.001775016775354743
1772648288090290400,7.20829052734375,0.021160641685128212,-0.1757889688014984,-0.026924272999167442
1772648288100331500,7.21833154296875,0.028860697522759438,-0.10468390583992004,-0.06412855535745621
1772648288110372600,7.22837255859375,0.04144706577062607,-0.03995897248387337,-0.09867455065250397
1772648288120412700,7.23841259765625,0.05427207425236702,0.017224106937646866,-0.12302535772323608
1772648288130453500,7.24845361328125,0.06440460681915283,0.06173191964626312,-0.14329414069652557
1772648288140493300,7.258493408203125,0.06637705862522125,0.08346230536699295,-0.15287402272224426
1772648288150534400,7.268534423828125,0.06250695884227753,0.0935375764966011,-0.150446817278862
1772648288160575500,7.278575439453125,0.058460161089897156,0.09562117606401443,-0.12577134370803833
1772648288170615600,7.288615478515625,0.04751616716384888,0.08188112825155258,-0.09260939806699753
1772648288180656400,7.298656494140625,0.0464932844042778,0.07940183579921722,-0.05473215505480766
1772648288190697500,7.308697509765625,0.06054545193910599,0.08131291717290878,-0.022248778492212296
1772648288200737500,7.318737548828125,0.09140164405107498,0.07586079090833664,0.013220908120274544
1772648288210778400,7.3287783203125,0.11983142048120499,0.044609133154153824,0.04384166747331619
1772648288220818400,7.338818359375,0.15149003267288208,0.002828813623636961,0.07455047965049744
1772648288230859500,7.348859619140625,0.17682309448719025,-0.05690482631325722,0.11149998009204865
1772648288240900600,7.358900634765625,0.18863160908222198,-0.14376136660575867,0.1364191323518753
1772648288250940700,7.368940673828125,0.192162424325943,-0.2313263714313507,0.13660289347171783
1772648288260981500,7.3789814453125,0.19635877013206482,-0.30179402232170105,0.11492732912302017
1772648288271022600,7.389022705078125,0.20481429994106293,-0.3321892321109772,0.08252891153097153
1772648288281062400,7.3990625,0.21935026347637177,-0.3522411286830902,0.04334135353565216
1772648288291103500,7.409103515625,0.22420892119407654,-0.3820839822292328,-0.0016242577694356441
1772648288301144300,7.419144287109375,0.24390098452568054,-0.3728967010974884,-0.04763921722769737
1772648288311184400,7.429184326171875,0.27229878306388855,-0.3622635006904602,-0.0795886218547821
1772648288321225500,7.4392255859375,0.27113381028175354,-0.37940430641174316,-0.07809000462293625
1772648288331265500,7.449265625,0.23723044991493225,-0.4352606534957886,-0.04247928038239479
1772648288341306400,7.459306396484375,0.1780538260936737,-0.5256311893463135,0.017563821747899055
1772648288351347500,7.469347412109375,0.11947013437747955,-0.5368992686271667,0.05531599372625351
1772648288361387500,7.479387451171875,0.05074829235672951,-0.4983229637145996,0.0911899283528328
1772648288371428600,7.4894287109375,-0.002088023815304041,-0.44582194089889526,0.14418843388557434
1772648288381469400,7.499469482421875,-0.01118782814592123,-0.3495623469352722,0.20922338962554932
1772648288391509500,7.509509521484375,0.026002949103713036,-0.20539584755897522,0.2653295397758484
1772648288401550600,7.519550537109375,0.06329678744077682,-0.038039419800043106,0.2871694266796112
1772648288411590700,7.529590576171875,0.06535860896110535,0.09438280761241913,0.2668639123439789
1772648288421631500,7.539631591796875,0.03606368228793144,0.17495077848434448,0.2313186228275299
1772648288431672600,7.549672607421875,0.016034312546253204,0.20812471210956573,0.19876201450824738
1772648288441712400,7.55971240234375,0.012574773281812668,0.2275390475988388,0.16352947056293488
1772648288451753500,7.56975341796875,0.019493665546178818,0.2848803699016571,0.14125531911849976
1772648288461794300,7.579794189453125,0.030139250680804253,0.35100314021110535,0.12223704904317856
1772648288471834400,7.58983447265625,0.035323627293109894,0.40239202976226807,0.08528649061918259
1772648288481875500,7.59987548828125,0.02855755016207695,0.41462594270706177,0.05721493810415268
1772648288491916500,7.60991650390625,0.017454564571380615,0.3942682147026062,0.019453976303339005
1772648288501956400,7.619956298828125,0.00436012540012598,0.34554195404052734,-0.025650842115283012
1772648288511997400,7.62999755859375,-0.020559873431921005,0.2719063460826874,-0.06909312307834625
1772648288522038500,7.64003857421875,-0.0558018796145916,0.19392532110214233,-0.07452452927827835
1772648288532078600,7.65007861328125,-0.09080459922552109,0.10174186527729034,-0.06415657699108124
1772648288542119400,7.660119384765625,-0.12329792231321335,0.011841431260108948,-0.06746580451726913
1772648288552159500,7.670159423828125,-0.14678089320659637,-0.06900627911090851,-0.07781564444303513
1772648288562200600,7.68020068359375,-0.16272032260894775,-0.12780098617076874,-0.08677911758422852
1772648288572241700,7.69024169921875,-0.1659584641456604,-0.1608859747648239,-0.09689673036336899
1772648288582281500,7.700281494140625,-0.15520079433918,-0.16632740199565887,-0.10532017052173615
1772648288592322600,7.710322509765625,-0.12129343301057816,-0.13469411432743073,-0.11642342060804367
1772648288602363600,7.72036376953125,-0.07854098826646805,-0.0752934068441391,-0.12940210103988647
1772648288612403500,7.730403564453125,-0.0365554541349411,-0.0021502268500626087,-0.14572541415691376
1772648288622444300,7.7404443359375,-0.004220993723720312,0.08375535905361176,-0.16120052337646484
1772648288632484400,7.750484375,0.02345670759677887,0.171566441655159,-0.17142173647880554
1772648288642525400,7.760525390625,0.046232789754867554,0.24666768312454224,-0.1895199716091156
1772648288652566500,7.77056640625,0.049075447022914886,0.2884657382965088,-0.20785290002822876
1772648288662606600,7.780606689453125,0.039148371666669846,0.307037889957428,-0.22913683950901031
1772648288672647400,7.7906474609375,0.011290107853710651,0.30341172218322754,-0.2536155581474304
1772648288682688500,7.8006884765625,-0.033398598432540894,0.28669142723083496,-0.2588035762310028
1772648288692728600,7.810728515625,-0.07778896391391754,0.2774561047554016,-0.2588544487953186
1772648288702769400,7.820769287109375,-0.10299369692802429,0.2915269732475281,-0.2608673870563507
1772648288712810500,7.830810546875,-0.12370563298463821,0.3123129606246948,-0.25563958287239075
1772648288722850600,7.8408505859375,-0.13434772193431854,0.31636515259742737,-0.26444211602211
1772648288732891600,7.8508916015625,-0.13602152466773987,0.2844839096069336,-0.27565351128578186
1772648288742931500,7.860931396484375,-0.13301272690296173,0.24358119070529938,-0.27933934330940247
1772648288752972300,7.87097216796875,-0.11490748822689056,0.22443732619285583,-0.2740234136581421
1772648288763013400,7.881013427734375,-0.09622460603713989,0.20153892040252686,-0.26436513662338257
1772648288773053400,7.891053466796875,-0.07808181643486023,0.18723508715629578,-0.266466349363327
1772648288783094500,7.901094482421875,-0.06531404703855515,0.18440574407577515,-0.2774481475353241
1772648288793135400,7.91113525390625,-0.06065218150615692,0.18055881559848785,-0.2863953113555908
1772648288803175400,7.921175537109375,-0.05756937339901924,0.19093486666679382,-0.28909727931022644
1772648288813216500,7.931216552734375,-0.06757300347089767,0.20572206377983093,-0.28189048171043396
1772648288823257300,7.94125732421875,-0.07999644428491592,0.21173426508903503,-0.2682986557483673
1772648288833297400,7.95129736328125,-0.1012713685631752,0.21108470857143402,-0.25543877482414246
1772648288843338500,7.96133837890625,-0.12438662350177765,0.20764988660812378,-0.24984532594680786
1772648288853379600,7.971379638671875,-0.14570309221744537,0.2042655348777771,-0.2404976189136505
1772648288863419600,7.981419677734375,-0.16535623371601105,0.18522584438323975,-0.22172534465789795
1772648288873460500,7.99146044921875,-0.17950133979320526,0.17432951927185059,-0.20023256540298462
1772648288883500500,8.00150048828125,-0.18280594050884247,0.1838091015815735,-0.18273422122001648
1772648288893541600,8.011541748046875,-0.17678053677082062,0.21393078565597534,-0.16670997440814972
1772648288903582500,8.02158251953125,-0.16881288588047028,0.2484152615070343,-0.15251585841178894
1772648288913622300,8.031622314453125,-0.16889597475528717,0.2732638716697693,-0.13826262950897217
1772648288923663400,8.041663330078125,-0.17390283942222595,0.2871607840061188,-0.12457939237356186
1772648288933704400,8.051704345703126,-0.18455255031585693,0.2976754903793335,-0.11570973694324493
1772648288943744500,8.06174462890625,-0.1950284242630005,0.29904553294181824,-0.10512173175811768
1772648288953786000,8.0717861328125,-0.20658202469348907,0.30106741189956665,-0.09034864604473114
1772648288963827200,8.0818271484375,-0.22027534246444702,0.3018050789833069,-0.07607819885015488
1772648288973867300,8.0918671875,-0.2422136664390564,0.31484100222587585,-0.054416585713624954
1772648288983908000,8.101908203125,-0.26003867387771606,0.34098076820373535,-0.03074510768055916
1772648288993948000,8.111947998046874,-0.27505677938461304,0.37468811869621277,-0.0016149189323186874
1772648289003989000,8.121989013671875,-0.2837349474430084,0.40815287828445435,0.020480796694755554
1772648289014030000,8.132030029296875,-0.2806800305843353,0.45391103625297546,0.03285863623023033
1772648289024070100,8.142070068359375,-0.2681553065776825,0.49899351596832275,0.03284260630607605
1772648289034111000,8.152111083984375,-0.2461530566215515,0.5353624224662781,0.031084388494491577
1772648289044152000,8.162152099609376,-0.22498267889022827,0.5603638887405396,0.03956165909767151
1772648289054192000,8.172192138671875,-0.20508593320846558,0.5784976482391357,0.05278957635164261
1772648289064233000,8.18223291015625,-0.18318679928779602,0.605728268623352,0.05950620770454407
1772648289074274000,8.192274169921875,-0.1610647290945053,0.6300237774848938,0.07089761644601822
1772648289084314000,8.202314208984374,-0.13750451803207397,0.6560726165771484,0.07917025685310364
1772648289094355200,8.212355224609375,-0.10359767824411392,0.6773531436920166,0.07062283903360367
1772648289104395300,8.222395263671874,-0.06305454671382904,0.6531432271003723,0.06089424714446068
1772648289114436000,8.23243603515625,-0.023073304444551468,0.5595866441726685,0.06761899590492249
1772648289124477200,8.242477294921875,0.05496620759367943,0.4405459463596344,0.08454107493162155
1772648289134517200,8.252517333984375,0.11303563416004181,0.363390177488327,0.09181284159421921
1772648289144558000,8.26255810546875,0.28295275568962097,0.2597671151161194,0.0723712295293808
1772648289154599200,8.27259912109375,0.39287421107292175,0.17501603066921234,0.04345676302909851
1772648289164639000,8.282638916015625,0.4702293276786804,0.05622600391507149,0.00016080308705568314
1772648289174680000,8.29268017578125,0.5069963932037354,-0.09593610465526581,-0.023635340854525566
1772648289184721000,8.302720947265625,0.5084114670753479,-0.25125569105148315,-0.013427495956420898
1772648289194761000,8.312760986328126,0.4996233284473419,-0.3683796525001526,0.01977972686290741
1772648289204802000,8.322802001953125,0.4943212866783142,-0.4446202218532562,0.05960642173886299
1772648289214842000,8.332842041015626,0.48276105523109436,-0.48567232489585876,0.09876980632543564
1772648289224883200,8.34288330078125,0.4603298008441925,-0.5241153836250305,0.14931590855121613
1772648289234924000,8.352924072265624,0.43075886368751526,-0.5716331005096436,0.21785742044448853
1772648289244964000,8.362964111328125,0.39567261934280396,-0.6205171346664429,0.2763345241546631
1772648289255005200,8.373005126953124,0.36554402112960815,-0.6325037479400635,0.30141082406044006
1772648289265046000,8.3830458984375,0.33918294310569763,-0.599241316318512,0.2982737720012665
1772648289275086000,8.393086181640625,0.3142155408859253,-0.5234549641609192,0.2760840654373169
1772648289285127200,8.403127197265626,0.2932237982749939,-0.438050776720047,0.23027396202087402
1772648289295168300,8.413168212890625,0.2676164209842682,-0.36672893166542053,0.1698090136051178
1772648289305208300,8.423208251953126,0.24257320165634155,-0.3136100769042969,0.107164666056633
1772648289315249200,8.433249267578125,0.20649614930152893,-0.2959764897823334,0.048300016671419144
1772648289325290200,8.443290283203124,0.16884562373161316,-0.30241647362709045,0.005893563851714134
1772648289335330000,8.453330078125,0.12832030653953552,-0.32560381293296814,-0.015091612003743649
1772648289345371000,8.463370849609374,0.07259473949670792,-0.3701381981372833,-0.01597529649734497
1772648289355411000,8.473410888671875,0.02232571318745613,-0.426199346780777,-0.0013108658604323864
1772648289365452000,8.4834521484375,-0.012317483313381672,-0.4834461212158203,0.030221492052078247
1772648289375493000,8.4934931640625,-0.03009248524904251,-0.5251416563987732,0.0781107246875763
1772648289385533200,8.503533203125,-0.034078218042850494,-0.5591720938682556,0.12789934873580933
1772648289395574000,8.513573974609375,-0.029073607176542282,-0.5914371013641357,0.16546110808849335
1772648289405615000,8.523614990234375,-0.020441928878426552,-0.6197426915168762,0.1871211677789688
1772648289415655200,8.5336552734375,-0.01186202373355627,-0.6384620666503906,0.196280837059021
1772648289425696300,8.5436962890625,-0.005340172443538904,-0.6671484708786011,0.19573241472244263
1772648289435737000,8.553737060546876,-0.009500828571617603,-0.6996251940727234,0.1944061517715454
1772648289445777200,8.563777099609375,-0.007108863443136215,-0.7256127595901489,0.17987127602100372
1772648289455818200,8.573818359375,-0.005622286815196276,-0.7510563135147095,0.1528116911649704
1772648289465858000,8.583858154296875,-0.008852796629071236,-0.7613362669944763,0.11664891988039017
1772648289475899000,8.59389892578125,-0.013037154451012611,-0.7640135288238525,0.0883650854229927
1772648289485940000,8.60393994140625,-0.025637302547693253,-0.7577097415924072,0.06217367202043533
1772648289495980000,8.61397998046875,-0.044237617403268814,-0.7274064421653748,0.01785467565059662
1772648289506021000,8.624021240234375,-0.04591904208064079,-0.6934994459152222,-0.031800031661987305
1772648289516062000,8.63406201171875,-0.03788748010993004,-0.663318395614624,-0.05091114342212677
1772648289526102000,8.64410205078125,-0.019195688888430595,-0.6298872232437134,-0.05788207799196243
1772648289536143000,8.65414306640625,-0.005996261723339558,-0.5903403162956238,-0.06252609193325043
1772648289546184000,8.664183837890626,0.011128425598144531,-0.5465101003646851,-0.07006330788135529
1772648289556224000,8.67422412109375,0.024159273132681847,-0.5036497116088867,-0.08548594266176224
1772648289566265000,8.68426513671875,0.03499191999435425,-0.4567103683948517,-0.11733048409223557
1772648289576305200,8.69430517578125,0.041520923376083374,-0.407596617937088,-0.1478140950202942
1772648289586346200,8.70434619140625,0.04412988945841789,-0.365168958902359,-0.17513561248779297
1772648289596387000,8.714386962890625,0.044031620025634766,-0.326317697763443,-0.19488881528377533
1772648289606427100,8.72442724609375,0.03811875730752945,-0.3032572865486145,-0.20996518433094025
1772648289616468200,8.73446826171875,0.03390830010175705,-0.2944241166114807,-0.2199224829673767
1772648289626509300,8.74450927734375,0.03628355637192726,-0.2881963849067688,-0.22816091775894165
1772648289636549000,8.754549072265625,0.04107218608260155,-0.2822258472442627,-0.22700510919094086
1772648289646590000,8.76458984375,0.05137151852250099,-0.2794095277786255,-0.20869052410125732
1772648289656631000,8.774631103515626,0.06461434811353683,-0.2712711691856384,-0.1708424687385559
1772648289666671000,8.784671142578125,0.08530803769826889,-0.2688983976840973,-0.1298454999923706
1772648289676712000,8.7947119140625,0.09748880565166473,-0.2682589888572693,-0.10646294802427292
1772648289686752000,8.804751953125,0.11362600326538086,-0.25455719232559204,-0.09805916994810104
1772648289696793000,8.81479296875,0.13102415204048157,-0.22503070533275604,-0.09488601237535477
1772648289706834200,8.824834228515625,0.14895805716514587,-0.19596560299396515,-0.08703792840242386
1772648289716874200,8.834874267578124,0.15742984414100647,-0.18042579293251038,-0.07457087188959122
1772648289726915000,8.8449150390625,0.1608002930879593,-0.20230633020401,-0.06676942110061646
1772648289736956200,8.8549560546875,0.16058297455310822,-0.23651595413684845,-0.06723334640264511
1772648289746996200,8.864996337890625,0.1598788946866989,-0.2607877254486084,-0.07480469346046448
1772648289757037000,8.875037109375,0.15622876584529877,-0.2651028633117676,-0.07165657728910446
1772648289767078100,8.885078125,0.14698761701583862,-0.25438839197158813,-0.0644548311829567
1772648289777118200,8.8951181640625,0.13542284071445465,-0.2377271205186844,-0.06899392604827881
1772648289787159300,8.9051591796875,0.1261036992073059,-0.21736229956150055,-0.08623697608709335
1772648289797199000,8.91519921875,0.12103410065174103,-0.19966399669647217,-0.1101020947098732
1772648289807240000,8.925239990234376,0.12007641047239304,-0.19715002179145813,-0.1302187591791153
1772648289817281000,8.935281005859375,0.12550872564315796,-0.19804778695106506,-0.14084742963314056
1772648289827321000,8.945321044921876,0.14222541451454163,-0.18049056828022003,-0.16194158792495728
1772648289837362200,8.955362060546875,0.1656079739332199,-0.17282038927078247,-0.17809899151325226
1772648289847403000,8.965403076171874,0.16226249933242798,-0.21810148656368256,-0.16713646054267883
1772648289857443000,8.975443115234375,0.11064483970403671,-0.33484432101249695,-0.12282944470643997
1772648289867484200,8.985484130859374,0.08733270317316055,-0.3743119537830353,-0.04986076056957245
1772648289877525000,8.99552490234375,0.09139269590377808,-0.34726035594940186,0.07093223929405212
1772648289887565000,9.00556494140625,0.09315717965364456,-0.3123980462551117,0.16337290406227112
1772648289897606100,9.015606201171876,0.11644838750362396,-0.2668289840221405,0.2230341136455536
1772648289907647200,9.025647216796875,0.1563003957271576,-0.20892614126205444,0.2811419665813446
1772648289917687300,9.035687255859376,0.17394623160362244,-0.1591133028268814,0.3262905478477478
1772648289927728000,9.04572802734375,0.15875200927257538,-0.11133194714784622,0.36292192339897156
1772648289937768000,9.055767822265626,0.13877376914024353,-0.037637487053871155,0.346675843000412
1772648289947809000,9.06580908203125,0.12686610221862793,0.040222473442554474,0.3000789284706116
1772648289957849900,9.075849853515624,0.10507825762033463,0.061277955770492554,0.27918803691864014
1772648289967889700,9.0858896484375,0.0805264264345169,0.07704339921474457,0.23028682172298431
1772648289977930800,9.0959306640625,0.05953352898359299,0.10397115349769592,0.16132214665412903
1772648289987971800,9.105971923828125,0.043226271867752075,0.146731436252594,0.10001754015684128
1772648289998012000,9.116011962890624,0.023554032668471336,0.17649759352207184,0.08721998333930969
1772648290008052700,9.126052734375,0.0057044983841478825,0.1949813812971115,0.09461895376443863
1772648290018093800,9.13609375,-0.013295025564730167,0.18570426106452942,0.11504832655191422
1772648290028134000,9.1461337890625,-0.02769092470407486,0.16607244312763214,0.11610547453165054
1772648290038175000,9.156175048828125,-0.04025891050696373,0.14144273102283478,0.08756544440984726
1772648290048215000,9.166215087890626,-0.053407955914735794,0.1335689276456833,0.06647850573062897
1772648290058256000,9.176255859375,-0.056225843727588654,0.1527271717786789,0.08362580090761185
1772648290068297000,9.186296875,-0.06325477361679077,0.1949564814567566,0.11502621322870255
1772648290078337000,9.1963369140625,-0.07471728324890137,0.24708014726638794,0.11505603790283203
1772648290088377900,9.2063779296875,-0.07887078076601028,0.29821962118148804,0.08650703728199005
1772648290098419000,9.2164189453125,-0.08075070381164551,0.3443729877471924,0.033576980233192444
1772648290108458800,9.226458740234374,-0.07276026159524918,0.38109666109085083,-0.043776754289865494
1772648290118499800,9.236499755859375,-0.05396713316440582,0.415195494890213,-0.12248434871435165
1772648290128540700,9.246540771484375,-0.03408455476164818,0.4318084716796875,-0.19691461324691772
1772648290138580700,9.256580810546875,-0.020031318068504333,0.42852479219436646,-0.23641595244407654
1772648290148621800,9.266621826171875,0.0013573931064456701,0.4105566143989563,-0.2130739390850067
1772648290158662000,9.276661865234376,0.014043094590306282,0.3726893961429596,-0.15408173203468323
1772648290168702700,9.28670263671875,0.022365670651197433,0.34920892119407654,-0.1347777396440506
