time,seconds_elapsed,z,y,x
1772642672218060300,0.060060302734375,0.0399976638674736,-0.055123921328783035,0.039220542015135286
1772642672228101400,0.070101318359375,0.03396832057535648,-0.06880699424445628,0.053919367844611404
1772642672238142200,0.08014208984375,0.028035131134092808,-0.06082710140645504,0.030946926927566527
1772642672248184300,0.090184326171875,0.03847147721350193,-0.05212064785957336,0.004340513422340154
1772642672258225200,0.10022509765625,0.04343903649300337,-0.044559272694587704,0.005400543869286775
1772642672268267500,0.110267578125,0.06450111374408006,-0.03299801423847675,0.005902940433472395
1772642672278308400,0.120308349609375,0.063203182888031,-0.04543722457289696,-0.013129822947084903
1772642672288349400,0.130349365234375,0.08147796750813723,-0.03251403011381626,-0.01268573244139552
1772642672298391300,0.140391357421875,0.10565379286557436,-0.03270750685930252,-0.0027421383149921893
1772642672308432400,0.150432373046875,0.07299012514799832,-0.02788286318182945,0.015936697061359882
1772642672318474200,0.16047412109375,0.04505728534460068,-0.017406477352976797,0.011691752967983483
1772642672328515300,0.170515380859375,0.06054419281184673,-0.024257658421993254,-0.047696109415590764
1772642672338556400,0.180556396484375,0.04636661437749862,-0.012073884153366089,0.009664046532660722
1772642672348598300,0.190598388671875,0.03677870182096958,-0.004852700728178024,-0.005948533140867948
1772642672358639400,0.200639404296875,0.0558574963003397,-0.019227847561240196,-0.0012583294980227947
1772642672368681200,0.21068115234375,0.057007835379242894,-0.031055647999048232,-0.005196399599313736
1772642672378722300,0.220722412109375,0.03235036398470401,-0.010970306825637816,-0.004816021979600191
1772642672388763100,0.23076318359375,0.024112112471461295,-0.026088380980491637,-0.019894787037372588
1772642672398805500,0.240805419921875,0.040164252606034276,-0.05060615164339542,-0.014843202736228703
1772642672408846300,0.250846435546875,0.03907207345515489,-0.048584874948859214,-0.010154168137162923
1772642672418888400,0.260888427734375,0.05775368531048298,-0.03887713540494442,0.01630392293855548
1772642672428929300,0.27092919921875,0.04312953215241432,-0.036003041273355484,0.007032675115764141
1772642672438970400,0.280970458984375,0.035001170754432674,-0.039188685572147365,-0.010693097319453953
1772642672449012200,0.29101220703125,0.03359451882690191,-0.038103812944889064,0.017582272311300037
1772642672459053300,0.30105322265625,0.03612842121869325,-0.03469020510911942,0.010971183608472346
1772642672469095200,0.31109521484375,0.03453413776457309,-0.03593757482171058,0.015464695635437965
1772642672479136300,0.32113623046875,0.050288171735405916,-0.034297990921139714,-0.0037825872786343097
1772642672489177300,0.33117724609375,0.046915480431914326,-0.03798164786994457,-0.007859627459198236
1772642672499219500,0.341219482421875,0.05883680437207222,-0.048993455749750135,-0.03209039787426591
1772642672509260500,0.351260498046875,0.044396775609254834,-0.038424715462327,-0.04351736242622137
1772642672519301400,0.36130126953125,0.009800678524374962,-0.03850011878609657,-0.039651334647834297
1772642672529343500,0.371343505859375,0.018170739723742006,-0.05354746579229831,-0.03948489203974604
1772642672539384300,0.38138427734375,0.004466331759095192,-0.04841770168840885,-0.041736470358818764
1772642672549426400,0.391426513671875,0.01179798982143402,-0.0634995354861021,-0.04960559629872441
1772642672559467300,0.40146728515625,0.04374064978808164,-0.047745501515269274,-0.03912380364239216
1772642672569508400,0.41150830078125,0.042570729225873946,-0.0407470209300518,-0.05064969852417707
1772642672579550200,0.42155029296875,0.044974575497210026,-0.03389057916402816,-0.031086919920146464
1772642672589591300,0.43159130859375,0.041244741319119926,-0.030285248148441312,-0.013525982657819985
1772642672599633200,0.441633056640625,0.048431437952816486,-0.023477321699261665,-0.0061957859002053734
1772642672609674200,0.45167431640625,0.04724544303864241,-0.034465748703479765,-0.009843494752794503
1772642672619715300,0.46171533203125,0.044480946761369704,-0.0234931037902832,-0.02670753579214215
1772642672629757400,0.47175732421875,0.03599690379351377,-0.01978138979077339,-0.026653029125928877
1772642672639798500,0.481798583984375,0.015932605408132076,-0.04095394167900085,-0.0001033142440021038
1772642672649840400,0.49184033203125,0.02606821497529745,-0.06807809544801711,0.006914747824519872
1772642672659881500,0.501881591796875,0.030632454150915145,-0.0600707300812006,-0.011580986069887876
1772642672669922300,0.51192236328125,0.030590953096747395,-0.05064589913189411,0.011707535059005021
1772642672679964400,0.52196435546875,0.04484978007376194,-0.05115560221970081,-0.0025413550458848475
1772642672690005200,0.532005126953125,0.0596980973765254,-0.03940028249621391,-0.008995207360386849
1772642672700046800,0.542046875,0.024913199721276758,-0.051442017945647234,0.011027882231771945
1772642672710087700,0.552087646484375,0.028388474616408345,-0.03285422185361385,0.003738163615018129
1772642672720128800,0.562128662109375,0.0444984824180603,-0.027005495825409887,0.0006575871258974075
1772642672730170600,0.572170654296875,0.055552375873923296,-0.025020459488034247,-0.01779284632205963
1772642672740211700,0.582211669921875,0.06285656140744686,-0.027160394126176834,-0.015558803659677505
1772642672750253800,0.59225390625,0.05368073678314685,-0.02123918738365173,-0.019139292494952678
1772642672760295000,0.602294921875,0.04625350939184427,-0.03499474101364612,-0.017309592849761246
1772642672770336000,0.6123359375,0.035272681172192094,-0.020704349854588508,-0.021537147416919467
1772642672780377900,0.6223779296875,0.05962473987936973,-0.03976619319915771,-0.02265577618330717
1772642672790419000,0.6324189453125,0.04189706774801016,-0.03269815450906753,-0.03579728956818581
1772642672800460800,0.642460693359375,0.05770224738419055,-0.03492342934310436,-0.025468495516479013
1772642672810502000,0.652501953125,0.038162265133857724,-0.037488895916938776,-0.01628361080288887
1772642672820542700,0.662542724609375,0.03729308108389377,-0.035922377252578734,-0.010450959126651286
1772642672830584800,0.672584716796875,0.012658990564942359,-0.04844809682667255,0.00019376900643110274
1772642672840625700,0.682625732421875,0.005807224974036216,-0.044213820257782935,0.0037574528373777866
1772642672850667800,0.692667724609375,0.037353286838531494,-0.047993338796496386,0.012083236503601073
1772642672860708600,0.70270849609375,0.03742927468419075,-0.04112754468023777,-0.007609013698995113
1772642672870749700,0.712749755859375,0.0493868389815092,-0.03521159863471985,0.005542436558008194
1772642672880791800,0.722791748046875,0.03962561568468809,-0.039698973181843754,-0.0007800444617867469
1772642672890833000,0.7328330078125,0.028346389040350913,-0.03766542152762413,-0.021876170112937687
1772642672900874000,0.7428740234375,0.006383563557267189,-0.04954290632605552,-0.008292904309928417
1772642672910915800,0.752915771484375,-0.006963701532781124,-0.05065291339457035,0.00010448328778147696
1772642672920957000,0.76295703125,0.007944821524620055,-0.04757482112348079,-0.007119768877327442
1772642672930998800,0.772998779296875,0.03925298298001289,-0.04795008417665958,-0.014111673591285944
1772642672941039900,0.783039794921875,0.05826046578884125,-0.050583355289697644,-0.02407178046107292
1772642672951080700,0.793080810546875,0.06444529190361499,-0.03810205937922,-0.028251111972332
1772642672961122800,0.803122802734375,0.03564735970348119,-0.02296294243633747,-0.02340849424675107
1772642672971163600,0.81316357421875,0.037325229787826535,-0.03440203581750393,-0.01983984197974205
1772642672981205800,0.823205810546875,0.023877426932752133,-0.02344926464855671,0.008470160572975874
1772642672991246600,0.83324658203125,0.0424704837217927,-0.020846388673782346,-0.003916150530427694
1772642673001287700,0.84328759765625,0.027276713982224463,-0.0274450562864542,-0.003301379632949829
1772642673011329800,0.853329833984375,0.03712473877966404,-0.037971710997819895,-0.017328882072120903
1772642673021371000,0.863370849609375,0.03968348335176706,-0.04433423176705837,-0.0223123695731163
1772642673031412700,0.873412841796875,0.03825988028943538,-0.021838322320580483,-0.023791648345440626
1772642673041453800,0.883453857421875,0.04830810383409261,-0.02657178058326244,-0.034752310559898615
1772642673051495000,0.893494873046875,0.0477706359565258,-0.02654138544499874,-0.01670081330165267
1772642673061536800,0.903536865234375,0.04510638518333435,-0.02537584879696369,-0.019981588537991046
1772642673071577900,0.913577880859375,0.03999532577991485,-0.029496143597364424,-0.014087562063336372
1772642673081619700,0.92361962890625,0.022641163136065005,-0.05602057790756225,-0.01931625649705529
1772642673091660800,0.933660888671875,0.01654547660946846,-0.04927110364735126,-0.01812996932193637
1772642673101701600,0.94370166015625,0.020324995148181913,-0.05959317569732666,-0.01080634843558073
1772642673111743700,0.95374365234375,0.02370586975812912,-0.07086568033993244,-0.010917407594621181
1772642673121784800,0.963784912109375,0.03896919760257005,-0.06616904695630073,-0.01321034083738923
1772642673131827000,0.973826904296875,0.0576134000569582,-0.04684066163003445,-0.004659954635053873
1772642673141867800,0.98386767578125,0.05529986241757869,-0.04514437910616398,-0.008052081291377544
1772642673151908900,0.993908935546875,0.0385381127089262,-0.04025543802082538,-0.012756021198630332
1772642673161950700,1.00395068359375,0.02134995428174734,-0.025247838503122327,-0.007721972554177045
1772642673171991800,1.01399169921875,0.012019231356680392,-0.04465513428449631,-0.006107815355807542
1772642673182033700,1.02403369140625,0.02572743871361017,-0.0734773241430521,-0.0011427402943372726
1772642673192074800,1.03407470703125,0.03358165934532881,-0.06661445263624191,0.003333820597827434
1772642673202115800,1.04411572265625,0.03639116380810738,-0.048127778831124304,0.0065825932607054705
1772642673212157700,1.05415771484375,0.044701019252836705,-0.042779403540492054,-0.008598024736344814
1772642673222198800,1.06419873046875,0.03608049042373895,-0.04665770627856254,0.0032826749324798583
1772642673232239600,1.074239501953125,0.042541210870444775,-0.03609422668814659,-0.023454379215091466
1772642673242282000,1.084281982421875,0.02558364632874727,-0.047426937085390086,-0.0015298399157822132
1772642673252322800,1.09432275390625,0.03254530203491449,-0.042533319824934,0.005901917520165443
1772642673262365000,1.104364990234375,0.025475802040100096,-0.06488660593032837,0.006560965950787067
1772642673272405800,1.11440576171875,0.009518938973546028,-0.053687751045823094,0.012505261307954787
1772642673282446800,1.12444677734375,0.0393137732565403,-0.058548050558567044,-0.009063158030062914
1772642673292488700,1.13448876953125,0.04107055379599332,-0.0657914458155632,-0.01665025215819478
1772642673302529800,1.14452978515625,0.05541092157661914,-0.05618307499289512,-0.01581672394350171
1772642673312571600,1.154571533203125,0.029946517713367937,-0.05138005862534046,-0.00858881851658225
1772642673322612700,1.16461279296875,0.025521979269385337,-0.041079613885283466,0.012110855162888765
1772642673332653800,1.17465380859375,0.025415596285462378,-0.036976270219683645,0.005513502724468708
1772642673342695700,1.18469580078125,0.030299568934738633,-0.022430442994832992,0.012911796282231807
1772642673352736800,1.19473681640625,0.02864917137920856,-0.03448269983828067,0.015238631794601679
1772642673362779000,1.20477880859375,0.020798457878828048,-0.04857084642350673,-0.015871084479242563
1772642673372820000,1.214820068359375,0.02701630948036909,-0.03986205478906631,-0.01193900572732091
1772642673382860800,1.22486083984375,0.03915302973687648,-0.03988660470843315,-0.003331920901685953
1772642673392903000,1.23490283203125,0.03887538183927536,-0.040026889961957926,-0.009588204817473888
1772642673402943700,1.24494384765625,0.03798223239183426,-0.055220951962471,-0.010772300035506487
1772642673412985900,1.25498583984375,0.023828034833073615,-0.05344225185215473,-0.03367854384854436
1772642673423026700,1.265026611328125,0.0035498014360666272,-0.057688803380727766,-0.01999240219295025
1772642673433067800,1.27506787109375,0.013334697869420051,-0.07691548189818859,-0.01969882607385516
1772642673443109600,1.285109619140625,0.007294248661398888,-0.04783434884250164,-0.020050708251446486
1772642673453150700,1.295150634765625,0.0012535071924328802,-0.049943303820490836,-0.004325315853208303
1772642673463191800,1.30519189453125,0.007662205190956592,-0.05314765281975269,-0.0003917757965624332
1772642673473233700,1.315233642578125,0.03230126414597034,-0.05992109247744083,-0.008578589383512735
1772642673483274800,1.325274658203125,0.025713702449202538,-0.05341127219200134,-0.016841244685649872
1772642673493316900,1.33531689453125,0.04779284778833389,-0.04100888673663139,-0.018322277023643255
1772642673503358000,1.34535791015625,0.027075930713117122,-0.05166764339506626,-0.02609408006891608
1772642673513398800,1.355398681640625,0.032177930027246476,-0.04541968891620636,-0.00902370280250907
1772642673523441000,1.36544091796875,0.012607844899594782,-0.06310381416678429,-0.014267302544414997
1772642673533481700,1.375481689453125,0.012720365363359451,-0.06418108800947665,-0.0026063831061124802
1772642673543523800,1.38552392578125,0.026763503763079642,-0.045835868501663206,0.0029446751497685907
1772642673553564700,1.395564697265625,0.013678396740555763,-0.038863691401481625,-0.01239902445450425
1772642673563605800,1.405605712890625,0.007323182494938373,-0.03849368904531002,-0.015511018995195627
1772642673573647600,1.415647705078125,0.0014838088169693946,-0.042784664237499236,-0.02571574827581644
1772642673583688700,1.425688720703125,0.006458966881036758,-0.038843817657232285,-0.018378391125053167
1772642673593730800,1.435730712890625,-0.003694470603764057,-0.052799862295389174,-0.017394348523765802
1772642673603772000,1.44577197265625,0.0015416764840483666,-0.03316168036758899,-0.013550824838131666
1772642673613813000,1.45581298828125,0.008610007435083389,-0.0273100317299366,0.008712591026723384
1772642673623854800,1.465854736328125,0.043916006354987616,-0.05118891996741295,0.004184884469211101
1772642673633896000,1.47589599609375,0.02688859144747257,-0.037949499166011806,-0.004789426233619451
1772642673643937800,1.485937744140625,0.013830080170929432,-0.02151332814991474,-0.013782149375975132
1772642673653979000,1.495978759765625,0.004705401211977005,-0.0486813210606575,-0.024845395182073116
1772642673664019700,1.506019775390625,-0.004255611617863178,-0.059874330726265905,-0.014494535429030656
1772642673674061800,1.516061767578125,-0.0252881705135107,-0.04952244805991649,-0.0081672321036458
1772642673684102700,1.5261025390625,-0.019159750761091707,-0.06599369038939476,-0.005805179147422314
1772642673694143700,1.536143798828125,-0.004101882360875607,-0.07700374470353126,0.009897709158062934
1772642673704186600,1.5461865234375,0.01488192731142044,-0.07934417034983635,0.0038069910675287244
1772642673714227700,1.556227783203125,0.004261164575815201,-0.07779460282027721,0.0016622341237962244
1772642673724269600,1.56626953125,-0.0010158990442752838,-0.09093933107554912,0.0009565700724720954
1772642673734310700,1.576310546875,0.006997896063327789,-0.06341361076831817,-0.006196516552567481
1772642673744351700,1.586351806640625,0.010100830514729023,-0.06227203951776027,0.00986190719231963
1772642673754393600,1.5963935546875,0.0050134442478418344,-0.05454290657043457,0.014924305148422717
1772642673764434700,1.6064345703125,0.015587445232272148,-0.059251814913749694,0.0015758710145950317
1772642673774476500,1.6164765625,0.030127134977281093,-0.0626981559753418,-0.013557108448445796
1772642673784517600,1.626517578125,0.028484920728206634,-0.06935586029887199,-0.012639116820693016
1772642673794558500,1.636558349609375,0.021674656191468238,-0.07119651972949505,-0.024754648158699273
1772642673804600800,1.646600830078125,0.017985738545656202,-0.06325637437999249,-0.01911532709747553
1772642673814641700,1.6566416015625,0.015120996764302253,-0.05399930121302604,-0.022284166391938923
1772642673824683800,1.666683837890625,0.00904606076478958,-0.04049275390803814,-0.014867606525123119
1772642673834724600,1.676724609375,0.025133856734633444,-0.036680502143502235,-0.0180991357922554
1772642673844765700,1.686765625,0.017473112848401067,-0.04063479272723198,-0.02251461414694786
1772642673854807600,1.6968076171875,0.008677811974287032,-0.03489946394562721,-0.0013159049041569233
1772642673864848600,1.7068486328125,0.02291764198988676,-0.05386427665650844,-0.014036270267516374
1772642673874890500,1.716890380859375,0.016496376770734785,-0.06621171705424785,-0.010780191081017255
1772642673884931600,1.726931640625,0.020906302167475223,-0.05999181962609291,-0.0004364917211234569
1772642673894972700,1.73697265625,0.030181495513021944,-0.04709317508637905,-0.021037381201237437
1772642673905014500,1.7470146484375,0.034652503447234625,-0.037782325905561444,-0.020446867962181568
1772642673915055600,1.7570556640625,0.020523732590675352,-0.0372089099317789,-0.01664864472299814
1772642673925097700,1.76709765625,0.015252514189481734,-0.04854571198225021,-0.018054565998166797
1772642673935138800,1.777138916015625,0.02556143449693918,-0.04773381107747555,-0.018255787658691406
1772642673945179600,1.7871796875,0.028209610918164253,-0.03780804486870765,-0.01723784278780222
1772642673955221800,1.7972216796875,0.024234862068295476,-0.04158873245120048,-0.027116262723505494
1772642673965262600,1.8072626953125,0.02383037292063236,-0.02453179918825626,-0.02801598804220557
1772642673975303700,1.8173037109375,0.018237082958221434,-0.03065700407028198,-0.03979425024986267
1772642673985345500,1.827345458984375,0.021041326723992823,-0.0467728570908308,-0.02102949015572667
1772642673995386600,1.83738671875,0.017609890970587728,-0.05173427889049053,-0.010843319445103406
1772642674005428500,1.847428466796875,-0.0009945639953017234,-0.06341127268075943,0.007077975562214851
1772642674015469600,1.857469482421875,0.015709025785326958,-0.07130524080097675,0.01783186315819621
1772642674025510700,1.8675107421875,0.030976153022050857,-0.06716448773443698,0.0296235693693161
1772642674035552500,1.877552490234375,0.04338409143537283,-0.053202597877383226,0.013692717526853084
1772642674045593600,1.887593505859375,0.01570844126343727,-0.05324000727832317,-0.002668780817836523
1772642674055635700,1.8976357421875,-0.019143676409125326,-0.053261634588241576,0.008420476212352514
1772642674065676800,1.9076767578125,-0.006353168419003487,-0.05192658659219741,-0.004813976152986288
1772642674075717600,1.917717529296875,-0.004443243144452572,-0.0658703562706709,0.004159165506064892
1772642674085759700,1.927759765625,-0.02471446227878332,-0.05974339782297611,0.0022977555483579635
1772642674095800600,1.937800537109375,-0.010392799198627472,-0.0730371791601181,0.005173895506560802
1772642674105842700,1.9478427734375,0.006456044271588325,-0.0732680653065443,0.01157704054713249
1772642674115883500,1.957883544921875,0.025400398716330527,-0.08992810820639133,0.018786679664999247
1772642674125924600,1.967924560546875,0.031016485032439232,-0.08009645002186298,0.01261456690132618
1772642674135966500,1.977966552734375,0.028720483049750327,-0.07848667673766613,0.017054449044913052
1772642674146007600,1.988007568359375,0.028308395117521284,-0.06804886935353278,0.0197092013373971
1772642674156049400,1.99804931640625,0.02046498814076185,-0.0718126058012247,0.01311535603031516
1772642674166090500,2.008090576171875,0.026575872236490248,-0.055959203109145164,0.011161007092148064
1772642674176131600,2.018131591796875,0.014942133066058159,-0.040538931137323375,0.012241349674761294
1772642674186173700,2.028173583984375,0.005531622903048991,-0.04585691128969192,0.010986819569021462
1772642674196214800,2.03821484375,0.006573825432360172,-0.058171618461608884,0.0086073770865798
1772642674206255600,2.048255615234375,-0.006427694959938526,-0.05832125606536865,0.012932692939788102
1772642674216297700,2.058297607421875,0.00468815781623125,-0.058120180535316465,0.00911342691257596
1772642674226338600,2.068338623046875,-0.0027758944541215894,-0.05620762491226196,0.003325345030426979
1772642674236380700,2.078380615234375,0.015883505569398403,-0.05168927070498466,-0.004197451689839363
1772642674246421500,2.08842138671875,0.038839141482114786,-0.06416121426522732,-0.00940992564111948
1772642674256462600,2.098462646484375,0.01591506975144148,-0.06018646541535854,-0.012958850294351577
1772642674266504400,2.10850439453125,-0.010715163020789623,-0.06222936941981315,-0.015222995834052561
1772642674276545500,2.118545654296875,-0.0006295300751924514,-0.05445639733076095,-0.029099107103794812
1772642674286587600,2.128587646484375,-0.008901683858036994,-0.053877136138081545,-0.021793752526491877
1772642674296628700,2.138628662109375,0.008629881179332733,-0.040730069795250894,-0.03153042590394616
1772642674306669800,2.148669921875,0.016222236004471778,-0.05305237575173378,-0.035537907979637386
1772642674316711700,2.158711669921875,0.0005497428372502327,-0.055205169871449467,-0.05103825945034623
1772642674326752800,2.168752685546875,-0.024596681118011474,-0.050318566873669625,-0.038866614010930056
1772642674336794600,2.178794677734375,-0.029327216771245,-0.05368482843637466,-0.007590162868052721
1772642674346835700,2.188835693359375,-0.005359773467481136,-0.06005027181506157,0.017521482034772634
1772642674356876500,2.19887646484375,-0.010081541292369364,-0.06731178725063801,0.02161547335013747
1772642674366918700,2.208918701171875,0.022541794414818284,-0.053555064576864236,0.026121990989148615
1772642674376959500,2.21895947265625,0.02271802776455879,-0.057032969820499414,0.014539835875481365
1772642674387000600,2.22900048828125,0.027308862686157225,-0.05367839869558811,-0.0010791735388338566
1772642674397042400,2.23904248046875,0.04023381071090698,-0.06082651688456535,-0.006153554193675518
1772642674407083500,2.24908349609375,0.024281331558525562,-0.0556961682587862,0.0005536883600056171
1772642674417125600,2.259125732421875,0.006889467252790928,-0.07454407659173011,0.009965805958211421
1772642674427166700,2.269166748046875,0.01165770456790924,-0.0832025993436575,-0.002830547250807285
1772642674437207800,2.279207763671875,0.017310323502123356,-0.07876198654770851,-0.004790595277398824
1772642674447249700,2.289249755859375,0.011176058530807494,-0.07262392218410968,-0.0058529638119041915
1772642674457290800,2.299290771484375,0.02506868254393339,-0.052523967963457104,-0.01687777730375528
1772642674467332600,2.30933251953125,0.005485153412818908,-0.01948153006136417,-0.010819207917153835
1772642674477373700,2.319373779296875,0.026305823123455047,-0.023177461969852445,0.000374094009399414
1772642674487414500,2.32941455078125,0.01915361328125,-0.022876433196663853,-0.0025974691472947595
1772642674497456600,2.33945654296875,0.02628302676975727,-0.011644845086336135,-0.007165361584722995
1772642674507497500,2.34949755859375,0.04989215815514326,-0.0069517188340425485,-0.016613573409616948
1772642674517539600,2.35953955078125,0.03583674479573965,-0.0029348844081163407,-0.00946224035024643
1772642674527580400,2.369580322265625,0.05482727646976709,0.003781272104382515,-0.022450170608609914
1772642674537621500,2.37962158203125,0.05605857183039188,-0.017034136909246444,-0.04123217409849167
1772642674547663600,2.38966357421875,0.048828620576858515,-0.032331659284234045,-0.039881197880953546
1772642674557704700,2.39970458984375,0.026884499794244766,-0.04530804523527622,-0.02725859380364418
1772642674567746600,2.40974658203125,0.01598550463914871,-0.06990764896273613,-0.01212386077493429
1772642674577787600,2.41978759765625,0.01763414862900972,-0.05052198049128055,-0.007156593756377697
1772642674587828700,2.429828857421875,0.012339841613173485,-0.052903322669863695,0.00329348858743906
1772642674597870600,2.43987060546875,0.031036651037633416,-0.055277066063880914,0.010127718521654606
1772642674607911700,2.44991162109375,0.03938683849275112,-0.05967968493700027,0.003172930947691202
1772642674617952500,2.459952392578125,0.026399931147694587,-0.0685971508860588,0.009795125566422938
1772642674627994600,2.46999462890625,0.01876665979027748,-0.07365501879751682,0.01863163523375988
1772642674638035500,2.480035400390625,0.008137421487271786,-0.06747253077030181,0.016921616445481777
1772642674648077600,2.49007763671875,0.01504442439675331,-0.06655950757861137,0.020878975769132373
1772642674658118400,2.500118408203125,0.006971592578291892,-0.06045066930949688,0.01757803452759981
1772642674668159500,2.510159423828125,0.01310381172299385,-0.05980301905572414,0.015272972455620764
1772642674678201600,2.52020166015625,0.02191635599285364,-0.05742752209603786,0.02424392215758562
1772642674688242700,2.53024267578125,0.030505612900853154,-0.04750175588726997,0.033808892229944466
1772642674698284500,2.540284423828125,0.03066226476728916,-0.05107727628648281,0.006511719981580972
1772642674708325400,2.550325439453125,0.03159574622511863,-0.06051321315169334,0.00048559155985713
1772642674718366500,2.560366455078125,0.02784282343238592,-0.06959785236120224,-0.008333528581261634
1772642674728408300,2.570408203125,0.013622574900090693,-0.04339432056844234,-0.009232523247599602
1772642674738449400,2.580449462890625,0.00011748889982700347,-0.039839842957258224,-0.00796995596587658
1772642674748491500,2.590491455078125,0.014894202271103859,-0.041894437399506566,-0.008984247574955225
1772642674758532600,2.60053271484375,0.03585252688676119,-0.059526540201902386,-0.00190685653463006
1772642674768573400,2.610573486328125,0.03793693194538355,-0.05263035094738006,-0.0006399053387343883
1772642674778615600,2.620615478515625,0.04433890794217586,-0.04940495916008949,0.015345599300414323
1772642674788656400,2.630656494140625,0.03837093944847583,-0.04036825074553489,0.018686288030445575
1772642674798697500,2.640697509765625,0.03376666052341461,-0.02968377512395382,0.013681319350004195
1772642674808739300,2.6507392578125,0.021791852830350397,-0.036350831797719,0.00046411038041114806
1772642674818780400,2.660780517578125,0.029625615195930002,-0.020177111110091208,-0.0055532502129673955
1772642674828822300,2.670822265625,0.038596564897894856,-0.020081249520182608,0.0013273030810058116
1772642674838863400,2.68086328125,0.03940817354172468,-0.024759178203344345,0.010680968490242958
1772642674848904400,2.690904541015625,0.032892800298333164,-0.040081835019588466,-0.005570639739185572
1772642674858946300,2.7009462890625,0.01805909604281187,-0.036928339424729346,-0.010187047493457793
1772642674868987400,2.7109873046875,0.03532090422809124,-0.038783027380704875,-0.006960486662387848
1772642674879029500,2.721029541015625,0.015524316868185997,-0.04511164588034153,-0.020167904890328645
1772642674889070600,2.731070556640625,0.00760433752387762,-0.045644729843735694,-0.01692614649012685
1772642674899111400,2.741111328125,0.029366964259743687,-0.03845218799114227,-0.011731062065064907
1772642674909153500,2.751153564453125,0.03659516194760799,-0.04338555274009704,-0.010280570995807647
1772642674919194400,2.7611943359375,0.042860067561268804,-0.05213584542870521,-0.00869797797948122
1772642674929236500,2.771236572265625,0.06649813278019427,-0.04090601088404655,-0.0014331015430390833
1772642674939277300,2.78127734375,0.03256254543066025,-0.047396541947126385,-0.00880012317970395
1772642674949318400,2.791318359375,0.033338205978274346,-0.04221007921993732,0.01221884558200836
1772642674959360300,2.8013603515625,0.04657411964833736,-0.034219664987921714,-0.008428805649280547
1772642674969401300,2.8114013671875,0.0430193497762084,-0.03527764960825443,-0.006962240228056907
1772642674979443500,2.821443359375,0.04284633129686117,-0.043996378114819525,-0.005447744011878967
1772642674989484500,2.831484619140625,0.04469400499016046,-0.048107320564985276,-0.02620323953181505
1772642674999525600,2.841525634765625,0.0417711032807827,-0.04768646480441093,-0.013858867873996495
1772642675009567500,2.8515673828125,0.032980478581786155,-0.05572597887516021,-0.019576660998910665
1772642675019608600,2.861608642578125,0.026793314379453658,-0.04088263000845909,-0.023632220000028608
1772642675029650400,2.871650390625,0.02703150704950094,-0.04229015871882438,-0.0030497429594397545
1772642675039691500,2.88169140625,0.010687105970084666,-0.04859188921153545,-0.015260259104520082
1772642675049732400,2.891732421875,0.02328501399755478,-0.05017302092313766,0.0034765900693833826
1772642675059774500,2.9017744140625,0.028731296704709527,-0.061014148411154746,0.014837357517331838
1772642675069815300,2.911815185546875,0.032571313259005544,-0.06144494104385376,-0.00013034838140010832
1772642675079856400,2.9218564453125,0.029927520751953124,-0.06134440327882766,0.008066986599564552
1772642675089898200,2.931898193359375,0.020390461599826812,-0.06633563569486141,0.008788286611437797
1772642675099939300,2.941939208984375,0.018567922347784042,-0.05230711034238338,0.0054077042624354355
1772642675109981400,2.9519814453125,0.027516660217940806,-0.05888239707946777,-0.00301028773188591
1772642675120022500,2.9620224609375,0.025362989315390584,-0.056012979122996326,0.013275515028089284
1772642675130063600,2.972063720703125,0.020405366908013818,-0.041218730095028876,0.005223141475766897
1772642675140105500,2.98210546875,0.03452712350189686,-0.03467676110565662,-0.0031743922524154183
1772642675150146600,2.992146484375,0.035921792730689045,-0.028792379242181778,-0.0024155367091298102
1772642675160188400,3.0021884765625,0.027840777605772016,-0.028079262536764144,-0.017415829703211785
1772642675170229500,3.0122294921875,0.03804039231985807,-0.04267769673168659,-0.02438157706260681
1772642675180270300,3.022270263671875,0.03972469214498996,-0.056007718425989145,-0.011371142711490392
1772642675190312400,3.0323125,0.009055413115024566,-0.05121814606189728,-0.004365063341706991
1772642675200353300,3.042353271484375,0.01849485711157322,-0.060131520357728,-0.00975347838178277
1772642675210395400,3.0523955078125,0.023444588473439214,-0.05951075811088085,0.01126622103229165
1772642675220436200,3.062436279296875,0.008979133008420468,-0.043809331110119816,-0.0036683132492005823
1772642675230477300,3.072477294921875,0.02867459808140993,-0.04829612113535404,0.01732259846180677
1772642675240519400,3.08251953125,0.040725393620133395,-0.05318915387392044,0.004687427163869142
1772642675250560500,3.092560546875,0.025874445968866348,-0.05703180077672004,0.0042293081328272815
1772642675260602400,3.102602294921875,0.02986497690975666,-0.04553016355335712,0.014759469975531101
1772642675270643500,3.1126435546875,0.018194412860274314,-0.05272738158106804,0.01759410887956619
1772642675280684500,3.1226845703125,0.015333470471203326,-0.06012392157316208,0.007637216880172491
1772642675290726400,3.132726318359375,0.037948330122232435,-0.0592208352535963,0.017942337795346975
1772642675300767500,3.142767578125,0.04606412429958582,-0.051741877675056454,0.007980477359890938
1772642675310808300,3.152808349609375,0.036381226935982704,-0.05742927566170692,-0.0009175532363355159
1772642675320850400,3.162850341796875,0.02723988910317421,-0.0442851319283247,-0.018935878877341748
1772642675330891300,3.172891357421875,0.02142623438835144,-0.02882452794611454,-0.02082023131921887
1772642675340933400,3.182933349609375,0.04355184921771288,-0.03341945452094078,-0.022930501471459863
1772642675350974200,3.19297412109375,0.0460930581331253,-0.039918753412365914,-0.02565904965251684
1772642675361015300,3.203015380859375,0.05925502978414297,-0.01620470034778118,-0.03309533713310957
1772642675371057400,3.213057373046875,0.06998188324272632,-0.020241408517956732,-0.025278818163275717
1772642675381098500,3.223098388671875,0.053987903036177155,-0.016370120042562483,-0.02962093902081251
1772642675391140400,3.233140380859375,0.04909107090532779,-0.029694881039857863,-0.036089258252084255
1772642675401181400,3.243181396484375,0.02048983032107353,-0.04840951838195324,-0.03864332664906978
1772642675411222500,3.253222412109375,0.00563712910413742,-0.04231529316008091,-0.030905279742926357
1772642675421264400,3.263264404296875,0.007453238615393638,-0.050711365583539,-0.03366568436697125
1772642675431305500,3.273305419921875,0.0075087681949138636,-0.04225859453678131,-0.01864347180202603
1772642675441347300,3.283347412109375,0.021467735442519186,-0.0599573328346014,-0.03270473038032651
1772642675451388400,3.293388427734375,0.03509440199583769,-0.05637947434782981,-0.02243731112703681
1772642675461429200,3.30342919921875,0.01622311278730631,-0.06005962416529655,-0.007074030039459466
1772642675471471600,3.3134716796875,0.019193360769748688,-0.05819207672774791,-0.010806202305108308
1772642675481512400,3.323512451171875,0.01322889940738678,-0.06799918499290943,-0.0069321373507380485
1772642675491554600,3.333554443359375,0.008608253869414328,-0.06495616403520107,-0.020449059919267893
1772642675501595400,3.343595458984375,0.007346563370525836,-0.07156827565133571,-0.009901070158928632
1772642675511636500,3.353636474609375,0.007478957578539848,-0.08109539793133735,-0.009204027805477381
1772642675521678300,3.36367822265625,0.015606149932742118,-0.07056991226375102,-0.009324293184280396
1772642675531719400,3.373719482421875,0.020286124442517758,-0.05929974570870399,-0.00047609307914972304
1772642675541760500,3.383760498046875,0.01228431203365326,-0.049640521481633185,-0.0033887656554579732
1772642675551802400,3.39380224609375,0.010844050097465514,-0.039386253970861436,-0.006553659427165985
1772642675561843500,3.403843505859375,0.011348492488265038,-0.0201338564902544,-0.006491700106859207
1772642675571885300,3.41388525390625,0.008383212941884995,-0.0343202027529478,-0.025922376763820646
1772642675581926400,3.423926513671875,0.013953706550598143,-0.04134966299831867,-0.018285890536010263
1772642675591967200,3.43396728515625,0.035603812822699546,-0.04803893150389194,-0.020998802756518123
1772642675602009600,3.444009521484375,0.011993512393534182,-0.0634907676577568,-0.026790830161422488
1772642675612050400,3.454050537109375,0.021607436174154282,-0.05736673181951046,-0.0009979249961674212
1772642675622092500,3.464092529296875,0.011815233217179774,-0.050938744598627086,-0.0054889528051018715
1772642675632133400,3.47413330078125,0.008304010225832463,-0.052991000953316686,0.0040977907076478
1772642675642174500,3.484174560546875,0.0022077391773462295,-0.02943301523327827,-0.0017646715849637983
1772642675652216300,3.49421630859375,0.011914601938426493,-0.04147065902948379,-0.006484831974655389
1772642675662257400,3.50425732421875,-0.0004772621229290962,-0.0373223071783781,-0.002434679801017046
1772642675672299300,3.51429931640625,0.007085574346780777,-0.04722293894588947,0.009119418261945247
1772642675682340400,3.52434033203125,0.005551204386353492,-0.07189210077822208,0.0038278877250850197
1772642675692381400,3.53438134765625,0.01777414162158966,-0.06767068369090556,0.005630407102406024
1772642675702422800,3.5444228515625,0.014464286421239375,-0.0732113666832447,-0.008326660449057817
1772642675712464000,3.5544638671875,0.0043278000712394715,-0.07186579729318618,-0.009203881675004959
1772642675722505700,3.564505615234375,0.016248539489507673,-0.06876140153706073,-0.008992284750938415
1772642675732546800,3.574546875,0.01434387491196394,-0.0624625936537981,-0.0020322364799678326
1772642675742588000,3.584587890625,0.01111526825428009,-0.05726560953259468,-0.01894946901127696
1772642675752629800,3.594629638671875,0.009736088855564594,-0.05313479333817959,-0.02294599130153656
1772642675762670800,3.6046708984375,0.02607873636931181,-0.047586511561274525,-0.012696692226827145
1772642675772711700,3.614711669921875,0.033439328265190124,-0.03785656018555164,-0.011834522439539431
1772642675782753800,3.62475390625,0.030100831492245194,-0.03725158002972603,-0.010354074623435735
1772642675792794600,3.634794677734375,0.03879179520905018,-0.029208558827638623,-0.0161373341999948
1772642675802837000,3.6448369140625,0.02393967851400375,-0.037656069177389145,-0.030209844824671744
1772642675812877800,3.6548779296875,0.018542203384637832,-0.04154723139703274,-0.027857436479628083
1772642675822919000,3.6649189453125,0.029447628280520437,-0.03413490931391716,-0.03178527744784951
1772642675832960800,3.674960693359375,0.021433540911972523,-0.031893267866969104,-0.004776859012991189
1772642675843001900,3.685001953125,0.03158025639504194,-0.028328853383660316,-0.009563654898107052
1772642675853043700,3.695043701171875,0.03227612970471382,-0.03126958301067352,-0.01398527073264122
1772642675863084800,3.705084716796875,0.04395312349498272,-0.0359936889231205,-0.01550692734196782
1772642675873126000,3.7151259765625,0.03852349966168404,-0.0431260250210762,-0.020045301423966884
1772642675883167700,3.725167724609375,0.039894203492999075,-0.04361293175518512,-0.011456482907384633
1772642675893208800,3.735208740234375,0.0163519998639822,-0.05531447546482086,-0.0039943303331732745
1772642675903250700,3.745250732421875,0.008642740660905838,-0.06696458124816418,0.001699205133318901
1772642675913291800,3.755291748046875,0.013372107270359992,-0.043161680856347084,0.01823591391444206
1772642675923332600,3.76533251953125,0.015109598587453364,-0.03017301994562149,0.007311199796199798
1772642675933375000,3.775375,0.045241117478907106,-0.04274140961766243,0.008263678215444088
1772642675943415800,3.785415771484375,0.04378302762508392,-0.052118309772014614,0.0160839965775609
1772642675953458000,3.7954580078125,0.04182634059935808,-0.06143091251850128,0.0035724516592919825
1772642675963498800,3.805498779296875,0.030101708275079724,-0.05647767402529716,0.0011458090342581272
1772642675973539800,3.815539794921875,0.00813332983404398,-0.05496376233100891,-0.009082885643839836
1772642675983581700,3.825581787109375,0.008610299696028232,-0.040921208453178405,-0.005327478633075952
1772642675993622800,3.835622802734375,0.017905074524879456,-0.04383271198570728,0.0068776306845247746
1772642676003664600,3.84566455078125,0.026624387553334235,-0.028787703067064283,-0.004805500585585832
1772642676013705700,3.855705810546875,0.030866262906789777,-0.029648119288682936,-0.0006589023001492023
1772642676023746800,3.865746826171875,0.04026654393672943,-0.02779869202971458,-0.004380114780366421
1772642676033789000,3.875788818359375,0.04318038555681705,-0.04184767564833164,0.008180968368053435
1772642676043830000,3.885830078125,0.03964636621177196,-0.05886310785710811,0.0017331074029207228
1772642676053870800,3.895870849609375,0.011575579242408275,-0.06956395009160041,0.006829553759098053
1772642676063913000,3.905912841796875,0.0022556699723005292,-0.07361702487468719,0.016827216160297392
1772642676073953800,3.915953857421875,0.00682137045264244,-0.0811544346421957,0.012181143920123576
1772642676083996000,3.925995849609375,0.005215396560728549,-0.0721656570225954,0.003911474355310201
1772642676094036700,3.93603662109375,-0.011375965017080306,-0.07799567835032939,-0.002432633974403143
1772642676104077800,3.946077880859375,-0.00551554855108261,-0.06571136631667614,-0.0022279051825404165
1772642676114119700,3.95611962890625,0.0018739771783351897,-0.07448211727142333,-0.0025350714355707165
1772642676124160800,3.966160888671875,-0.003522621168196201,-0.06841302649080754,0.004654840068519115
1772642676134202600,3.97620263671875,0.0018856676161289215,-0.06171674372255802,0.008589987560361624
1772642676144243700,3.98624365234375,0.014104513198137282,-0.058413610523939126,0.006988689843565225
1772642676154284800,3.996284912109375,0.032311201018095016,-0.06206219615936279,0.0007150164015591144
1772642676164327000,4.006326904296875,0.02535451374799013,-0.04976560916602611,-0.007320698276907205
1772642676174368000,4.016367919921875,0.023321546615660188,-0.027836101430654524,-0.015108137282729148
1772642676184409900,4.026409912109375,0.036870471757650375,-0.034549335333704946,-0.009270078779011964
1772642676194451000,4.036450927734375,0.04844546647816896,0.0003021978169679642,-0.009941402169317007
1772642676204491800,4.04649169921875,0.02567512400448322,0.010871522626280784,-0.00000599134936928749
1772642676214534000,4.056533935546875,0.032386019819974896,-0.010108721560239791,-0.009073387163132428
1772642676224574700,4.06657470703125,0.03532499588131904,-0.029936873102188108,-0.029186200865358114
1772642676234616800,4.076616943359375,0.03896393690556287,-0.03215747176110744,-0.025338147135078905
1772642676244657700,4.08665771484375,0.050016369056701655,-0.04860182608366012,-0.012020108139514922
1772642676254698800,4.09669873046875,0.03211304809749126,-0.039458150163292884,0.0007202770985662937
1772642676264740600,4.10674072265625,0.031087796702980994,-0.03237959007918834,0.005611264010518789
1772642676274781700,4.11678173828125,0.024187515795230864,-0.030745851397514342,-0.001527355697751045
1772642676284823800,4.12682373046875,0.02343874325454235,-0.031048633736371994,-0.005740735609084367
1772642676294865000,4.136864990234375,0.01978840405344963,-0.0462280826896429,-0.013618775507807731
1772642676304906000,4.146906005859375,0.023814590829610825,-0.04369359577596187,-0.024857962402701377
1772642676314947800,4.15694775390625,0.03971270944625139,-0.03431318849027157,-0.018220862475782633
1772642676324989000,4.166989013671875,0.03163812406212091,-0.0334837519288063,-0.010262743078172206
1772642676335030800,4.17703076171875,0.013117840248346328,-0.029672669208049774,-0.014136661902070045
1772642676345071900,4.18707177734375,0.02258124964237213,-0.04969780462682247,-0.013274930506199597
1772642676355112700,4.19711279296875,0.040510289564728734,-0.0691331574589014,-0.029918022271245716
1772642676365154800,4.20715478515625,0.010506488706171511,-0.06996434758603573,-0.05028890238776803
1772642676375195600,4.217195556640625,0.008826865056157112,-0.07181845102012158,-0.02733151290938258
1772642676385236700,4.22723681640625,-0.0018418284744024275,-0.06900631620883942,-0.01500716112628579
1772642676395278600,4.237278564453125,0.0029755086794495582,-0.06199497614204883,-0.009903408246487378
1772642676405319700,4.247319580078125,0.018183891466259955,-0.06304010128080845,0.0029744857661426066
1772642676415361800,4.25736181640625,0.03700754214078188,-0.06361059464514256,-0.01523424788042903
1772642676425403000,4.26740283203125,0.06437485701590775,-0.07462240252494812,-0.02539703771546483
1772642676435444000,4.27744384765625,0.04209434388577938,-0.04690963521301746,-0.035326749446988104
1772642676445485800,4.28748583984375,0.043668753595650193,-0.043861353558301924,-0.033012627285718917
1772642676455527000,4.29752685546875,0.028101474368572233,-0.057529813426733016,-0.03741013159230351
1772642676465568800,4.30756884765625,0.012497078001499176,-0.0710591570854187,-0.034789866091310975
1772642676475609900,4.31760986328125,0.0486637854039669,-0.061897360986471174,-0.030222996567189693
1772642676485650700,4.327650634765625,0.05507482149004936,-0.05090425780713558,-0.031220337041467427
1772642676495692800,4.33769287109375,0.0734334850013256,-0.02516892804801464,-0.038574937587976456
1772642676505733600,4.347733642578125,0.06767945151925087,-0.01869943977296352,-0.038997546914219854
1772642676515776000,4.35777587890625,0.060192310634255404,-0.017691139513254163,-0.01203589023053646
1772642676525816800,4.36781689453125,0.05831394954174757,-0.009231938725709914,-0.020471856272965668
1772642676535858000,4.37785791015625,0.05570522834807634,0.01374912388920784,-0.019287030402570963
1772642676545899800,4.387899658203125,0.04131108455359935,0.005417348873615265,-0.0245030114851892
1772642676555940900,4.39794091796875,0.06468845300972462,-0.00034837504625320433,-0.024927228246629237
1772642676565982700,4.407982666015625,0.05195113651156425,-0.0030009353816509246,-0.024833120222389697
1772642676576023800,4.41802392578125,0.0433393755108118,-0.003680734339356422,-0.03659077803343534
1772642676586065000,4.42806494140625,0.025635376515984534,-0.012596446722745895,-0.03392126656323671
1772642676596106800,4.438106689453125,0.024675591573119163,-0.04080488859713077,-0.03614303426593542
1772642676606147800,4.44814794921875,0.04621814581751823,-0.02758300345242023,-0.03261807501018047
1772642676616189700,4.458189697265625,0.04849018240272999,-0.02342179211974144,-0.029571693051606417
1772642676626230800,4.468230712890625,0.05186462727189064,-0.008529927936196327,-0.010702449669688939
1772642676636271600,4.478271728515625,0.05771072295159101,-0.003129530197381973,-0.029273148496448992
1772642676646314000,4.48831396484375,0.05899404076039791,-0.02653612474799156,-0.04168459404110908
1772642676656354800,4.498354736328125,0.027141689425706862,-0.05399871669113636,-0.028697248304635284
1772642676666397000,4.50839697265625,-0.00040302784293889997,-0.06313479382693767,-0.03346665466353297
1772642676676437800,4.518437744140625,0.015231471401453017,-0.091972765776515,-0.014334084170311689
1772642676686478800,4.528478759765625,0.015372925698757171,-0.09465513672828674,-0.025753303807228803
1772642676696520700,4.538520751953125,0.051076107242703436,-0.06600304273962974,-0.036138065829873084
1772642676706562000,4.54856201171875,0.06613865181803703,-0.04296177437007427,-0.038422523505240676
1772642676716604000,4.55860400390625,0.05098872122019529,-0.03666062839925289,-0.036712650847435
1772642676726645000,4.56864501953125,0.03309358356744051,-0.04072364005446434,-0.022689240061491728
1772642676736686000,4.57868603515625,0.028079554797708985,-0.03631692952811718,-0.019465894100815055
1772642676746728000,4.58872802734375,0.017702829951047896,-0.049692543929815286,-0.026076690542697904
1772642676756769000,4.59876904296875,0.021690438282489774,-0.046055064210295676,-0.027794308115541934
1772642676766811100,4.60881103515625,0.023142098395526407,-0.0335842896938324,-0.0284819981187582
1772642676776852200,4.618852294921875,0.028313655814528462,-0.03750584705173969,-0.006877484554052352
1772642676786893000,4.62889306640625,0.02954115178287029,-0.03147767280340195,-0.0037475159652531143
1772642676796935200,4.63893505859375,0.0380129197910428,-0.04737725272476673,0.006892535992711782
1772642676806976000,4.64897607421875,0.02624590962976217,-0.04876549221277237,0.0062456163913011545
1772642676817018000,4.65901806640625,0.031226328390836715,-0.04616261623799801,0.009437398169934748
1772642676827059000,4.669058837890625,0.04635083228647709,-0.04227554567158222,0.0014095745369791983
1772642676837100000,4.67910009765625,0.0326081381380558,-0.0373398428350687,0.006269874049723148
1772642676847142000,4.689141845703125,0.02441957098543644,-0.03771685945391655,0.005331862547248601
1772642676857183000,4.699182861328125,0.03524316281676292,-0.04146481381058693,0.006686345896124839
1772642676867225000,4.70922509765625,0.017086451618373393,-0.043402503874897955,0.0005734159737825394
1772642676877266200,4.71926611328125,0.02059709008783102,-0.04621931486129761,0.0014494681559503078
1772642676887307300,4.729307373046875,0.007473696881532668,-0.031088965746760365,-0.007403846515715122
1772642676897349000,4.73934912109375,0.03793547064065933,-0.03305003668665886,-0.006262275265157222
1772642676907390200,4.74939013671875,0.020320611234009266,-0.01955050364434719,0.001992488991469145
1772642676917432000,4.75943212890625,0.02086070946007967,-0.029151275682449337,0.001699205133318901
1772642676927473200,4.76947314453125,0.022299510091543195,-0.02766366747319698,0.01102393670901656
1772642676937514000,4.779513916015625,0.032041151905059816,-0.042700493085384365,0.02145472983047366
1772642676947556000,4.78955615234375,0.038623160643875595,-0.04817629414796829,0.009213087894767522
1772642676957597000,4.799596923828125,0.0474918190151453,-0.04036591265797615,0.007248071432113647
1772642676967639000,4.80963916015625,0.04871551559120416,-0.03804886788725853,0.010101853428035974
1772642676977680000,4.819679931640625,0.040913609668612475,-0.025199323186278343,-0.005145984586328267
1772642676987721000,4.829720947265625,0.024430092379450798,-0.01478255859017372,0.000796118813753128
1772642676997763000,4.83976318359375,0.017622750452160833,-0.043484921461343765,-0.006272066006809473
1772642677007804200,4.84980419921875,0.022003742015361785,-0.06366787779033184,-0.0031703005991876123
1772642677017846000,4.859845947265625,0.027390695750713345,-0.06278992591202259,-0.006550736817717551
1772642677027887000,4.86988720703125,0.043675767858326435,-0.06484978105127812,-0.0010240823507308959
1772642677037928200,4.87992822265625,0.05900573119819164,-0.0679915862083435,0.0019099252745509146
1772642677047970000,4.889969970703125,0.061546063330769535,-0.0638350510507822,-0.0090104049295187
1772642677058011100,4.90001123046875,0.04770955341905355,-0.05971826338171959,0.00038110827207565303
1772642677068053000,4.910052978515625,0.02891805144846439,-0.060760465911030764,-0.014825374818593263
1772642677078094000,4.920093994140625,0.03749415661394596,-0.05019055657982826,-0.02134191710576415
1772642677088135000,4.930135009765625,0.04938917706906795,-0.0452262121707201,-0.017058394567668438
1772642677098177000,4.940177001953125,0.041807635898888106,-0.030021628776192664,-0.02249064874947071
1772642677108217900,4.9502177734375,0.04475917918086052,-0.03294014657139778,-0.026821225299686193
1772642677118260200,4.96026025390625,0.038897301410138606,-0.04193769201934337,-0.016331979989260434
1772642677128301000,4.970301025390625,0.03766425248384476,-0.0344902986228466,-0.028655601119995114
1772642677138342100,4.980342041015625,0.043185061731934545,-0.04587386242449283,-0.02238426576554775
1772642677148384000,4.990384033203125,0.045405075868964195,-0.03432137179672718,-0.014114450070261955
1772642677158425000,5.000425048828125,0.045617257314920424,-0.026946459114551544,-0.019497019891440866
1772642677168467000,5.010467041015625,0.04415595259070396,-0.02316518701016903,-0.009960399130731821
1772642677178508000,5.020508056640625,0.04374561822414398,-0.021412790384888646,-0.022199702978879212
1772642677188550000,5.0305498046875,0.04457534704655409,-0.02129413244128227,-0.015720277831703423
1772642677198591000,5.040591064453125,0.05874444991350174,-0.010537760627269745,-0.023798662608116864
1772642677208632000,5.050632080078125,0.043374154563248155,-0.015865093129873276,-0.024945494555681944
1772642677218674000,5.060673828125,0.05126695363968611,-0.004005143988132477,-0.025498598393797874
1772642677228715000,5.070715087890625,0.03726619307696819,-0.010201076018810271,-0.03512392035126686
1772642677238757000,5.080757080078125,0.03159457718133926,-0.02716565482318401,-0.046399932125210756
1772642677248798200,5.090798095703125,0.023282675909996033,-0.026211715099215507,-0.056047612044960254
1772642677258839000,5.100839111328125,0.0297018953025341,-0.03275836026370525,-0.04616758467406034
1772642677268881200,5.110881103515625,0.023736557157337666,-0.04541851987242698,-0.036638270436972376
1772642677278922000,5.120921875,0.02392535772770643,-0.039671500653028484,-0.025883067666739226
1772642677288964000,5.130964111328125,0.03686754914820194,-0.04164133942127227,-0.02231324635595083
1772642677299005000,5.1410048828125,0.041402562229335305,-0.056661798420548436,-0.03758797237724065
1772642677309046000,5.1510458984375,0.05696633432507515,-0.06242167712152004,-0.025474632996320724
1772642677319087900,5.161087890625,0.048104105694591996,-0.06045709905028343,-0.03660539108067751
1772642677329129000,5.17112890625,0.027385142792761323,-0.06029635553061962,-0.02262450426220894
1772642677339171000,5.181171142578125,0.022279928608238696,-0.053258711978793144,-0.009528729715198277
1772642677349212200,5.191212158203125,0.015843465819954872,-0.057549687170982355,-0.011897212412208319
1772642677359254000,5.20125390625,0.02520078449100256,-0.05017828162014484,0.001847819823771715
1772642677369295000,5.211295166015625,0.027827625863254067,-0.05201835652887821,0.007129998010396957
1772642677379336200,5.221336181640625,0.043672552987933155,-0.037490649482607837,0.0018181553378701209
1772642677389378000,5.2313779296875,0.05405921470671892,-0.03415887471139431,-0.008480681966990231
1772642677399419100,5.241419189453125,0.05982698445320129,-0.04128887272179126,-0.007289572486281395
1772642677409461000,5.2514609375,0.030759879922866818,-0.025655834782123563,-0.01672594774290919
1772642677419502000,5.261502197265625,0.023221008850634096,-0.025929391026496884,-0.017471067021787166
1772642677429543000,5.27154296875,0.033848785848915576,-0.026225743624567983,-0.024955431427806613
1772642677439585000,5.2815849609375,0.02736146965622902,-0.03953530705273151,-0.014940379500389098
1772642677449625900,5.2916259765625,0.023394904112815855,-0.056928340402245516,0.002735562443733215
1772642677459668200,5.301668212890625,0.014452888244390488,-0.055470542809367175,0.01984890206903219
1772642677472219000,5.314218994140625,0.026954350160062313,-0.08493044604957103,0.02316810961961746
1772642677482260000,5.324260009765625,0.02424947511553764,-0.08777531408667563,0.03283171776086092
1772642677492301800,5.3343017578125,0.02985094838440418,-0.058280924054980275,0.02939180644005537
1772642677502343000,5.344343017578125,0.022590894253551957,-0.043966567498445505,0.03644040977731347
1772642677512385000,5.354385009765625,0.024634090518951414,-0.04126432280242443,0.04305690530762076
1772642677522426000,5.364426025390625,0.019336860893666742,-0.025392215409874914,0.014028671482950448
1772642677532468000,5.374468017578125,0.004874912559986114,-0.02896948937475681,0.014967705898731946
1772642677542509000,5.384509033203125,-0.002867079868912697,-0.04480009571313858,0.015758564015477896
1772642677552550100,5.394550048828125,0.0053904608666896815,-0.05846154131889343,0.001128565638512373
1772642677562592000,5.404592041015625,0.010460603737831115,-0.07478782221972942,0.020960078181326388
1772642677572633000,5.414633056640625,0.015289923590421675,-0.0674509034603834,0.003990969332307577
1772642677582675000,5.424675048828125,0.040353053176403045,-0.061207625156641,-0.0024706278972327707
1772642677592716000,5.434716064453125,0.03312280966192484,-0.04633154306411743,-0.011904811196774244
1772642677602756900,5.4447568359375,0.0077358549490571015,-0.029729952353239057,-0.0008421499125659466
1772642677612799200,5.45479931640625,0.015462065286934374,-0.05230652582049369,0.0023655600875616073
1772642677622840000,5.464840087890625,0.01976443865597248,-0.06001987667679786,0.026595161458849905
1772642677632882200,5.474882080078125,0.02493745737969875,-0.0465682744294405,0.027762890063971278
1772642677642923000,5.484923095703125,0.03930968160331249,-0.055661096945405004,0.016481909853965044
1772642677652965000,5.494965087890625,0.06541121432632208,-0.03704465928077698,-0.004267448186129332
1772642677663006000,5.505005859375,0.06338584597855806,-0.02504384036362171,-0.0058043023645877835
1772642677673047000,5.515047119140625,0.055181788995862006,-0.033004443979263304,-0.021998481318354607
1772642677683089000,5.5250888671875,0.04251870677769184,-0.028456863677501675,-0.023191344364732504
1772642677693130000,5.5351298828125,0.0065437225550413125,-0.03162146518826484,-0.021278788741677997
1772642677703172000,5.545172119140625,0.00046001872718334194,-0.045724224820733066,-0.029222148961573838
1772642677713213000,5.555212890625,0.009234861335158348,-0.05577274062633514,-0.039016105484217405
1772642677723254000,5.56525390625,0.0320721315652132,-0.038085108244419096,-0.04573328491002321
1772642677733295900,5.5752958984375,0.030915947267413136,-0.026385318100452422,-0.04806581951081752
1772642677743337000,5.5853369140625,0.040107261721789834,-0.02597147660255432,-0.029472324330359696
1772642677753378800,5.59537890625,0.0455704955637455,-0.040405075624585146,-0.0047784664481878274
1772642677763420000,5.605419921875,0.02609861011356115,-0.04625380165278911,-0.006019406419992447
1772642677773461800,5.615461669921875,0.02066372558325529,-0.05108429054915905,0.012328151175379753
1772642677783502800,5.6255029296875,0.028303718942403792,-0.05735504138171672,-0.018812544758617877
1772642677793544000,5.6355439453125,0.04220277269631624,-0.04108955075740814,-0.013158172258734703
1772642677803586000,5.6455859375,0.04518821824789047,-0.0326473011046648,-0.01442921510785818
1772642677813627000,5.655626953125,0.026747721672058102,-0.040783261287212366,-0.021917086645215748
1772642677823669000,5.6656689453125,0.027597324238717556,-0.05246551577448844,-0.031478403455764054
1772642677833710000,5.6757099609375,0.015723931093513964,-0.05993687456846237,-0.024127163910120725
1772642677843752000,5.685751953125,0.015575462533533571,-0.05462883128821849,-0.009727613288164138
1772642677853793000,5.69579296875,0.023581074334681033,-0.06009469547867775,-0.0058874506033957
1772642677863835000,5.7058349609375,0.0021457798570394516,-0.06672317370772361,-0.02230067913532257
1772642677873876000,5.7158759765625,0.02785246804356575,-0.05912263557612896,-0.008320230708271264
1772642677883918000,5.72591796875,0.030910102048516273,-0.038033670318126676,0.009334230056405067
1772642677893959200,5.735959228515625,0.042349779951572415,-0.04485620981454849,0.00822758398875594
1772642677904001000,5.7460009765625,0.028631343461573124,-0.0569464605808258,0.02193579134568572
1772642677914042000,5.7560419921875,0.036786885127425194,-0.06364157430529593,0.020486177059262988
1772642677924083000,5.7660830078125,0.04322071756720543,-0.06693652419745921,0.010546382325142621
1772642677934125000,5.776125,0.028451018458604812,-0.046240357649326325,0.012948182769864796
1772642677944166000,5.786165771484375,0.02212561482936144,-0.06043079556524753,0.009356295757740735
1772642677954208000,5.7962080078125,0.007706628854572773,-0.06520633940398693,0.0029771161146461963
1772642677964248800,5.806248779296875,0.03133592624515295,-0.05370820931196212,0.005265665443241596
1772642677974291000,5.816291015625,0.022721827156841755,-0.05060089094638824,0.010463234086334705
1772642677984331800,5.826331787109375,0.032116847489774225,-0.03913023338317871,0.0016273089408874511
1772642677994372900,5.836372802734375,0.04541676630675792,-0.02925415153503418,-0.006264028830826282
1772642678004415000,5.8464150390625,0.033037469466030596,-0.02340074933171272,-0.017522651078552005
1772642678014456000,5.8564560546875,0.028357494956254958,-0.030936990055441854,-0.03007920418232679
1772642678024498000,5.866497802734375,0.012159224349260329,-0.03423369351327419,-0.0247568401157856
1772642678034539000,5.8765390625,0.012796937730908392,-0.04522095147371292,-0.022947160345315933
1772642678044580900,5.886580810546875,0.014041969355940818,-0.04988777424097061,-0.04051248152181506
1772642678054622000,5.8966220703125,0.05516103846877813,-0.049337154620885844,-0.049648850918561215
1772642678064663000,5.9066630859375,0.06546703616678715,-0.029161797076463696,-0.048777474911510944
1772642678074705000,5.916704833984375,0.044475978325307364,-0.01442483119368553,-0.057390697216987606
1772642678084746000,5.92674609375,0.022970541220903397,-0.02951075664460659,-0.043552579870074985
1772642678094787800,5.936787841796875,0.009939502473175526,-0.045700843945145606,-0.03260959944278002
1772642678104829000,5.946828857421875,-0.008769581910967826,-0.04715805701613426,-0.01337634505406022
1772642678114871000,5.95687109375,0.00009586158990859984,-0.0619353549093008,-0.018459931928664446
1772642678124912000,5.966912109375,0.016049802047014235,-0.07092997774779797,-0.02181523370593786
1772642678134953000,5.976952880859375,0.0214671509206295,-0.07711188125312328,-0.020215397293865678
1772642678144995000,5.9869951171875,0.00395838223695755,-0.051074938198924065,-0.010653203700482845
1772642678155036000,5.997035888671875,-0.020409166300296783,-0.08111176454424858,-0.008420476212352514
1772642678165078000,6.007078125,-0.03160860570669174,-0.09794131879210471,-0.00821589355096221
1772642678175118800,6.017118896484375,-0.03726502403318882,-0.09116028034985064,0.004834726680070162
1772642678185161000,6.027160888671875,-0.003967734587192536,-0.058334115546941755,0.004594195922464132
1772642678195201800,6.037201904296875,0.03443243095576763,-0.02900222260057926,0.010741904897242784
1772642678205243000,6.047242919921875,0.0344248321712017,-0.03150689889788628,0.02011807439923286
1772642678215284700,6.05728466796875,0.04447627058625221,-0.025943419551849364,0.014142214860022068
1772642678225325800,6.067325927734375,0.017408230918645858,-0.03045534401834011,0.003579173661023378
1772642678235368000,6.077367919921875,0.00336363121420145,-0.04501169263720512,0.004347089293599129
1772642678245409000,6.087408935546875,0.0048711131677031515,-0.06388064375817776,0.014805501074343919
1772642678255451000,6.097450927734375,0.009573884031176566,-0.0631160891264677,0.022955489782243967
1772642678265492000,6.107491943359375,0.02426964112073183,-0.06023322716653347,0.008932663518190383
1772642678275533000,6.117532958984375,0.03390168507993221,-0.05313713142573833,-0.00201338564902544
1772642678285575000,6.127574951171875,0.043728374828398225,-0.06294540873467921,-0.007034574811905622
1772642678295616000,6.137615966796875,0.04888648824393749,-0.07335632811188697,-0.015950433325767517
1772642678305657900,6.147657958984375,0.021330957320332525,-0.053963645377755165,-0.022327567142248154
1772642678315699000,6.157698974609375,0.019332476979494095,-0.03582651566267013,0.007550561510026454
1772642678325740800,6.16774072265625,0.023549510152637957,-0.01071311719417572,-0.004080401181429624
1772642678335782100,6.1777822265625,0.035223289072513576,-0.012402969977259636,-0.019214549688249826
1772642678345823000,6.187822998046875,0.032684710505604744,-0.011848258703947066,-0.03539060846343636
1772642678355865000,6.197864990234375,0.019799217708408832,-0.023732173243165015,-0.03981602369025349
1772642678365906000,6.207906005859375,0.018331190982460974,-0.0421019426703453,-0.0393354005664587
1772642678375948000,6.217947998046875,0.012554945668578147,-0.049258828687667844,-0.03689312198087573
1772642678385988900,6.22798876953125,0.018655016109347344,-0.04654430903196335,-0.03936696474850178
1772642678396031000,6.238031005859375,0.025548282754421232,-0.04236322395503521,-0.04995967043340206
1772642678406071800,6.24807177734375,0.03197685449719429,-0.05326280363202095,-0.062290598087757824
1772642678416113000,6.25811279296875,0.02913432454764843,-0.04724456625580788,-0.05177066537812352
1772642678426154800,6.26815478515625,0.042480420593917365,-0.06361585534214972,-0.04824366029575467
1772642678436195800,6.27819580078125,0.020439561438560485,-0.05626958423256874,-0.027652415426820516
1772642678446238000,6.288238037109375,0.038272739771008486,-0.034849195063114166,-0.011291793864965437
1772642678456279000,6.298279052734375,0.029301790069043633,-0.04419979173243046,-0.005469517452269792
1772642678466321000,6.30832080078125,0.03571954815685749,-0.04462357010245323,-0.005955255142599344
1772642678476362000,6.318362060546875,0.04357376878857613,-0.04325578888058662,0.008589110777527094
1772642678486403000,6.328403076171875,0.02450608022511005,-0.04754208789765835,-0.0015616963587701319
1772642678496445000,6.33844482421875,0.020040625248849392,-0.05036182149350643,-0.004618307450413704
1772642678506486000,6.348486083984375,0.03156125943362713,-0.059305590927600856,-0.00376665905714035
1772642678516527900,6.35852783203125,0.028268355368077754,-0.06463409247398376,-0.0024646365478634834
1772642678526569000,6.36856884765625,0.037003158226609226,-0.06590133593082427,0.006015607027709484
1772642678536610800,6.37861083984375,0.02834171286523342,-0.04991992294490337,0.01373231888487935
1772642678546652000,6.38865185546875,0.025355098269879816,-0.03907411928176879,0.015265958192944526
1772642678556692700,6.398692626953125,0.026565935364365575,-0.044641105759143825,0.003976502415537834
1772642678566735000,6.408735107421875,0.03844400468468666,-0.053958384680747984,-0.002521335171163082
1772642678576776000,6.41877587890625,0.014781974068284034,-0.04011865989863872,0.000028787703067064285
1772642678586818000,6.428818115234375,0.027647885382175445,-0.043918052181601525,0.0045953649662435056
1772642678596859000,6.43885888671875,0.034923137082159515,-0.06038987903296947,0.007605068176239728
1772642678606901000,6.44890087890625,0.031053602172434327,-0.050557051804661746,0.009012012364715338
1772642678616941800,6.45894189453125,0.03566957153528928,-0.04068272352218628,0.004519815512001514
1772642678626983000,6.46898291015625,0.03050005994290113,-0.05167173504829407,0.005365910947322845
1772642678637024800,6.479024658203125,0.037622751429677005,-0.05491232440471649,-0.0014629121594130993
1772642678647065900,6.48906591796875,0.0674359981521964,-0.07340075177550315,-0.00893061769157648
1772642678657107700,6.499107666015625,0.02714607333987951,-0.06633505117297173,-0.010629968955367802
1772642678667148800,6.509148681640625,0.006997896063327789,-0.05929974570870399,-0.016159692162275315
1772642678677191000,6.51919091796875,0.022164485535025594,-0.06725275053977967,-0.030084611009806392
1772642678687232000,6.52923193359375,0.03131546797901392,-0.055152562901377676,-0.0382451211117208
1772642678697273000,6.539273193359375,0.036303193263709545,-0.0498053566545248,-0.03051584203392267
1772642678707315000,6.54931494140625,0.022745792554318904,-0.02436754853725433,-0.0021891806073486802
1772642678717356000,6.55935595703125,0.034166473495960234,-0.02305997307002544,-0.010006868620961904
1772642678727398000,6.56939794921875,0.028588965624570844,-0.025448329511284826,0.0013195581659674644
1772642678737439000,6.57943896484375,0.02996814502328634,-0.03753039697110653,-0.0052069209933280946
1772642678747480800,6.589480712890625,0.03411649687439203,-0.04091185610294342,-0.002874532523006201
1772642678757522000,6.59952197265625,0.016962532977759837,-0.029653964507579803,-0.0006542261250317096
1772642678767562800,6.609562744140625,0.012116846512258053,-0.0165261873871088,-0.009436082995682955
1772642678777604900,6.61960498046875,0.017234043395519257,-0.04268880264759063,-0.012596300592273473
1772642678787645700,6.629645751953125,0.01134878474920988,-0.06007715982198715,-0.01213715864792466
1772642678797688000,6.63968798828125,0.021268998000025748,-0.07738485297560692,0.006454290705919265
1772642678807729000,6.64972900390625,0.03137479695081711,-0.08787585185170173,-0.0038366555534303185
1772642678817771000,6.65977099609375,0.032203064468503,-0.06537059005498885,0.010523439840972423
1772642678827811800,6.669811767578125,0.03351327028423547,-0.05510580115020275,0.004384790955483913
1772642678837853000,6.67985302734375,0.034143677142262456,-0.044078795701265334,-0.00767886406481266
1772642678847894800,6.689894775390625,0.03731529291570186,-0.032498248022794725,0.0023909867897629737
1772642678857936000,6.699935791015625,0.019517185896635054,-0.03727145377397537,0.02302782436609268
1772642678867978000,6.70997802734375,0.015595044016838073,-0.05005553202331066,0.005332300938665866
1772642678878018800,6.720018798828125,0.014338906475901603,-0.05566928025186062,0.013692863657325506
1772642678888061000,6.73006103515625,0.01251256783157587,-0.06214928992092609,0.025797142948955295
1772642678898102000,6.74010205078125,0.015437807628512382,-0.052209495186805725,0.004978519064933061
1772642678908143900,6.750143798828125,0.029251228925585744,-0.04422083452045917,-0.003011895167082548
1772642678918185000,6.76018505859375,0.03045651306211948,-0.04188683861494064,-0.004519523251056671
1772642678928226000,6.77022607421875,0.03638707215487957,-0.03743044372797012,0.004910568395256996
1772642678938268000,6.780267822265625,0.040481063470244404,-0.033192075505852695,0.005261719920486211
1772642678948309000,6.79030908203125,0.04389788617640734,-0.01547580155134201,-0.0017724165000021456
1772642678958350800,6.800350830078125,0.03593874386548996,-0.018685411247611045,-0.0020804595358669756
1772642678968392000,6.810391845703125,0.02344838786572218,-0.04521861338615417,-0.010226210460066795
1772642678978433800,6.820433837890625,0.03201572520285845,-0.055209261524677276,-0.012830109348148107
1772642678988475000,6.830474853515625,0.028352818781137466,-0.0475701449483633,-0.0024856793358922005
1772642678998516000,6.840515869140625,0.03161269735991955,-0.055067222705483435,0.0006089256785809993
1772642679008558000,6.85055810546875,0.01984451815485954,-0.06182721835970878,-0.0065402154237031935
1772642679018599000,6.860598876953125,0.02345218725800514,-0.06975333518385887,-0.003205956434458494
1772642679028641000,6.87064111328125,0.016960487151145932,-0.06463467699587344,-0.0038014381095767017
1772642679038681900,6.880681884765625,0.03240326321572065,-0.0525678071051836,-0.025732261019200085
1772642679048724000,6.890723876953125,0.04400573046505451,-0.047183191457390784,-0.026746844889223576
1772642679058765000,6.90076513671875,0.04655336912125349,-0.03707739250659942,-0.02165449018627405
1772642679068806000,6.910805908203125,0.05855740290880203,-0.03725800977051258,-0.02674216871410608
1772642679078848000,6.920847900390625,0.037648470392823215,-0.036444355300068856,-0.019789573097229004
1772642679088888800,6.930888916015625,0.027590894497931003,-0.03695522743165493,-0.037200872755795714
1772642679098931000,6.940930908203125,0.016072013878822327,-0.050370004799962044,-0.03877966637983918
1772642679108971800,6.9509716796875,0.024294483301043508,-0.039297991165518756,-0.03228986596912146
1772642679119012900,6.961012939453125,0.030730069306492802,-0.04185468991100788,-0.03698080026432871
1772642679129055000,6.971054931640625,0.04149140955656767,-0.02749649421274662,-0.03768704883754253
1772642679139096000,6.981095947265625,0.040924715584516526,-0.01769698473215103,-0.03698094639480114
1772642679149138000,6.991137939453125,0.030804011325538158,-0.023572598767280576,-0.04899857031628489
1772642679159179000,7.001178955078125,0.021094518215954303,-0.02314765135347843,-0.028223785573989153
1772642679169220900,7.011220947265625,0.01660334427654743,-0.03661445116996765,-0.02063786048963666
1772642679179262000,7.021261962890625,0.028371523481607437,-0.04487082286179066,-0.003873334302008152
1772642679189303800,7.0313037109375,0.049148938572406764,-0.038812837997078894,-0.015325141034275293
1772642679199345000,7.041344970703125,0.05249181925952434,-0.033655016842484474,-0.020473609838634728
1772642679209386000,7.051385986328125,0.03216390150189399,-0.022161562925577163,-0.021477380053699015
1772642679219427800,7.061427734375,0.03744388773143291,-0.03978022172451019,-0.02477583707720041
1772642679229469000,7.071468994140625,0.016351707603037356,-0.04718728311061859,-0.01607595940157771
1772642679239511000,7.081510986328125,0.02063011557459831,-0.05214169064760208,-0.021024521719664332
1772642679249552100,7.09155224609375,0.013265724286437033,-0.06042378130257129,-0.01973608934432268
1772642679259594000,7.101593994140625,0.02841974653750658,-0.04921791215538978,-0.024979396825283766
1772642679269635000,7.111635009765625,0.02264174765795469,-0.04590893373787403,-0.020844196716696024
1772642679279676000,7.121676025390625,0.023547756586968897,-0.05413900194466114,-0.012975363037735223
1772642679289718000,7.131718017578125,0.03717617670595646,-0.05593757579922676,-0.01420110544040799
1772642679299758800,7.1417587890625,0.036106501647830004,-0.06550619913339614,-0.013753215542435646
1772642679309801000,7.151801025390625,0.0403615287438035,-0.07109072126746177,0.0035417642600834368
1772642679319841800,7.161841796875,0.047321138623356816,-0.05345803394317627,-0.002320259641110897
1772642679329884000,7.1718837890625,0.04287234252095222,-0.04925765964388847,-0.019405396085232497
1772642679339925000,7.181925048828125,0.024797172126173973,-0.023186229798197743,-0.04683496254161
1772642679349966000,7.191966064453125,0.005786182186007499,0.0021545476853847504,-0.025017536878585815
1772642679360008000,7.202008056640625,0.02395633738785982,-0.008802315136790275,-0.024063158763200043
1772642679370049000,7.212049072265625,0.04506722221672535,-0.010912439158558844,-0.0038487843826413154
1772642679380091000,7.2220908203125,0.06337181745320558,-0.013544541227817534,0.01686360264793038
1772642679390132000,7.232132080078125,0.060632455617189406,-0.028373277047276494,0.018215894039720296
1772642679400173800,7.242173828125,0.05083236161470413,-0.028801147070527076,0.018865590120106933
1772642679410215000,7.25221484375,0.024785773949325084,-0.04471826264858245,0.021332564755529165
1772642679420256000,7.262256103515625,0.003898468743264675,-0.031629648494720455,0.028923019884526727
1772642679430297900,7.2722978515625,0.006494914977252483,-0.04793021043241024,0.028486966554820536
1772642679440339000,7.2823388671875,-0.006466565665602684,-0.07776713029146194,0.01532499490380287
1772642679450381000,7.292381103515625,0.0031762919485569,-0.08700842136740684,0.019409926129877565
1772642679460422100,7.302422119140625,0.010560556980967521,-0.09301263021826743,0.008365238893777131
1772642679470464000,7.312464111328125,0.026925708587467668,-0.08610884217917919,0.009178893364220857
1772642679480505000,7.322505126953125,0.030828853505849838,-0.08666472249627113,0.006735007343441247
1772642679490546000,7.3325458984375,0.030967092932760714,-0.10055003998577594,0.013295827163755892
1772642679500588000,7.342588134765625,0.004093699054419994,-0.08140753262042999,0.0103686876706779
1772642679510628900,7.35262890625,0.010798457390069962,-0.08520984751284122,0.009801993698626756
1772642679520671000,7.3626708984375,0.019013620288670062,-0.1046913775742054,0.022799130176752804
1772642679530711800,7.3727119140625,0.0006675239980220794,-0.07762976764738559,0.019241437695175407
1772642679540754000,7.38275390625,0.005895780040323734,-0.08927811986505985,0.016752835749834775
1772642679550794800,7.392794677734375,0.017947744622826577,-0.07754910362660884,0.012301555429399013
1772642679560835800,7.4028359375,-0.0017404139265418052,-0.06548164921402931,0.005650865368545055
1772642679570878000,7.4128779296875,-0.002112462109327316,-0.06314122356772423,0.0081672321036458
1772642679580919000,7.4229189453125,0.01950958711206913,-0.057415831658244126,0.002766249842941761
1772642679590961000,7.4329609375,0.025209260058403012,-0.04927636434435844,-0.018788433230668304
1772642679601002000,7.443001953125,0.04430968184769153,-0.047590603214502335,-0.028697978956997394
1772642679611043800,7.4530439453125,0.03291004369407892,-0.03580021217763424,-0.019285861358791588
1772642679621085000,7.4630849609375,0.02659720728546381,-0.028054712617397306,-0.01434299812912941
1772642679631126000,7.4731259765625,0.019138707973062993,-0.01587619904577732,0.0024427169770002365
1772642679641168000,7.48316796875,0.022762743689119815,-0.010911854636669159,0.0043611178189516065
1772642679651209000,7.493208984375,0.013316285429894924,-0.019163550153374672,0.009185907626897097
1772642679661250800,7.503250732421875,0.010384323631227016,-0.01832300767600536,0.023697394190728662
1772642679671292000,7.5132919921875,0.0026350246787071228,-0.04119651826322079,0.0032784371487796305
1772642679681334000,7.523333984375,0.0010053776502609252,-0.05059563024938106,0.01943944448530674
1772642679691375000,7.533375,-0.0062032385542988774,-0.040970308291912075,0.006216390296816826
1772642679701417000,7.5434169921875,-0.012398586063086987,-0.05646539906561374,0.015393822356313466
1772642679711457800,7.553457763671875,0.0029968437284231186,-0.06414660121798516,0.024313772523403165
1772642679721498600,7.56349853515625,0.004420154529809952,-0.06822773305177689,0.01573079922571778
1772642679731540700,7.573540771484375,0.0053720484271645545,-0.06423895567655563,0.018694909728318453
1772642679741581600,7.58358154296875,0.007221767947077751,-0.06404723249673842,-0.00032908582389354704
1772642679751623700,7.593623779296875,-0.001195055003464222,-0.06740706431865692,-0.008731149596720934
1772642679761664500,7.60366455078125,-0.013164894260466098,-0.07228665305376053,-0.007203647768497467
1772642679771706600,7.61370654296875,0.0019429507613182068,-0.06495674855709076,-0.0198692142046988
1772642679781747500,7.62374755859375,0.006624386575818061,-0.07570318349897862,-0.026805150947719812
1772642679791788500,7.63378857421875,0.021238602861762046,-0.07170154664218426,-0.04943506203740835
1772642679801830700,7.64383056640625,0.02209551195204258,-0.045782677009701726,-0.051392333585023875
1772642679811871700,7.653871826171875,0.008848200105130672,-0.04546878875494003,-0.05885521681159735
1772642679821913600,7.66391357421875,-0.02760229267477989,-0.060299862661957734,-0.06378448990732431
1772642679831954700,7.67395458984375,-0.018352233770489692,-0.055441901236772534,-0.04999079622402787
1772642679841996500,7.68399658203125,-0.00229834007024765,-0.06619768852889538,-0.04805354455113411
1772642679852037600,7.69403759765625,0.016517127297818658,-0.047484220230579376,-0.015104337890446184
1772642679862078700,7.70407861328125,0.05557283414006233,-0.045353637942671776,-0.01453574422225356
1772642679872120600,7.71412060546875,0.06524141071736812,-0.039216742622852324,-0.006388824254274368
1772642679882161700,7.72416162109375,0.05183014048039913,-0.025843466308712957,-0.005915653784573077
1772642679892203500,7.73420361328125,0.04547375719100236,-0.03246083862185478,-0.007660890016704797
1772642679902244600,7.74424462890625,0.04193009323477745,-0.03633914135992527,-0.004920359136909246
1772642679912286700,7.75428662109375,0.01418780756741762,-0.047969957920908926,-0.014052929141372442
1772642679922327800,7.764327880859375,0.02676788767725229,-0.0483890601158142,-0.0008450725220143794
1772642679932368600,7.77436865234375,0.03110796270817518,-0.04700432775914669,0.003100157972425222
1772642679942410800,7.78441064453125,0.033765199218690395,-0.062165072011947625,-0.007832008799910545
1772642679952451600,7.79445166015625,0.04840367316305637,-0.03747837452292442,-0.0017938976794481276
1772642679962493700,7.80449365234375,0.03208265295922756,-0.01838964317142963,-0.006734130560606718
1772642679972534800,7.81453466796875,0.01415302851498127,-0.012504092264175414,-0.0002919686838984489
1772642679982576600,7.82457666015625,0.023011457753181457,-0.05137772053778171,-0.0035682138755917547
1772642679992617700,7.83461767578125,0.02081190188229084,-0.07127543018460274,-0.012948621161282061
1772642680002658600,7.844658447265625,0.02424129180908203,-0.052906829801201816,-0.020051438903808592
1772642680012700700,7.85470068359375,0.03766366796195507,-0.05927168865799903,-0.019863222855329512
1772642680022741800,7.86474169921875,0.04961860191076994,-0.04943360073268413,-0.057725774390250444
1772642680032784000,7.874783935546875,0.062116556695103645,-0.024527707535028455,-0.07924217128008604
1772642680042824700,7.88482470703125,0.06888707374334335,-0.010101122775673866,-0.10197101269960403
1772642680052866800,7.89486669921875,0.01452770704627037,0.02134264775812626,-0.11368921528309583
1772642680062907600,7.90490771484375,0.008633388310670852,0.03899403978288173,-0.10297434452325105
1772642680072948700,7.91494873046875,0.06413929469436407,0.055087096449732774,-0.1310441085793078
1772642680082990600,7.924990478515625,0.06791735192835331,0.05669043999314308,-0.17982494449168443
1772642680093031700,7.93503173828125,0.008604454477131367,0.07914484838545321,-0.16083119794726372
1772642680103073500,7.945073486328125,-0.028192952044308182,0.08038228122591971,-0.09730857384651899
1772642680113114600,7.955114501953125,-0.0910007058739662,0.07138648934364318,-0.053850832653045654
1772642680123156700,7.96515673828125,-0.13096680555939674,0.016215806263685226,-0.03877674377039075
1772642680133197800,7.97519775390625,-0.09359832115173339,-0.10217617988288402,-0.06883899681791662
1772642680143238700,7.98523876953125,-0.020783260309696197,-0.208802324911952,-0.04223404461741447
1772642680153280800,7.99528076171875,0.04796060557067394,-0.2871849567532539,-0.001558335357904434
1772642680163321900,8.00532177734375,0.02783551690876484,-0.3297369812786579,0.07249839610829949
1772642680173363700,8.01536376953125,0.012371698056161402,-0.301176072704792,0.12473156443163752
1772642680183404800,8.02540478515625,0.0650832975462079,-0.20682430283725262,0.11302227580696343
1772642680193446700,8.03544677734375,0.11884206800162792,-0.0840951642692089,0.08074380801469087
1772642680203487700,8.04548779296875,0.12395049705654382,0.001395253750681877,0.05377002250179648
1772642680213528600,8.055528564453125,0.10572598131895064,0.05207856228351593,0.04238105187267065
1772642680223570700,8.06557080078125,0.08256547048389912,0.014293313768506049,0.05263035094738006
1772642680233611500,8.075611572265625,0.06549567773938178,-0.06336626449525357,0.05042363468334078
1772642680243654000,8.08565380859375,0.024081132811307904,-0.11152034681141376,0.07058759405091404
1772642680253694700,8.09569482421875,-0.010319733962416647,-0.1365402217775583,0.0834983674198389
1772642680263736800,8.10573681640625,-0.035947219432890413,-0.13551204777359963,0.09788929634392261
1772642680273777700,8.115777587890625,-0.0707014296889305,-0.10787526830732821,0.0991401731878519
1772642680283818800,8.12581884765625,-0.08123772901147604,-0.052289574685692786,0.09473156296536325
1772642680293860600,8.135860595703125,-0.060250762823224065,-0.02653963187932968,0.10057166729569435
1772642680303901700,8.145901611328124,-0.0012777648508548736,0.005929390048980712,0.0973059434980154
1772642680313943600,8.155943603515626,-0.003477320721745491,-0.0014689035087823868,0.1146995613694191
1772642680323984600,8.165984619140625,-0.04903583358675241,-0.0723053577542305,0.18416516565307975
1772642680334026500,8.176026611328124,-0.09833207167536019,-0.1514239026546478,0.19490049467906354
1772642680344067600,8.186067626953125,-0.1995893831476569,-0.2394113981872797,0.168604900688678
1772642680354108700,8.196108642578125,-0.28003333143293857,-0.2933329579889774,0.14737550404667854
1772642680364150800,8.20615087890625,-0.27586130644530055,-0.3207137168675661,0.10302022949159145
1772642680374191900,8.21619189453125,-0.17721154712289572,-0.2853033807903528,0.0648887978874147
1772642680384233700,8.226233642578125,-0.026014438961446285,-0.18855448665320873,0.03382116718962788
1772642680394274800,8.23627490234375,0.07831833443343639,-0.03518997132480144,0.02559431385323405
1772642680404315600,8.246315673828125,0.10184417144954204,0.0991489410161972,0.025029227316379545
1772642680414357800,8.256357666015624,0.05937047285735607,0.12791501677334308,-0.01718830455765128
1772642680424398600,8.266398681640625,0.00566284806728363,0.06639174979627133,-0.08276756892725824
1772642680434440700,8.276440673828125,0.00628156448751688,-0.017581833919882772,-0.11476225134208798
1772642680444481500,8.2864814453125,0.0034068858340382574,-0.09438333404958248,-0.09286708426773548
1772642680454523600,8.296523681640625,0.006497545325756073,-0.11544131964743137,-0.06160144677981734
1772642680464564700,8.306564697265625,0.05050853648781776,-0.10132453148961067,-0.04181304272636771
1772642680474606800,8.31660693359375,0.07573065602779389,-0.053444005417823785,-0.0325480785138905
1772642680484647700,8.326647705078125,0.09644348144978285,0.0510907202899456,-0.061788347654044624
1772642680494688800,8.336688720703124,0.09621347208619117,0.14012334096133708,-0.07448664731606841
1772642680504730600,8.346730712890626,0.07355038937926292,0.1486883402109146,-0.06487067770883441
1772642680514771700,8.356771728515625,0.038678105701506135,0.11636252614557742,-0.029758155534416436
1772642680524813600,8.3668134765625,0.010851941142976284,0.05680559080541134,-0.02900572973191738
1772642680534854700,8.376854736328125,0.04589665877819061,0.003109656453132629,-0.01208104454651475
1772642680544895700,8.386895751953125,0.03979220442324877,-0.021620295655727387,-0.011963847907632589
1772642680554937600,8.3969375,0.036167291924357414,-0.061845338538289066,-0.03205766464844346
1772642680564978700,8.406978759765625,0.01882160484790802,-0.10142390021085738,-0.03262932705655694
1772642680575020800,8.417020751953125,-0.0021750059515237806,-0.10745908872187138,-0.04572787808254361
1772642680585062000,8.427061767578126,-0.029220833787322043,-0.10316577544212341,-0.06750438721328973
1772642680595103700,8.437103759765625,-0.047235213905572886,-0.07540566185712815,-0.05819339190199971
1772642680605144800,8.447144775390624,-0.060579264125227926,-0.07918576491773129,-0.06836202695593238
1772642680615185700,8.457185546875,-0.0286366041585803,-0.06983283016085624,-0.03418430141359567
1772642680625227800,8.467227783203125,0.02032821001857519,-0.07916939830482006,-0.009208850111067295
1772642680635268600,8.4772685546875,0.04044482311308384,-0.09154723384082317,-0.005246668481826782
1772642680645310700,8.487310791015625,0.022294833916425703,-0.09458499410152435,0.02373158872127533
1772642680655351600,8.4973515625,0.041674072647094725,-0.10935586225390434,0.036813188612461085
1772642680665393700,8.5073935546875,0.010627484737336636,-0.09877133987545966,0.020735329514741895
1772642680675434500,8.5174345703125,0.011985913608968257,-0.08720131359100342,-0.00022591771036386488
1772642680685475600,8.5274755859375,-0.004848609074950218,-0.09180617703795432,-0.019041677339375018
1772642680695517700,8.537517578125,-0.026169921784102917,-0.09964578462243079,-0.004951338797062635
1772642680705558800,8.547558837890625,0.010250468118488789,-0.07168810263872147,0.007567658775299787
1772642680715600600,8.5576005859375,0.03901625161468982,-0.047593525823950766,0.007103110003471374
1772642680725641700,8.567641845703125,0.08398205928355455,-0.05886836855411529,-0.00651508098244667
1772642680735683800,8.577683837890625,0.08572510355859994,-0.022459084567427633,-0.020773323437571524
1772642680745725000,8.587724853515626,0.07391308521181345,-0.0008218377768993377,-0.007451777310669421
1772642680755766000,8.59776611328125,0.039812662689387796,-0.0264952082157135,0.006991027931123972
1772642680765807900,8.607807861328125,0.010327625007927417,-0.02474456515610218,0.00486029951274395
1772642680775849000,8.617848876953126,0.02138297976851463,-0.02145136882960796,0.004474807326495647
1772642680785890800,8.627890869140625,0.044593759486079215,-0.01757365061342716,-0.012275836466252804
1772642680795932000,8.637931884765624,0.06523673454225062,-0.025849311527609824,-0.04354951113015413
1772642680805973800,8.647973876953126,0.05446633420288562,-0.019898878690600395,-0.05519537912979722
1772642680816014800,8.658014892578125,0.04503156638145447,-0.003384381741285324,-0.04663534831628203
1772642680826055700,8.6680556640625,0.03231587719321251,-0.03477729887068271,-0.05954363746717572
1772642680836097800,8.678097900390625,0.03184738289862871,-0.0661661243468523,-0.04753258941695094
1772642680846138600,8.688138671875,0.049450844128429886,-0.054902387532591815,-0.0510920354641974
1772642680856181000,8.698180908203126,0.07258154434710741,-0.03215454915165901,-0.055124213589727876
1772642680866221800,8.708221923828125,0.08925532351136208,-0.011374211451411247,-0.05473711396828294
1772642680876264000,8.718263916015625,0.09084785339981317,0.02165361340343952,-0.05423004122897982
1772642680886304800,8.7283046875,0.09728870010226964,0.02844458871781826,-0.012106617379188537
1772642680896345900,8.738345947265625,0.08500760293900966,0.021499299624562263,0.005123918884992599
1772642680906387700,8.7483876953125,0.08120031961053609,0.006205284380912781,-0.001401829621940851
1772642680916428800,8.7584287109375,0.09051613722741603,0.004722936868667602,0.01745470040887594
1772642680926470700,8.768470703125,0.09221943401396274,0.0069219082176685326,0.00323401348516345
1772642680936511700,8.77851171875,0.10351122787892818,-0.004939209967851638,0.0094188395999372
1772642680946553600,8.7885537109375,0.10507248584628105,-0.03739829502403736,0.003931055838614702
1772642680956594700,8.7985947265625,0.07464198400825262,-0.05411562106907367,-0.019315525844693184
1772642680966635800,8.8086357421875,0.045942543746531006,-0.07678162638545036,-0.023802315869927405
1772642680976678000,8.818677978515625,0.06580781242847442,-0.07463117035329342,-0.028367285697907207
1772642680986719000,8.828718994140624,0.06441665033102036,-0.04368775055706501,-0.0038888241320848465
1772642680996760800,8.8387607421875,0.08352525542676448,-0.023379706543684004,0.004415039963275194
1772642681006802000,8.848802001953125,0.07904197253286838,0.0013368015617132186,-0.001028174003958702
1772642681016843800,8.85884375,0.06101999363005161,-0.0039209728360176084,-0.00000263034850358963
1772642681026884900,8.868884765625,0.06367343074828385,-0.011490531307458876,0.0009067395813763141
1772642681036925700,8.87892578125,0.06618716713488101,-0.04822247137725353,0.005034048644453287
1772642681046967800,8.8889677734375,0.039328970825672147,-0.07442834125757217,0.016347031427919864
1772642681057008600,8.899008544921875,0.030319150418043134,-0.10696282963752746,0.02402472644895315
1772642681067050800,8.90905078125,0.023820436048507688,-0.09951543624103068,0.017039835997670887
1772642681077091600,8.919091552734375,0.010908932027220725,-0.07243453709185123,-0.0009193068020045756
1772642681087132700,8.929132568359375,0.03945522755384445,-0.05249181925952434,-0.02531462012901902
1772642681097174800,8.9391748046875,0.03699906657338142,-0.04519873964190483,-0.04183817716762423
1772642681107216000,8.9492158203125,0.03626549160182476,-0.026971593555808065,-0.03342851461023092
1772642681117257700,8.9592578125,0.05887012211978435,-0.033466800794005394,-0.00271203543767333
1772642681127298800,8.969298828125,0.06287380480319261,-0.021380641680955884,0.010713701716065406
1772642681137340700,8.979340576171875,0.06501403170228004,-0.036361937713623046,0.013723112665116785
1772642681147381800,8.9893818359375,0.08070435278713703,-0.03120820821225643,0.00956350876763463
1772642681157422800,8.9994228515625,0.08215250576883554,-0.023677228185534475,-0.02949921233728528
1772642681167464700,9.009464599609375,0.08796703726649284,-0.028720483049750327,-0.06130158705040812
1772642681177505800,9.019505859375,0.08569120128899813,-0.017838439029455182,-0.06675561467260122
1772642681187548000,9.0295478515625,0.08151391560435295,-0.005424363136291504,-0.06722820062041282
1772642681197589000,9.039589111328125,0.07234744333028793,-0.007376666247844696,-0.05836524133756756
1772642681207630800,9.049630859375,0.05529430945962667,0.008815759140253067,-0.03586801671683788
1772642681217672000,9.059671875,0.03487549854815006,0.015365911436080931,-0.03507686633914709
1772642681227712800,9.069712646484374,0.0217635035187006,-0.01170388179719448,-0.03550400571003556
1772642681237755000,9.0797548828125,-0.0016477672070264815,-0.036247955945134164,-0.028748393969982862
1772642681247795700,9.089795654296875,-0.007442132699489593,-0.05948971532285213,-0.02825301166847348
1772642681257837800,9.099837890625,0.022303601744771,-0.056523266732692715,-0.0319850378036499
1772642681267878700,9.109878662109375,0.07300824532657861,-0.04692483278214931,-0.03170329825282096
1772642681277920800,9.119920654296875,0.07750994065999985,-0.05230711034238338,-0.04307531774714589
1772642681287961600,9.129961669921874,0.06534604013562202,-0.029239538487792014,-0.03176949535682797
1772642681298002700,9.140002685546875,0.034957331612706186,-0.04285363782048225,-0.027019962742179632
1772642681308044800,9.150044921875,0.007090835043787956,-0.05515723907649517,-0.004449672885239124
1772642681318086000,9.1600859375,0.017570728003978728,-0.0690717826604843,0.006112345400452614
1772642681328127700,9.170127685546875,0.027233459362387656,-0.08002630739510058,0.019488690454512833
1772642681338168800,9.1801689453125,0.03960574194043875,-0.08818857106268406,0.0036380642414093017
1772642681348210000,9.1902099609375,0.01639028604775667,-0.07917758161127567,-0.009874036021530627
1772642681358251800,9.200251708984375,-0.023754385074973104,-0.0884083512932062,-0.00397255689278245
1772642681368292900,9.21029296875,-0.043134208327531814,-0.09084288496375083,-0.021015023238956928
1772642681378334700,9.220334716796875,-0.029613047975301742,-0.09693418757617472,-0.029733459484577177
1772642681388375800,9.230375732421875,-0.030077742877602575,-0.10797522155046463,-0.03395385365858674
1772642681398417700,9.240417724609374,0.007862403938174247,-0.08140928618609905,-0.05246376220881939
1772642681408458800,9.250458740234375,0.06134615684449672,-0.018362170642614365,-0.04599778106510639
1772642681418499600,9.26049951171875,0.08050532308369875,0.024031448450684546,-0.026092618764191864
1772642681428542000,9.2705419921875,0.06610679537504911,0.025552958929538724,-0.017756021443009376
1772642681438582800,9.280582763671875,0.04001753761172294,0.0031751229047775266,0.017607114491611717
1772642681448625000,9.290625,0.01759235531389713,-0.033332360759377476,0.03826835585683584
1772642681458665700,9.300665771484375,0.012728548669815062,-0.06138064363598823,0.028065380141884085
1772642681468707800,9.310707763671875,0.011408113721013068,-0.07618892118930816,0.01369768596291542
1772642681480003800,9.32200390625,0.02334405070841312,-0.05331950225532055,-0.0084014792509377
1772642681490045000,9.332044921875,0.0014978373423218726,-0.05082534735202789,-0.04652297398298978
1772642681500085800,9.342085693359374,-0.044861178250610825,-0.04248772711753845,-0.0583789776019752
1772642681510127900,9.3521279296875,-0.05003595054000616,-0.06415887617766856,-0.04494461875036358
1772642681520168700,9.362168701171875,-0.02511222942471504,-0.06864741976857185,-0.0376166139498353
1772642681530210800,9.3722109375,-0.01573065309524536,-0.05765197850167751,-0.018595248746126888
1772642681540251600,9.382251708984375,0.003832710030674934,-0.05722001682519912,0.005418810178339481
1772642681550294000,9.3922939453125,0.02332709957361221,-0.05149228682816028,0.01849763359054923
1772642681560334800,9.4023349609375,0.013178338263928889,-0.06173135676980018,0.03391454456150531
1772642681570376000,9.4123759765625,-0.01772182691246271,-0.059249476826190944,0.05263488099202513
1772642681580417800,9.422417724609375,-0.03261310657411814,-0.0890489872843027,0.03073240739405155
1772642681590459000,9.432458984375,-0.031193302904069423,-0.08286883734464645,0.021117168439179657
1772642681600500700,9.442500732421875,-0.007194879940152167,-0.07982464734315872,0.013308102123439311
1772642681610541800,9.452541748046874,-0.004775251577794551,-0.07292027478218079,0.008001227886974811
1772642681620583700,9.462583740234376,-0.004184299947321415,-0.06509352667927741,0.010428747294843197
1772642681630624800,9.472624755859375,0.0024172902747988697,-0.05175824428796768,0.026979338470846412
1772642681640665900,9.482665771484376,0.009527414540946483,-0.04901449853777885,0.04609261974170804
1772642681650707700,9.492707763671875,0.005348375290632247,-0.06881108589768409,0.05332768556177616
1772642681660748800,9.502748779296875,-0.0028311317726969717,-0.06757949827611447,0.049367549759149545
1772642681670791000,9.512791015625,-0.0030120412975549694,-0.07473112359642982,0.04375687027052044
1772642681680832000,9.52283203125,0.013225392276048659,-0.07410802326202393,0.03398790205866098
1772642681690872800,9.532872802734374,0.019104513442516326,-0.08820493767559529,-0.010485299787670373
1772642681700915000,9.5429150390625,0.004711246430873871,-0.08326923483908176,-0.009326339010894299
1772642681710955800,9.552955810546875,0.007500584888458252,-0.08310498418807982,-0.00254690800383687
1772642681720997600,9.56299755859375,0.015780921977758405,-0.07936988931298256,-0.006443038659542799
1772642681731038500,9.57303857421875,0.03170329825282096,-0.05102408479452133,0.0010373802237212658
1772642681741080600,9.58308056640625,0.05559738405942916,-0.04146773642003536,0.015421148754656314
1772642681751121400,9.593121337890626,0.019752748218178746,-0.04104395805001258,0.0013975918382406233
1772642681761162500,9.60316259765625,-0.018741233088076112,-0.06564940699636936,-0.009254735079407692
1772642681771204400,9.613204345703124,-0.03677694825530052,-0.07364332835972309,0.005291530536860227
1772642681781245400,9.623245361328125,0.01273088675737381,-0.17506489048302173,0.025014175877720115
1772642681791287300,9.633287353515625,0.2283852695211768,-0.04910919108390808,0.002715396438539028
1772642681801328400,9.643328369140624,-0.0034027941808104515,0.13120119883716105,0.036345717231184245
1772642681811370500,9.65337060546875,0.04171908083260059,0.06741115597188473,-0.008444880001246928
1772642681821411300,9.663411376953125,-0.00431260250210762,-0.03588496785163879,-0.08826265921220183
1772642681831452400,9.673452392578126,-0.060947805176675314,-0.045110476836562156,-0.08767214597314596
1772642681841494500,9.68349462890625,-0.09312836555242537,-0.07839432227909565,-0.05955737373158335
1772642681851535600,9.69353564453125,0.006386193905770778,-0.19486556949615477,-0.03187047151327133
