time,seconds_elapsed,z,y,x
1772642672218060300,0.060060302734375,0.0020593770314007998,-0.015008831396698952,-0.014487335458397865
1772642672228101400,0.070101318359375,0.0049676145426929,-0.012501213699579239,-0.01890641450881958
1772642672238142200,0.08014208984375,0.006379090249538422,-0.0112489964812994,-0.019402561709284782
1772642672248184300,0.090184326171875,0.00785944052040577,-0.006428120657801628,-0.01600196771323681
1772642672258225200,0.10022509765625,0.0068138837814331055,-0.0036648244131356478,-0.0119710061699152
1772642672268267500,0.110267578125,0.0062890429981052876,-0.0029598986729979515,-0.006385912653058767
1772642672278308400,0.120308349609375,0.00506984768435359,-0.002360154641792178,0.0006357782986015081
1772642672288349400,0.130349365234375,0.003496551653370261,-0.00396710867062211,-0.0007745148614048958
1772642672298391300,0.140391357421875,0.004792445804923773,-0.004098135977983475,-0.0045969500206410885
1772642672308432400,0.150432373046875,0.0006195057649165392,-0.003790267277508974,-0.0138262202963233
1772642672318474200,0.16047412109375,0.013842366635799408,-0.0026517659425735474,-0.01063601952046156
1772642672328515300,0.170515380859375,0.0048039574176073074,-0.00598785188049078,-0.010455172508955002
1772642672338556400,0.180556396484375,0.002806053962558508,-0.0031768851913511753,-0.013846708461642265
1772642672348598300,0.190598388671875,0.0019291751086711884,-0.0018349208403378725,-0.010843610391020775
1772642672358639400,0.200639404296875,-0.0007598185911774635,-0.0025369301438331604,-0.007208395749330521
1772642672368681200,0.21068115234375,-0.0005870062159374356,-0.001959608169272542,-0.008198014460504055
1772642672378722300,0.220722412109375,0.002233015140518546,-0.0006927424110472202,-0.012571724131703377
1772642672388763100,0.23076318359375,0.0019981509540230036,0.0006191821885295212,-0.014649267308413982
1772642672398805500,0.240805419921875,0.002604020293802023,-0.002365156076848507,-0.010651330463588238
1772642672408846300,0.250846435546875,0.0018875431269407272,-0.003857972798869014,-0.007457587402313948
1772642672418888400,0.260888427734375,0.0020760949701070786,-0.008827164769172668,-0.002925420179963112
1772642672428929300,0.27092919921875,0.0031235029455274343,-0.010068081319332123,-0.003604191355407238
1772642672438970400,0.280970458984375,0.003271042136475444,-0.009202553890645504,-0.005775999743491411
1772642672449012200,0.29101220703125,0.0008002808899618685,-0.012328730896115303,-0.006803174503147602
1772642672459053300,0.30105322265625,0.0019158790819346905,-0.01553331222385168,-0.002224934520199895
1772642672469095200,0.31109521484375,0.0010606579016894102,-0.014173143543303013,-0.000007408205419778824
1772642672479136300,0.32113623046875,0.00140500464476645,-0.016448814421892166,0.0006631757132709026
1772642672489177300,0.33117724609375,0.0017005892004817724,-0.015143383294343948,-0.00262661324813962
1772642672499219500,0.341219482421875,0.0014039130182936788,-0.010355286300182343,-0.005764083471149206
1772642672509260500,0.351260498046875,0.0018020691350102425,-0.009271743707358837,-0.005116346292197704
1772642672519301400,0.36130126953125,0.003478262573480606,-0.0059952568262815475,-0.007416518405079842
1772642672529343500,0.371343505859375,0.0032430056016892195,-0.003185886424034834,-0.0086616650223732
1772642672539384300,0.38138427734375,0.004073379095643759,0.00031856721034273505,-0.009112006053328514
1772642672549426400,0.391426513671875,0.0006278413347899914,0.0033178634475916624,-0.009816601872444153
1772642672559467300,0.40146728515625,0.00145075807813555,0.004554635379463434,-0.007736407220363617
1772642672569508400,0.41150830078125,-0.0005957146058790386,0.0017782925860956311,-0.004456575494259596
1772642672579550200,0.42155029296875,-0.0017259600572288036,0.001756720943376422,-0.003844581078737974
1772642672589591300,0.43159130859375,-0.0005262060440145433,0.0010504506062716246,-0.0021918234415352345
1772642672599633200,0.441633056640625,-0.0002881194814108312,-0.00012746546417474747,-0.0008373395539820194
1772642672609674200,0.45167431640625,-0.0017728190869092941,-0.0015302510000765324,-0.0020362413488328457
1772642672619715300,0.46171533203125,-0.0029523333068937063,-0.0027326680719852448,-0.0016490179114043713
1772642672629757400,0.47175732421875,-0.0038131526671350002,-0.004529617261141539,0.0031476845033466816
1772642672639798500,0.481798583984375,-0.005563115701079369,-0.005670248996466398,0.0031687235459685326
1772642672649840400,0.49184033203125,-0.0036517849657684565,-0.00558087695389986,0.0038343581836670637
1772642672659881500,0.501881591796875,-0.004498138092458248,-0.0041883098892867565,0.00016185897402465343
1772642672669922300,0.51192236328125,-0.0033204013016074896,-0.007423669099807739,-0.0038068636786192656
1772642672679964400,0.52196435546875,-0.000608770817052573,-0.008062561973929405,-0.004885178059339523
1772642672690005200,0.532005126953125,-0.002311908872798085,-0.00851972121745348,-0.00339102023281157
1772642672700046800,0.542046875,-0.00009216414764523506,-0.009382585994899273,-0.0027561227325350046
1772642672710087700,0.552087646484375,-0.0017081775004044175,-0.009712493047118187,0.00037645199336111546
1772642672720128800,0.562128662109375,-0.003563601989299059,-0.008601156063377857,0.002814309671521187
1772642672730170600,0.572170654296875,-0.004814674146473408,-0.00970594771206379,0.0010475341696292162
1772642672740211700,0.582211669921875,-0.0025006537325680256,-0.008918716572225094,0.0008560529677197337
1772642672750253800,0.59225390625,-0.003129306249320507,-0.009178799577057362,-0.0014686144422739744
1772642672760295000,0.602294921875,-0.0009907878702506423,-0.006665575318038464,-0.001856636954471469
1772642672770336000,0.6123359375,-0.00197974662296474,-0.0038756970316171646,-0.0012538046576082706
1772642672780377900,0.6223779296875,0.00019445805810391903,-0.0021318590734153986,-0.002162741497159004
1772642672790419000,0.6324189453125,0.0003597476170398295,-0.0017654637340456247,-0.0025965876411646605
1772642672800460800,0.642460693359375,0.0006058237049728632,-0.0033745456021279097,-0.00024155410937964916
1772642672810502000,0.652501953125,0.0015993951819837093,-0.0051563032902777195,-0.0006900080479681492
1772642672820542700,0.662542724609375,0.002473444677889347,-0.0054764156229794025,-0.0023805825039744377
1772642672830584800,0.672584716796875,0.003036763984709978,-0.003135452512651682,-0.005557389929890633
1772642672840625700,0.682625732421875,0.002545144408941269,-0.003096303902566433,-0.00581411924213171
1772642672850667800,0.692667724609375,0.0013000231701880693,-0.005142200272530317,-0.001969065750017762
1772642672860708600,0.70270849609375,-0.00017270486569032073,-0.006268450990319252,-0.0005317577160894871
1772642672870749700,0.712749755859375,0.00005329778650775552,-0.006864996626973152,0.0032412917353212833
1772642672880791800,0.722791748046875,0.0012607750250026584,-0.005751795135438442,0.00545997079461813
1772642672890833000,0.7328330078125,0.0029600043781101704,-0.00307637476362288,0.003802211955189705
1772642672900874000,0.7428740234375,0.0005953834624961019,0.0007207602029666305,0.003002198413014412
1772642672910915800,0.752915771484375,0.001968743046745658,0.0035383731592446566,0.0011588168563321233
1772642672920957000,0.76295703125,0.0027828712482005358,0.00348297948949039,0.000920197693631053
1772642672930998800,0.772998779296875,0.0030847671441733837,0.0027421489357948303,0.0005713730351999402
1772642672941039900,0.783039794921875,0.0029319017194211483,-0.003269670996814966,0.0015535468701273203
1772642672951080700,0.793080810546875,0.004046593327075243,-0.0039338041096925735,0.0023131240159273148
1772642672961122800,0.803122802734375,0.004036473110318184,-0.0054057324305176735,0.0050801485776901245
1772642672971163600,0.81316357421875,0.0007973514148034155,-0.005179475527256727,0.00849295686930418
1772642672981205800,0.823205810546875,0.0020471729803830385,-0.0037501563783735037,0.009495371021330357
1772642672991246600,0.83324658203125,0.002537174616008997,-0.002199507551267743,0.008559915237128735
1772642673001287700,0.84328759765625,0.004063964821398258,-0.001517738215625286,0.007362024858593941
1772642673011329800,0.853329833984375,0.004951091017574072,-0.001463092165067792,0.007598235737532377
1772642673021371000,0.863370849609375,0.005151094403117895,-0.0016609649173915386,0.005685020703822374
1772642673031412700,0.873412841796875,0.007189457770437002,-0.0025455106515437365,0.007356265094131231
1772642673041453800,0.883453857421875,0.006932462565600872,-0.002422739053145051,0.01012968085706234
1772642673051495000,0.893494873046875,0.0060914624482393265,-0.003795547178015113,0.014876753091812134
1772642673061536800,0.903536865234375,0.003987565636634827,-0.0008833806496113539,0.017351362854242325
1772642673071577900,0.913577880859375,0.002619353123009205,-0.0007780781597830355,0.018581215292215347
1772642673081619700,0.92361962890625,0.005464408081024885,0.0007977142231538892,0.016175050288438797
1772642673091660800,0.933660888671875,0.004269294440746307,0.0020069554448127747,0.012901666574180126
1772642673101701600,0.94370166015625,0.006515405140817165,0.005464004818350077,0.008391869254410267
1772642673111743700,0.95374365234375,0.007109709084033966,0.0053597092628479,0.005343441851437092
1772642673121784800,0.963784912109375,0.005490773357450962,0.0032254518009722233,0.003133817110210657
1772642673131827000,0.973826904296875,0.004570404998958111,0.0014596197288483381,0.005000316072255373
1772642673141867800,0.98386767578125,0.004845243413001299,-0.0012666581897065043,0.006799281109124422
1772642673151908900,0.993908935546875,0.003014253219589591,-0.0004812971455976367,0.00976574420928955
1772642673161950700,1.00395068359375,0.0013287386391311884,-0.0007241774583235383,0.01165392529219389
1772642673171991800,1.01399169921875,-0.0007459968328475952,0.00041087152203544974,0.011187667958438396
1772642673182033700,1.02403369140625,-0.0028261919505894184,0.0018857300747185946,0.01169500034302473
1772642673192074800,1.03407470703125,-0.002189642982557416,0.0029859847854822874,0.006849620956927538
1772642673202115800,1.04411572265625,-0.0025598222855478525,0.0023026177659630775,0.003374994732439518
1772642673212157700,1.05415771484375,-0.0001409000251442194,0.0020242659375071526,0.0032775348518043756
1772642673222198800,1.06419873046875,-0.0018037776462733746,-0.0014809865970164537,0.0050690434873104095
1772642673232239600,1.074239501953125,0.00011825241381302476,-0.001971223158761859,0.0064565385691821575
1772642673242282000,1.084281982421875,-0.0004223693395033479,-0.0016274091321974993,0.0069984919391572475
1772642673252322800,1.09432275390625,0.0027469652704894543,-0.0006873694946989417,0.0060850088484585285
1772642673262365000,1.104364990234375,0.002785847522318363,-0.000327842659316957,0.005426142830401659
1772642673272405800,1.11440576171875,0.003359392751008272,-0.0019009694224223495,0.0018589873798191547
1772642673282446800,1.12444677734375,0.004829723853617907,-0.0020884559489786625,0.0018699063220992684
1772642673292488700,1.13448876953125,0.005661961622536182,-0.0016519638011232018,-0.004279598593711853
1772642673302529800,1.14452978515625,0.0018456518882885575,-0.002485000528395176,-0.003913148306310177
1772642673312571600,1.154571533203125,0.0041465964168310165,-0.0014613330131396651,-0.002279020147398114
1772642673322612700,1.16461279296875,0.002383050974458456,0.00019328901544213295,-0.0003519570454955101
1772642673332653800,1.17465380859375,0.0025507432874292135,-0.0010635717771947384,0.003691333346068859
1772642673342695700,1.18469580078125,0.001585081103257835,-0.0020428160205483437,0.004588019568473101
1772642673352736800,1.19473681640625,0.002811167621985078,-0.0027320345398038626,0.002821193542331457
1772642673362779000,1.20477880859375,0.0046338350512087345,-0.0015860763378441334,0.003408420365303755
1772642673372820000,1.214820068359375,0.003123629605397582,-0.0003213949385099113,0.00683177774772048
1772642673382860800,1.22486083984375,0.002760374452918768,-0.00003830087371170521,0.005246664397418499
1772642673392903000,1.23490283203125,0.0021095641423016787,0.001139886095188558,0.002806705655530095
1772642673402943700,1.24494384765625,0.001557224546559155,0.0020980914123356342,-0.0005414204206317663
1772642673412985900,1.25498583984375,0.003790531773120165,0.0038474122993648052,-0.0012323979754000902
1772642673423026700,1.265026611328125,0.0019265852170065045,0.005477799568325281,-0.0016095016617327929
1772642673433067800,1.27506787109375,0.0011434158077463508,0.006516436580568552,-0.0021378437522798777
1772642673443109600,1.285109619140625,-0.0016307991463690996,0.006966777145862579,-0.003913905471563339
1772642673453150700,1.295150634765625,-0.00030943151796236634,0.007106803823262453,-0.0038055323529988527
1772642673463191800,1.30519189453125,-0.0016154458280652761,0.007610939908772707,-0.0035293621476739645
1772642673473233700,1.315233642578125,-0.003397933207452297,0.00650118850171566,-0.00007199333049356937
1772642673483274800,1.325274658203125,-0.002716430462896824,0.00453071529045701,0.0017370919231325388
1772642673493316900,1.33531689453125,-0.002287747338414192,0.003462959313765168,0.0012336951913312078
1772642673503358000,1.34535791015625,-0.0014033116167411208,0.005388158373534679,0.003260360797867179
1772642673513398800,1.355398681640625,-0.001074044732376933,0.00755144190043211,0.002051137387752533
1772642673523441000,1.36544091796875,-0.0005826916312798858,0.007050235290080309,0.004068215377628803
1772642673533481700,1.375481689453125,-0.001986883347854018,0.006965336389839649,0.0016064075753092766
1772642673543523800,1.38552392578125,0.0013777543790638447,0.00536184711381793,0.0019432974513620138
1772642673553564700,1.395564697265625,0.004466368816792965,0.0008516761590726674,0.0032125539146363735
1772642673563605800,1.405605712890625,0.004783817566931248,0.0009920247830450535,0.001472976990044117
1772642673573647600,1.415647705078125,0.003979542758315802,-0.0005968171753920615,0.0036804713308811188
1772642673583688700,1.425688720703125,0.003742787754163146,-0.0016386457718908787,0.008036870509386063
1772642673593730800,1.435730712890625,0.002676977077499032,-0.0011221612803637981,0.008190210908651352
1772642673603772000,1.44577197265625,0.000782138085924089,-0.00033732777228578925,0.008681564591825008
1772642673613813000,1.45581298828125,0.0021858839318156242,0.001013220171444118,0.006598342210054398
1772642673623854800,1.465854736328125,0.0047995103523135185,-0.0006235586479306221,0.00509605323895812
1772642673633896000,1.47589599609375,0.004193746950477362,-0.00035357585875317454,0.0055759018287062645
1772642673643937800,1.485937744140625,0.007767176255583763,-0.0004489170969463885,0.0055945441126823425
1772642673653979000,1.495978759765625,0.008357806131243706,0.0012421469436958432,0.009720774367451668
1772642673664019700,1.506019775390625,0.005730598233640194,0.006162869744002819,0.014206603169441223
1772642673674061800,1.516061767578125,0.005932257976382971,0.007120071444660425,0.015516539104282856
1772642673684102700,1.5261025390625,0.0044382247142493725,0.007094771601259708,0.014131162315607071
1772642673694143700,1.536143798828125,0.004085363354533911,0.0049362219870090485,0.012171977199614048
1772642673704186600,1.5461865234375,0.004896029829978943,0.0035955868661403656,0.008394284173846245
1772642673714227700,1.556227783203125,0.005014254245907068,0.0018319319933652878,0.008622629567980766
1772642673724269600,1.56626953125,0.003123676171526313,0.0023363346699625254,0.00801462959498167
1772642673734310700,1.576310546875,0.0022218029480427504,0.004356293007731438,0.0068121058866381645
1772642673744351700,1.586351806640625,0.0018215298186987638,0.0034249855671077967,0.00559743819758296
1772642673754393600,1.5963935546875,0.00038933538598939776,0.0018751288298517466,0.005699946545064449
1772642673764434700,1.6064345703125,0.002460209419950843,0.00019334274111315608,0.003745718626305461
1772642673774476500,1.6164765625,0.0018205109518021345,-0.00021805771393701434,0.0014355911407619715
1772642673784517600,1.626517578125,0.0004063723608851433,0.00015877955593168736,0.003209789050742984
1772642673794558500,1.636558349609375,0.0015339483506977558,-0.00033572985557839274,0.0007474749581888318
1772642673804600800,1.646600830078125,0.0005096966633573174,0.0016376725398004055,0.0033288770355284214
1772642673814641700,1.6566416015625,0.000984005630016327,0.003052609972655773,0.0024929107166826725
1772642673824683800,1.666683837890625,0.002171775558963418,0.004205758683383465,0.00396563857793808
1772642673834724600,1.676724609375,0.0032856962643563747,0.004413331858813763,0.0036330490838736296
1772642673844765700,1.686765625,0.004095830023288727,0.003509188536554575,0.0040671443566679955
1772642673854807600,1.6968076171875,0.004583381582051516,0.004859731066972017,0.0050888690166175365
1772642673864848600,1.7068486328125,0.0037881615571677685,0.004650140646845102,0.004653708543628454
1772642673874890500,1.716890380859375,0.004257963038980961,0.0015474013052880764,0.005874389782547951
1772642673884931600,1.726931640625,0.0025455504655838013,0.0018142500193789601,0.005165455862879753
1772642673894972700,1.73697265625,0.002955596661195159,-0.0014735772274434566,0.0038528176955878735
1772642673905014500,1.7470146484375,0.002985157538205385,-0.0002346747205592692,0.003512731986120343
1772642673915055600,1.7570556640625,0.00493269506841898,-0.0012107344809919596,0.004288303665816784
1772642673925097700,1.76709765625,0.003151040058583021,-0.0008352287113666534,0.003863529535010457
1772642673935138800,1.777138916015625,0.003600162221118808,0.0014589843340218067,0.004695141687989235
1772642673945179600,1.7871796875,0.004439324140548706,0.0016288940096274018,0.005849622189998627
1772642673955221800,1.7972216796875,0.005662946496158838,0.0013133115135133266,0.004595687612891197
1772642673965262600,1.8072626953125,0.007456852123141289,0.0008629710064269602,0.005161342676728964
1772642673975303700,1.8173037109375,0.007657615002244711,0.0005367806297726929,0.00874405074864626
1772642673985345500,1.827345458984375,0.006758531555533409,0.00013224646681919694,0.010404531843960285
1772642673995386600,1.83738671875,0.007608199492096901,0.0020817879121750593,0.010671920143067837
1772642674005428500,1.847428466796875,0.0030272966250777245,0.00261868117377162,0.011122792959213257
1772642674015469600,1.857469482421875,0.003826191183179617,-0.00041556108044460416,0.008456992916762829
1772642674025510700,1.8675107421875,0.003841371275484562,-0.003298965748399496,0.005658543203026056
1772642674035552500,1.877552490234375,0.004153034649789333,-0.004250566475093365,0.002725734142586589
1772642674045593600,1.887593505859375,0.00782872922718525,-0.0045954459346830845,0.0011893565533682704
1772642674055635700,1.8976357421875,0.007035034243017435,-0.005163711030036211,0.001767132431268692
1772642674065676800,1.9076767578125,0.0032301757019013166,-0.0034374501556158066,0.0022715351078659296
1772642674075717600,1.917717529296875,0.0039383964613080025,0.0000995892914943397,0.00328759104013443
1772642674085759700,1.927759765625,0.003856371156871319,-0.0019872637931257486,0.0006768943276256323
1772642674095800600,1.937800537109375,0.0027915334794670343,-0.0019424611236900091,-0.0029308381490409374
1772642674105842700,1.9478427734375,0.004869065247476101,-0.003921988420188427,-0.007326918188482523
1772642674115883500,1.957883544921875,0.005266222637146711,-0.008891027420759201,-0.008556538261473179
1772642674125924600,1.967924560546875,0.008752833120524883,-0.011666307225823402,-0.008916330523788929
1772642674135966500,1.977966552734375,0.007995150052011013,-0.01205128338187933,-0.010212956927716732
1772642674146007600,1.988007568359375,0.007635623216629028,-0.009606235660612583,-0.010692591778934002
1772642674156049400,1.99804931640625,0.007688700221478939,-0.008854802697896957,-0.009407917968928814
1772642674166090500,2.008090576171875,0.008924406953155994,-0.009897430427372456,-0.007601229473948479
1772642674176131600,2.018131591796875,0.00885919202119112,-0.010840197093784809,-0.007936171256005764
1772642674186173700,2.028173583984375,0.008531357161700726,-0.011154184117913246,-0.005950251594185829
1772642674196214800,2.03821484375,0.00853502657264471,-0.012149716727435589,-0.004380124155431986
1772642674206255600,2.048255615234375,0.008789891377091408,-0.01614951901137829,-0.0026402808725833893
1772642674216297700,2.058297607421875,0.005252467002719641,-0.0165046826004982,-0.0018046058248728514
1772642674226338600,2.068338623046875,0.006347558926790953,-0.017986731603741646,-0.005350071936845779
1772642674236380700,2.078380615234375,0.006853711791336536,-0.020724361762404442,-0.008488518185913563
1772642674246421500,2.08842138671875,0.0071016522124409676,-0.02138322778046131,-0.009759112261235714
1772642674256462600,2.098462646484375,0.00902900192886591,-0.020690960809588432,-0.012344618327915668
1772642674266504400,2.10850439453125,0.007022044621407986,-0.01731247454881668,-0.011521435342729092
1772642674276545500,2.118545654296875,0.007096493151038885,-0.015685390681028366,-0.00713574793189764
1772642674286587600,2.128587646484375,0.006272511091083288,-0.013717847876250744,-0.0037173146847635508
1772642674296628700,2.138628662109375,0.004471180494874716,-0.01146508939564228,-0.005392628721892834
1772642674306669800,2.148669921875,0.004476506728678942,-0.008620033040642738,-0.004492480307817459
1772642674316711700,2.158711669921875,0.005068196915090084,-0.005380015820264816,-0.00451980996876955
1772642674326752800,2.168752685546875,0.0046823048032820225,-0.0023834267631173134,-0.004045234993100166
1772642674336794600,2.178794677734375,0.005044660996645689,0.00005310156848281622,-0.004490899853408337
1772642674346835700,2.188835693359375,0.004247576929628849,-0.00016740820137783885,-0.005481063388288021
1772642674356876500,2.19887646484375,0.004147422034293413,-0.001232782262377441,-0.0032659999560564756
1772642674366918700,2.208918701171875,0.003894421737641096,-0.005118068307638168,-0.0022601240780204535
1772642674376959500,2.21895947265625,0.001565760001540184,-0.00778474984690547,-0.0029125004075467587
1772642674387000600,2.22900048828125,0.0016677591484040022,-0.007903527468442917,-0.003432616125792265
1772642674397042400,2.23904248046875,0.002178219612687826,-0.009206617251038551,-0.0038616855163127184
1772642674407083500,2.24908349609375,0.0033614621497690678,-0.00997946597635746,-0.005680091679096222
1772642674417125600,2.259125732421875,0.0018258712952956557,-0.007621651981025934,-0.005510375369340181
1772642674427166700,2.269166748046875,0.002169419080018997,-0.007118047680705786,-0.006193742621690035
1772642674437207800,2.279207763671875,0.0007590554305352271,-0.006574069615453482,-0.006388011388480663
1772642674447249700,2.289249755859375,0.000279952771961689,-0.005968200508505106,-0.010353724472224712
1772642674457290800,2.299290771484375,0.0013332129456102848,-0.003773333039134741,-0.014707348309457302
1772642674467332600,2.30933251953125,0.002125769853591919,-0.0029826404061168432,-0.013501469977200031
1772642674477373700,2.319373779296875,0.001977398060262203,-0.001698723528534174,-0.012102065607905388
1772642674487414500,2.32941455078125,0.0009459558059461415,-0.0008827311103232205,-0.007688409648835659
1772642674497456600,2.33945654296875,-0.0013108665589243174,-0.001928617712110281,-0.00011031609028577805
1772642674507497500,2.34949755859375,-0.0022147432900965214,-0.005123079288750887,0.0037419465370476246
1772642674517539600,2.35953955078125,-0.0019642601255327463,-0.007024683523923159,0.004963532090187073
1772642674527580400,2.369580322265625,0.001227005966939032,-0.004797216039150953,0.004171241540461779
1772642674537621500,2.37962158203125,0.0029968167655169964,-0.004692602436989546,0.0018408714095130563
1772642674547663600,2.38966357421875,0.0032969550229609013,-0.002504549454897642,0.0024749699514359236
1772642674557704700,2.39970458984375,0.004201090894639492,0.0007845130166970193,0.004254127852618694
1772642674567746600,2.40974658203125,0.004048758186399937,0.004123584367334843,0.005593165755271912
1772642674577787600,2.41978759765625,0.003711662022396922,0.004139607306569815,0.004896823316812515
1772642674587828700,2.429828857421875,0.004722065292298794,0.004689816385507584,0.0008133981609717011
1772642674597870600,2.43987060546875,0.004704734310507774,0.0038140586111694574,-0.0025596520863473415
1772642674607911700,2.44991162109375,0.003433607518672943,0.0019943206571042538,-0.003219849895685911
1772642674617952500,2.459952392578125,0.004073658958077431,0.004154733382165432,-0.004020908381789923
1772642674627994600,2.46999462890625,0.0008373854798264802,0.003766711102798581,-0.003140733577311039
1772642674638035500,2.480035400390625,-0.0008127887267619371,0.003083456540480256,-0.002467447891831398
1772642674648077600,2.49007763671875,-0.005437368061393499,0.004789211321622133,-0.0017337468452751637
1772642674658118400,2.500118408203125,-0.007152563892304897,0.003757128957659006,-0.0034317844547331333
1772642674668159500,2.510159423828125,-0.007447908632457256,0.004109731409698725,-0.006467522121965885
1772642674678201600,2.52020166015625,-0.009450520388782024,0.0031982252839952707,-0.0076845306903123856
1772642674688242700,2.53024267578125,-0.008555698208510876,0.00402886513620615,-0.008337804116308689
1772642674698284500,2.540284423828125,-0.009267507120966911,0.003977589309215546,-0.011332690715789795
1772642674708325400,2.550325439453125,-0.009484820999205112,0.004100361373275518,-0.00952973123639822
1772642674718366500,2.560366455078125,-0.008208532817661762,0.004382654093205929,-0.011892635375261307
1772642674728408300,2.570408203125,-0.007007182110100985,0.006250328850001097,-0.013299317099153996
1772642674738449400,2.580449462890625,-0.008392265066504478,0.0073872837238013744,-0.014420254155993462
1772642674748491500,2.590491455078125,-0.008996004238724709,0.008778252638876438,-0.015770742669701576
1772642674758532600,2.60053271484375,-0.007001821883022785,0.00906927790492773,-0.015122698619961739
1772642674768573400,2.610573486328125,-0.009203989990055561,0.00876035075634718,-0.013488050550222397
1772642674778615600,2.620615478515625,-0.007746228948235512,0.0071788630448281765,-0.011442182585597038
1772642674788656400,2.630656494140625,-0.005798925645649433,0.007490452844649553,-0.013113582506775856
1772642674798697500,2.640697509765625,-0.006961362902075052,0.008686204440891743,-0.014026697725057602
1772642674808739300,2.6507392578125,-0.004965323954820633,0.009296334348618984,-0.01461419090628624
1772642674818780400,2.660780517578125,-0.004795153625309467,0.007137369364500046,-0.010353495366871357
1772642674828822300,2.670822265625,-0.004503004718571901,0.005836148746311665,-0.008265310898423195
1772642674838863400,2.68086328125,-0.005867495201528072,0.005125250667333603,-0.007418518885970116
1772642674848904400,2.690904541015625,-0.00805235281586647,0.00608771713450551,-0.008420400321483612
1772642674858946300,2.7009462890625,-0.007931970991194248,0.009528196416795254,-0.010061074048280716
1772642674868987400,2.7109873046875,-0.006979890633374453,0.012214260175824165,-0.011423014104366302
1772642674879029500,2.721029541015625,-0.010155477561056614,0.013982340693473816,-0.010185797698795795
1772642674889070600,2.731070556640625,-0.008950662799179554,0.013602040708065033,-0.006477878428995609
1772642674899111400,2.741111328125,-0.008467825129628181,0.014921312220394611,-0.004204770550131798
1772642674909153500,2.751153564453125,-0.008439063094556332,0.013544990681111813,-0.004695857875049114
1772642674919194400,2.7611943359375,-0.010454311035573483,0.01168185006827116,-0.008402532897889614
1772642674929236500,2.771236572265625,-0.009027921594679356,0.012147903442382812,-0.008223302662372589
1772642674939277300,2.78127734375,-0.005940632428973913,0.009789775125682354,-0.008538526482880116
1772642674949318400,2.791318359375,-0.006294033490121365,0.011123220436275005,-0.0057816216722130775
1772642674959360300,2.8013603515625,-0.007521531078964472,0.010784570127725601,-0.003348700236529112
1772642674969401300,2.8114013671875,-0.008091980591416359,0.010633302852511406,-0.0005694255232810974
1772642674979443500,2.821443359375,-0.007761868182569742,0.009346888400614262,-0.0015667856205254793
1772642674989484500,2.831484619140625,-0.009329404681921005,0.00960494950413704,-0.0038307385984808207
1772642674999525600,2.841525634765625,-0.009853009134531021,0.011276298202574253,-0.006183895282447338
1772642675009567500,2.8515673828125,-0.007889460772275925,0.01483268290758133,-0.00881296768784523
1772642675019608600,2.861608642578125,-0.007436842191964388,0.017314109951257706,-0.009092073887586594
1772642675029650400,2.871650390625,-0.008419017307460308,0.018162859603762627,-0.0053870840929448605
1772642675039691500,2.88169140625,-0.009174388833343983,0.017238477244973183,-0.0023930093739181757
1772642675049732400,2.891732421875,-0.008122973144054413,0.01686323806643486,-0.0027810323517769575
1772642675059774500,2.9017744140625,-0.008138053119182587,0.016727415844798088,-0.0019654547795653343
1772642675069815300,2.911815185546875,-0.006460527889430523,0.014097542501986027,-0.006266726180911064
1772642675079856400,2.9218564453125,-0.0075574638321995735,0.011931437067687511,-0.0063107796013355255
1772642675089898200,2.931898193359375,-0.007362520322203636,0.013839592225849628,-0.006694008596241474
1772642675099939300,2.941939208984375,-0.009695104323327541,0.012297243811190128,-0.004994949325919151
1772642675109981400,2.9519814453125,-0.009145693853497505,0.011127583682537079,-0.0064935097470879555
1772642675120022500,2.9620224609375,-0.010275219567120075,0.011007320135831833,-0.005919029004871845
1772642675130063600,2.972063720703125,-0.011069374158978462,0.010309305973351002,-0.006074025295674801
1772642675140105500,2.98210546875,-0.011603644117712975,0.00938949640840292,-0.00667461147531867
1772642675150146600,2.992146484375,-0.009486697614192963,0.008708526380360126,-0.007204314228147268
1772642675160188400,3.0021884765625,-0.00894620269536972,0.006188594736158848,-0.005949537269771099
1772642675170229500,3.0122294921875,-0.008428750559687614,0.005188045557588339,-0.0028477534651756287
1772642675180270300,3.022270263671875,-0.006813317537307739,0.005933776497840881,-0.0013577607460319996
1772642675190312400,3.0323125,-0.007751016411930323,0.011240923777222633,-0.0025564495008438826
1772642675200353300,3.042353271484375,-0.008026393130421638,0.013407464139163494,-0.005528900306671858
1772642675210395400,3.0523955078125,-0.0074785808101296425,0.014289237558841705,-0.006812011357396841
1772642675220436200,3.062436279296875,-0.004311456345021725,0.013352925889194012,-0.005613836459815502
1772642675230477300,3.072477294921875,-0.005021721590310335,0.012214690446853638,-0.0057962629944086075
1772642675240519400,3.08251953125,-0.004174856934696436,0.010427067056298256,-0.004320493899285793
1772642675250560500,3.092560546875,-0.005155698861926794,0.008566049858927727,-0.006514939479529858
1772642675260602400,3.102602294921875,-0.0066241128370165825,0.008280394598841667,-0.006752518936991692
1772642675270643500,3.1126435546875,-0.007255814503878355,0.00839224737137556,-0.009142439812421799
1772642675280684500,3.1226845703125,-0.006296257488429546,0.008917799219489098,-0.010618474334478378
1772642675290726400,3.132726318359375,-0.00500941788777709,0.008409135974943638,-0.01182941347360611
1772642675300767500,3.142767578125,-0.005502269137650728,0.0077505335211753845,-0.011327024549245834
1772642675310808300,3.152808349609375,-0.0067643411457538605,0.006726282183080912,-0.011765114031732082
1772642675320850400,3.162850341796875,-0.00607313122600317,0.0065167988650500774,-0.01026095449924469
1772642675330891300,3.172891357421875,-0.006341045256704092,0.005633161868900061,-0.01116802729666233
1772642675340933400,3.182933349609375,-0.006267082411795855,0.0066148568876087666,-0.010004620999097824
1772642675350974200,3.19297412109375,-0.007541405502706766,0.007232976611703634,-0.008797410875558853
1772642675361015300,3.203015380859375,-0.007858728058636189,0.007867123931646347,-0.010438614524900913
1772642675371057400,3.213057373046875,-0.006984944920986891,0.00797711219638586,-0.010152057744562626
1772642675381098500,3.223098388671875,-0.007785330526530743,0.011375633999705315,-0.011159478686749935
1772642675391140400,3.233140380859375,-0.0061956895515322685,0.012605215422809124,-0.009843078441917896
1772642675401181400,3.243181396484375,-0.005237098317593336,0.016283415257930756,-0.011341366916894913
1772642675411222500,3.253222412109375,-0.005209933966398239,0.019050437957048416,-0.011609280481934547
1772642675421264400,3.263264404296875,-0.0064731379970908165,0.019084788858890533,-0.012418913654983044
1772642675431305500,3.273305419921875,-0.0072795432060956955,0.02128269523382187,-0.01059358287602663
1772642675441347300,3.283347412109375,-0.009035252034664154,0.018912382423877716,-0.009701250120997429
1772642675451388400,3.293388427734375,-0.008702889084815979,0.018314769491553307,-0.007371250540018082
1772642675461429200,3.30342919921875,-0.009864220395684242,0.016893919557332993,-0.005381206516176462
1772642675471471600,3.3134716796875,-0.00807936955243349,0.015140493400394917,-0.006779632531106472
1772642675481512400,3.323512451171875,-0.009892256930470467,0.014710712246596813,-0.007180036045610905
1772642675491554600,3.333554443359375,-0.010372159071266651,0.01568516343832016,-0.008339842781424522
1772642675501595400,3.343595458984375,-0.009917844086885452,0.015091167762875557,-0.010728586465120316
1772642675511636500,3.353636474609375,-0.007982258684933186,0.01498597301542759,-0.01563332974910736
1772642675521678300,3.36367822265625,-0.00991128571331501,0.012033595703542233,-0.018725112080574036
1772642675531719400,3.373719482421875,-0.012493486516177654,0.009772838093340397,-0.020989596843719482
1772642675541760500,3.383760498046875,-0.017070716246962547,0.009668871760368347,-0.017223065719008446
1772642675551802400,3.39380224609375,-0.014019531197845936,0.0077399443835020065,-0.012538563460111618
1772642675561843500,3.403843505859375,-0.013248266652226448,0.005266017280519009,-0.008259199559688568
1772642675571885300,3.41388525390625,-0.01151694543659687,0.004087834618985653,-0.008139889687299728
1772642675581926400,3.423926513671875,-0.008866654708981514,0.003344450844451785,-0.013256417587399483
1772642675591967200,3.43396728515625,-0.008815255016088486,0.0030365893617272377,-0.014798121526837349
1772642675602009600,3.444009521484375,-0.007271727081388235,0.0015031880466267467,-0.011799177154898643
1772642675612050400,3.454050537109375,-0.00936550460755825,0.002367117442190647,-0.011659094132483006
1772642675622092500,3.464092529296875,-0.009034080430865288,0.0004065469547640532,-0.009783059358596802
1772642675632133400,3.47413330078125,-0.010288429446518421,0.005477472208440304,-0.008258666843175888
1772642675642174500,3.484174560546875,-0.011809899471700191,0.0033390126191079617,-0.007327989675104618
1772642675652216300,3.49421630859375,-0.010494564659893513,0.0038743079639971256,-0.005376158282160759
1772642675662257400,3.50425732421875,-0.01047502364963293,0.003010642249137163,-0.0046737659722566605
1772642675672299300,3.51429931640625,-0.008851827122271061,0.0005935572553426027,-0.006328387651592493
1772642675682340400,3.52434033203125,-0.007220573723316193,0.0007482917862944305,-0.005923023447394371
1772642675692381400,3.53438134765625,-0.006691404152661562,0.0005632020765915513,-0.007144349627196789
1772642675702422800,3.5444228515625,-0.006754574365913868,0.0012243619421496987,-0.0077320849522948265
1772642675712464000,3.5544638671875,-0.004473577253520489,0.0015593876596540213,-0.00943863857537508
1772642675722505700,3.564505615234375,-0.004789341241121292,0.0019757351838052273,-0.007973039522767067
1772642675732546800,3.574546875,-0.004030340351164341,0.0011948964092880487,-0.00894962064921856
1772642675742588000,3.584587890625,-0.005039012525230646,0.0012170104309916496,-0.009952505119144917
1772642675752629800,3.594629638671875,-0.0036198142915964127,0.002112897578626871,-0.009759691543877125
1772642675762670800,3.6046708984375,-0.003923187963664532,0.0025318595580756664,-0.00851337518543005
1772642675772711700,3.614711669921875,-0.005839865189045668,0.00347115658223629,-0.007513091899454594
1772642675782753800,3.62475390625,-0.005702093243598938,0.004069683142006397,-0.007460176013410091
1772642675792794600,3.634794677734375,-0.007306381594389677,0.005195667501538992,-0.009064464829862118
1772642675802837000,3.6448369140625,-0.007996466010808945,0.005415048915892839,-0.00770325493067503
1772642675812877800,3.6548779296875,-0.008128026500344276,0.004386269953101873,-0.004139678552746773
1772642675822919000,3.6649189453125,-0.011524848639965057,0.006063482258468866,-0.002210441278293729
1772642675832960800,3.674960693359375,-0.010182615369558334,0.006497311405837536,-0.0004687337204813957
1772642675843001900,3.685001953125,-0.01133895292878151,0.004479642026126385,-0.00208464078605175
1772642675853043700,3.695043701171875,-0.01031976193189621,0.004428775515407324,-0.0016593337059020996
1772642675863084800,3.705084716796875,-0.011079514399170876,0.0036502284929156303,-0.0020450828596949577
1772642675873126000,3.7151259765625,-0.010351406410336494,0.0034483610652387142,-0.002018451690673828
1772642675883167700,3.725167724609375,-0.008852945640683174,0.0036933741066604853,-0.00039217667654156685
1772642675893208800,3.735208740234375,-0.008719787932932377,0.006570653524249792,-0.002145069418475032
1772642675903250700,3.745250732421875,-0.008087100461125374,0.0066455998457968235,-0.006102491170167923
1772642675913291800,3.755291748046875,-0.00521887606009841,0.005135055165737867,-0.0067128874361515045
1772642675923332600,3.76533251953125,-0.005317726172506809,0.004202521406114101,-0.006868825294077396
1772642675933375000,3.775375,-0.003292658133432269,0.0005079179536551237,-0.005125786177814007
1772642675943415800,3.785415771484375,-0.0034306496381759644,-0.002880374900996685,-0.0052171740680933
1772642675953458000,3.7954580078125,-0.002205329015851021,-0.007355550769716501,-0.002615266013890505
1772642675963498800,3.805498779296875,-0.0010002425406128168,-0.00527008855715394,-0.0036026688758283854
1772642675973539800,3.815539794921875,-0.0018226266838610172,-0.00459178164601326,-0.004199749790132046
1772642675983581700,3.825581787109375,-0.0008558788103982806,-0.0030097535345703363,-0.006447034887969494
1772642675993622800,3.835622802734375,-0.0014188712229952216,-0.003214284311980009,-0.007257700897753239
1772642676003664600,3.84566455078125,-0.00117427296936512,-0.004075442906469107,-0.005661396309733391
1772642676013705700,3.855705810546875,-0.0018986528739333153,-0.005171333905309439,-0.007532799616456032
1772642676023746800,3.865746826171875,-0.0009458072599954903,-0.0038831555284559727,-0.006836469750851393
1772642676033789000,3.875788818359375,-0.003526942804455757,-0.006142048630863428,-0.006862302776426077
1772642676043830000,3.885830078125,-0.004347795620560646,-0.004908743780106306,-0.0053493911400437355
1772642676053870800,3.895870849609375,-0.004234611056745052,-0.005166271235793829,-0.006836500018835068
1772642676063913000,3.905912841796875,-0.005600347183644772,-0.003007784252986312,-0.008765725418925285
1772642676073953800,3.915953857421875,-0.0050767697393894196,-0.0036109902430325747,-0.009824598208069801
1772642676083996000,3.925995849609375,-0.004911234602332115,-0.002119234763085842,-0.011300042271614075
1772642676094036700,3.93603662109375,-0.005114167463034391,-0.0029275042470544577,-0.010342635214328766
1772642676104077800,3.946077880859375,-0.005715042352676392,-0.0016148360446095467,-0.010393530130386353
1772642676114119700,3.95611962890625,-0.0031064762733876705,-0.000795381551142782,-0.009641719050705433
1772642676124160800,3.966160888671875,-0.004910834599286318,0.0019237012602388859,-0.009377564303576946
1772642676134202600,3.97620263671875,-0.003246891312301159,-0.0023360250052064657,-0.010500086471438408
1772642676144243700,3.98624365234375,-0.004521919880062342,-0.0015117204748094082,-0.014934764243662357
1772642676154284800,3.996284912109375,-0.005712619051337242,-0.004760244395583868,-0.015451417304575443
1772642676164327000,4.006326904296875,-0.0031661312095820904,-0.005336869973689318,-0.017338788136839867
1772642676174368000,4.016367919921875,-0.004882271867245436,-0.0014878034126013517,-0.013832470402121544
1772642676184409900,4.026409912109375,-0.006552247330546379,-0.00480418186634779,-0.009080307558178902
1772642676194451000,4.036450927734375,-0.008087825961411,-0.004485934041440487,-0.005573723465204239
1772642676204491800,4.04649169921875,-0.008121548220515251,-0.0042009782046079636,-0.002875556470826268
1772642676214534000,4.056533935546875,-0.005497801583260298,-0.004364762920886278,-0.0033575885463505983
1772642676224574700,4.06657470703125,-0.005721400957554579,-0.0025075350422412157,-0.005331306718289852
1772642676234616800,4.076616943359375,-0.006725146435201168,-0.0002763387165032327,-0.007497255690395832
1772642676244657700,4.08665771484375,-0.004046413116157055,0.0015178811736404896,-0.003957012668251991
1772642676254698800,4.09669873046875,-0.004960676189512014,-0.0015167908277362585,-0.0015503140166401863
1772642676264740600,4.10674072265625,-0.003193149110302329,-0.0029625031165778637,-0.0018266795668751001
1772642676274781700,4.11678173828125,-0.0025966009125113487,-0.002321213949471712,-0.005680540576577187
1772642676284823800,4.12682373046875,-0.0025504548102617264,-0.0011630590306594968,-0.009994463995099068
1772642676294865000,4.136864990234375,-0.00132353650406003,-0.0019755894318223,-0.010845078155398369
1772642676304906000,4.146906005859375,-0.0022144371178001165,-0.0028250841423869133,-0.00642223097383976
1772642676314947800,4.15694775390625,-0.0034975481685250998,-0.00336277624592185,-0.0017108318861573935
1772642676324989000,4.166989013671875,-0.0026620214339345694,-0.005457030143588781,0.0028756815008819103
1772642676335030800,4.17703076171875,-0.002337914891541004,-0.00456034392118454,0.0035792887210845947
1772642676345071900,4.18707177734375,-0.002900274470448494,-0.002553121652454138,0.0001346087083220482
1772642676355112700,4.19711279296875,-0.0019700322300195694,0.001385160954669118,-0.004338170401751995
1772642676365154800,4.20715478515625,-0.00005436711944639683,0.00641650753095746,-0.007185913622379303
1772642676375195600,4.217195556640625,-0.0026418943889439106,0.006952335592359304,-0.003983462229371071
1772642676385236700,4.22723681640625,-0.0037877473514527082,0.011327866464853287,-0.003085375064983964
1772642676395278600,4.237278564453125,-0.005059939343482256,0.011692985892295837,0.00012613087892532349
1772642676405319700,4.247319580078125,-0.006781825330108404,0.012148533947765827,-0.0040267473086714745
1772642676415361800,4.25736181640625,-0.007324045058339834,0.00964170042425394,-0.006419598124921322
1772642676425403000,4.26740283203125,-0.008303195238113403,0.008891011588275433,-0.009383143857121468
1772642676435444000,4.27744384765625,-0.005874392576515675,0.008104047738015652,-0.009980225935578346
1772642676445485800,4.28748583984375,-0.006521028000861406,0.009098894894123077,-0.009924720972776413
1772642676455527000,4.29752685546875,-0.006638207007199526,0.012714135460555553,-0.00960274413228035
1772642676465568800,4.30756884765625,-0.006641303189098835,0.013541311025619507,-0.009121926501393318
1772642676475609900,4.31760986328125,-0.008286871016025543,0.01578528992831707,-0.011702530086040497
1772642676485650700,4.327650634765625,-0.008831609040498734,0.014589441008865833,-0.013256906531751156
1772642676495692800,4.33769287109375,-0.010740295983850956,0.014778791926801205,-0.015060399658977985
1772642676505733600,4.347733642578125,-0.008448604494333267,0.012749665416777134,-0.012215683236718178
1772642676515776000,4.35777587890625,-0.009545826353132725,0.011297976598143578,-0.009361306205391884
1772642676525816800,4.36781689453125,-0.00901123695075512,0.009269502945244312,-0.004648558795452118
1772642676535858000,4.37785791015625,-0.008620817214250565,0.006483037956058979,-0.0005496875382959843
1772642676545899800,4.387899658203125,-0.009357455186545849,0.004346441477537155,0.0005040228134021163
1772642676555940900,4.39794091796875,-0.0092123132199049,0.003283840138465166,0.0016896621091291308
1772642676565982700,4.407982666015625,-0.006696197669953108,0.000770395970903337,-0.0007010973058640957
1772642676576023800,4.41802392578125,-0.0030782935209572315,-0.001008595572784543,-0.0019802136812359095
1772642676586065000,4.42806494140625,0.0009345235885120928,-0.0027111482340842485,-0.001977108418941498
1772642676596106800,4.438106689453125,0.001330269267782569,-0.002896504243835807,-0.0030873799696564674
1772642676606147800,4.44814794921875,0.0009080115705728531,-0.0015024985186755657,-0.003492708085104823
1772642676616189700,4.458189697265625,0.00173199363052845,-0.003053523600101471,0.0006133539136499166
1772642676626230800,4.468230712890625,0.0019857073202729225,-0.002996379043906927,0.004305378999561071
1772642676636271600,4.478271728515625,0.002552694408223033,-0.005196416284888983,0.008123286999762058
1772642676646314000,4.48831396484375,0.0023994892835617065,-0.005729261320084333,0.00988377258181572
1772642676656354800,4.498354736328125,0.0022202585823833942,-0.0028152302838861942,0.00517716770991683
1772642676666397000,4.50839697265625,0.00396301131695509,0.0013482457725331187,0.0016531185247004032
1772642676676437800,4.518437744140625,0.004908167291432619,0.0037118010222911835,-0.002376776887103915
1772642676686478800,4.528478759765625,0.003449014388024807,0.00482772383838892,-0.007240075618028641
1772642676696520700,4.538520751953125,0.0015714858891442418,0.004328913986682892,-0.01018313504755497
1772642676706562000,4.54856201171875,-0.000591321149840951,0.004479013383388519,-0.008133543655276299
1772642676716604000,4.55860400390625,-0.0029226522892713547,0.005335219670087099,-0.004918308928608894
1772642676726645000,4.56864501953125,-0.004806851036846638,0.005634657572954893,-0.0015185698866844177
1772642676736686000,4.57868603515625,-0.00596239697188139,0.007467977702617645,0.0008790742140263319
1772642676746728000,4.58872802734375,-0.005156677681952715,0.007887057960033417,-0.0007170527242124081
1772642676756769000,4.59876904296875,-0.004996888339519501,0.008269754238426685,-0.001952759688720107
1772642676766811100,4.60881103515625,-0.0034296719823032618,0.007246730849146843,-0.00046509597450494766
1772642676776852200,4.618852294921875,-0.0030291324947029352,0.0052336473017930984,0.001610838109627366
1772642676786893000,4.62889306640625,-0.0020021172240376472,0.001220261910930276,0.004275982733815908
1772642676796935200,4.63893505859375,-0.00126628577709198,0.00030333554605022073,0.005722345784306526
1772642676806976000,4.64897607421875,-0.0006095758290030062,0.000657705357298255,0.0035507497377693653
1772642676817018000,4.65901806640625,0.00047965708654373884,-0.00045762647641822696,0.001288127969019115
1772642676827059000,4.669058837890625,0.00029565818840637803,-0.003483413252979517,-0.0001832139678299427
1772642676837100000,4.67910009765625,0.002856553765013814,-0.006607567425817251,0.001345174154266715
1772642676847142000,4.689141845703125,0.003302633296698332,-0.007730355951935053,0.0032701068557798862
1772642676857183000,4.699182861328125,0.0063420990481972694,-0.01170139480382204,0.0032924774568527937
1772642676867225000,4.70922509765625,0.0061986008659005165,-0.011128921993076801,0.004617274738848209
1772642676877266200,4.71926611328125,0.006323769688606262,-0.009235946461558342,0.0027064569294452667
1772642676887307300,4.729307373046875,0.006552021950483322,-0.008573776111006737,0.002250941703096032
1772642676897349000,4.73934912109375,0.006967741530388594,-0.010628138668835163,0.0033026239834725857
1772642676907390200,4.74939013671875,0.008927403017878532,-0.008872374892234802,0.005132172256708145
1772642676917432000,4.75943212890625,0.010219036601483822,-0.009350146166980267,0.006989460438489914
1772642676927473200,4.76947314453125,0.01124925073236227,-0.007965346798300743,0.004318639636039734
1772642676937514000,4.779513916015625,0.009942703880369663,-0.008740326389670372,0.0028959789779037237
1772642676947556000,4.78955615234375,0.010611578822135925,-0.00795911904424429,0.0010286710457876325
1772642676957597000,4.799596923828125,0.011492019519209862,-0.007183074485510588,0.0013434566790238023
1772642676967639000,4.80963916015625,0.011678614653646946,-0.007489127106964588,0.003944283351302147
1772642676977680000,4.819679931640625,0.01357158925384283,-0.00753013975918293,0.00700079370290041
1772642676987721000,4.829720947265625,0.012574861757457256,-0.005134083796292543,0.010389083996415138
1772642676997763000,4.83976318359375,0.011067246086895466,-0.003678666427731514,0.010229294188320637
1772642677007804200,4.84980419921875,0.012174212373793125,-0.0024982497561722994,0.009918608702719212
1772642677017846000,4.859845947265625,0.012289261445403099,-0.0033462001010775566,0.00813215970993042
1772642677027887000,4.86988720703125,0.010238350369036198,-0.005159179214388132,0.0059848083183169365
1772642677037928200,4.87992822265625,0.009936081245541573,-0.007482254412025213,0.005078268237411976
1772642677047970000,4.889969970703125,0.011001245118677616,-0.007922207936644554,0.004379867576062679
1772642677058011100,4.90001123046875,0.007793201599270105,-0.0076761310920119286,0.003013133304193616
1772642677068053000,4.910052978515625,0.007360124960541725,-0.0035657030530273914,0.002479294780641794
1772642677078094000,4.920093994140625,0.006655719131231308,-0.0018879114650189877,0.0001450341660529375
1772642677088135000,4.930135009765625,0.002610268536955118,-0.0017259330488741398,-0.0013580142986029387
1772642677098177000,4.940177001953125,0.0031378408893942833,-0.001506222179159522,-0.003790013026446104
1772642677108217900,4.9502177734375,0.0033066938631236553,-0.0017297181766480207,-0.0018386084120720625
1772642677118260200,4.96026025390625,0.0029437048360705376,-0.00267300964333117,-0.0007270048372447491
1772642677128301000,4.970301025390625,0.0036735304165631533,-0.001588995917700231,-0.0013752132654190063
1772642677138342100,4.980342041015625,0.003611212596297264,-0.0024806223809719086,-0.0013062374200671911
1772642677148384000,4.990384033203125,0.004409875255078077,-0.0030535771511495113,-0.0001915893517434597
1772642677158425000,5.000425048828125,0.005435192491859198,-0.007625159341841936,0.0011335996678099036
1772642677168467000,5.010467041015625,0.006375234108418226,-0.010083094239234924,0.0009977989830076694
1772642677178508000,5.020508056640625,0.00748231029137969,-0.0104167889803648,0.002709146123379469
1772642677188550000,5.0305498046875,0.008150589652359486,-0.009879574179649353,0.001585839199833572
1772642677198591000,5.040591064453125,0.007166018709540367,-0.011625275947153568,0.0035445941612124443
1772642677208632000,5.050632080078125,0.008118566125631332,-0.012300390750169754,0.006866862997412682
1772642677218674000,5.060673828125,0.008727098815143108,-0.013138220645487309,0.010657073929905891
1772642677228715000,5.070715087890625,0.008902894333004951,-0.01238289661705494,0.012038977816700935
1772642677238757000,5.080757080078125,0.012013200670480728,-0.010898184031248093,0.009275948628783226
1772642677248798200,5.090798095703125,0.013890949077904224,-0.006418108940124512,0.007830243557691574
1772642677258839000,5.100839111328125,0.012768160551786423,-0.0041581508703529835,0.006987885572016239
1772642677268881200,5.110881103515625,0.011679158546030521,-0.0037733190692961216,0.010675735771656036
1772642677278922000,5.120921875,0.011818707920610905,0.0006842798902653158,0.010328459553420544
1772642677288964000,5.130964111328125,0.012072820216417313,0.000001872365828603506,0.010827409103512764
1772642677299005000,5.1410048828125,0.010019523091614246,-0.0006093231495469809,0.012193078175187111
1772642677309046000,5.1510458984375,0.009859586134552956,0.00020571122877299786,0.008072374388575554
1772642677319087900,5.161087890625,0.009295794181525707,0.002029443858191371,0.006155430804938078
1772642677329129000,5.17112890625,0.008118373341858387,0.003662809729576111,0.006605205126106739
1772642677339171000,5.181171142578125,0.005240827798843384,0.005931289866566658,0.007418002001941204
1772642677349212200,5.191212158203125,0.0026067416183650494,0.0062749991193413734,0.010659475810825825
1772642677359254000,5.20125390625,-0.00002792361192405224,0.00496072880923748,0.010379045270383358
1772642677369295000,5.211295166015625,-0.00008645752677693963,0.002688045846298337,0.006977570243179798
1772642677379336200,5.221336181640625,-0.0004965842817910016,0.0035045710392296314,0.0019396685529500246
1772642677389378000,5.2313779296875,0.0021833637729287148,0.0016197962686419487,0.0002441431861370802
1772642677399419100,5.241419189453125,0.0014928061282262206,0.0004546632117126137,0.0022329920902848244
1772642677409461000,5.2514609375,0.0023766171652823687,0.00014621426817029715,0.010955097153782845
1772642677419502000,5.261502197265625,0.001333456952124834,-0.0002655105199664831,0.017798354849219322
1772642677429543000,5.27154296875,0.0016473697032779455,0.0009030906949192286,0.019539326429367065
1772642677439585000,5.2815849609375,0.00246256310492754,0.003581698052585125,0.017311058938503265
1772642677449625900,5.2916259765625,0.002714067231863737,0.0022298768162727356,0.016252577304840088
1772642677459668200,5.301668212890625,0.00698684249073267,0.0018647575052455068,0.007819144055247307
1772642677472219000,5.314218994140625,0.0070998528972268105,0.0009037243435159326,0.003382669296115637
1772642677482260000,5.324260009765625,0.00827031210064888,-0.00045129202771931887,0.0013181868707761168
1772642677492301800,5.3343017578125,0.005578884854912758,-0.0030169778037816286,0.0038904340472072363
1772642677502343000,5.344343017578125,0.0073128691874444485,-0.005505701526999474,0.007040154188871384
1772642677512385000,5.354385009765625,0.006697320844978094,-0.008311396464705467,0.007128292694687843
1772642677522426000,5.364426025390625,0.008460333570837975,-0.007209912873804569,0.007147999946027994
1772642677532468000,5.374468017578125,0.009843247942626476,-0.008412114344537258,0.0048272255808115005
1772642677542509000,5.384509033203125,0.010191589593887329,-0.007991867139935493,0.006831786595284939
1772642677552550100,5.394550048828125,0.01194019429385662,-0.008372170850634575,0.007163965608924627
1772642677562592000,5.404592041015625,0.010919936932623386,-0.008676836267113686,0.007463304791599512
1772642677572633000,5.414633056640625,0.012746507301926613,-0.011472991667687893,0.009137014858424664
1772642677582675000,5.424675048828125,0.010955531150102615,-0.013104444369673729,0.007294906303286552
1772642677592716000,5.434716064453125,0.012457949109375477,-0.01255844347178936,0.0038723284378647804
1772642677602756900,5.4447568359375,0.014010305516421795,-0.011730734258890152,0.004499502945691347
1772642677612799200,5.45479931640625,0.012225087732076645,-0.01126281637698412,0.0038828575052320957
1772642677622840000,5.464840087890625,0.010977396741509438,-0.009947214275598526,0.006200873292982578
1772642677632882200,5.474882080078125,0.00868900679051876,-0.011184468865394592,0.0028267414309084415
1772642677642923000,5.484923095703125,0.006352349184453487,-0.009716534987092018,-0.0010231242049485445
1772642677652965000,5.494965087890625,0.005379147827625275,-0.010565174743533134,-0.001900343457236886
1772642677663006000,5.505005859375,0.004226265475153923,-0.013216884806752205,-0.0011107162572443485
1772642677673047000,5.515047119140625,0.004393603652715683,-0.0122732724994421,0.004387924447655678
1772642677683089000,5.5250888671875,0.002792777493596077,-0.008917156606912613,0.006405801512300968
1772642677693130000,5.5351298828125,0.0015291532035917044,-0.004735301248729229,0.010074177756905556
1772642677703172000,5.545172119140625,-0.0023055323399603367,0.0008695876458659768,0.007238178048282862
1772642677713213000,5.555212890625,-0.0017499784007668495,0.0009392515057697892,0.0037163682281970978
1772642677723254000,5.56525390625,-0.0005531536298803985,0.0025968030095100403,0.00021644169464707375
1772642677733295900,5.5752958984375,0.00030179345048964024,0.005060125607997179,0.0016157228965312243
1772642677743337000,5.5853369140625,-0.00005773326847702265,0.006453491747379303,0.005632036365568638
1772642677753378800,5.59537890625,0.0012896254193037748,0.007309747859835625,0.00943512748926878
1772642677763420000,5.605419921875,-0.001982067944481969,0.009430689737200737,0.009352835826575756
1772642677773461800,5.615461669921875,-0.002291813725605607,0.00818390678614378,0.007921693846583366
1772642677783502800,5.6255029296875,-0.0013948609121143818,0.007976713590323925,0.004174359608441591
1772642677793544000,5.6355439453125,-0.0022521326318383217,0.007813461124897003,0.00250295945443213
1772642677803586000,5.6455859375,-0.0009871311485767365,0.010431881994009018,0.003394319675862789
1772642677813627000,5.655626953125,-0.003172759199514985,0.011504389345645905,0.0069264634512364864
1772642677823669000,5.6656689453125,-0.0012683325912803411,0.010626878589391708,0.008557915687561035
1772642677833710000,5.6757099609375,-0.004937892314046621,0.01398533582687378,0.00703230407088995
1772642677843752000,5.685751953125,-0.004189011175185442,0.018900198861956596,0.0022716373205184937
1772642677853793000,5.69579296875,-0.003267164807766676,0.0211015697568655,-0.0022828662768006325
1772642677863835000,5.7058349609375,-0.0016855135327205062,0.02537407912313938,-0.00658387178555131
1772642677873876000,5.7158759765625,-0.0014040524838492274,0.025574401021003723,-0.010012714192271233
1772642677883918000,5.72591796875,-0.0018751657335087657,0.024965336546301842,-0.005283472593873739
1772642677893959200,5.735959228515625,-0.004390181507915258,0.02241823449730873,-0.004268676973879337
1772642677904001000,5.7460009765625,-0.004411220550537109,0.02138759195804596,-0.008269011974334717
1772642677914042000,5.7560419921875,-0.00452541746199131,0.02116447500884533,-0.01347159594297409
1772642677924083000,5.7660830078125,-0.005718513857573271,0.023361848667263985,-0.01859418675303459
1772642677934125000,5.776125,-0.008248054422438145,0.023135317489504814,-0.01865042746067047
1772642677944166000,5.786165771484375,-0.0096028046682477,0.023609360679984093,-0.01845654845237732
1772642677954208000,5.7962080078125,-0.011226129718124866,0.02245163358747959,-0.01875946670770645
1772642677964248800,5.806248779296875,-0.008984280750155449,0.020586354658007622,-0.02019038237631321
1772642677974291000,5.816291015625,-0.007909723557531834,0.01882169023156166,-0.0214987862855196
1772642677984331800,5.826331787109375,-0.007669240236282349,0.01724270172417164,-0.0222250297665596
1772642677994372900,5.836372802734375,-0.007538654375821352,0.013909543864428997,-0.019261721521615982
1772642678004415000,5.8464150390625,-0.0050446041859686375,0.010780861601233482,-0.011996351182460785
1772642678014456000,5.8564560546875,-0.007144808303564787,0.010350813157856464,-0.005385078024119139
1772642678024498000,5.866497802734375,-0.0077663897536695,0.011474933475255966,-0.00008618645370006561
1772642678034539000,5.8765390625,-0.007577939424663782,0.014836110174655914,0.0004572406178340316
1772642678044580900,5.886580810546875,-0.00878701452165842,0.018821263685822487,-0.00478226225823164
1772642678054622000,5.8966220703125,-0.00955086387693882,0.022167736664414406,-0.008085557259619236
1772642678064663000,5.9066630859375,-0.007664812728762627,0.02574968710541725,-0.012991632334887981
1772642678074705000,5.916704833984375,-0.007518930360674858,0.027785250917077065,-0.011032942682504654
1772642678084746000,5.92674609375,-0.006522907875478268,0.030860669910907745,-0.008743423037230968
1772642678094787800,5.936787841796875,-0.007684126030653715,0.03326060250401497,-0.004780799150466919
1772642678104829000,5.946828857421875,-0.007678533438593149,0.03795815259218216,-0.005799192935228348
1772642678114871000,5.95687109375,-0.0045616538263857365,0.03948398679494858,-0.006210364401340485
1772642678124912000,5.966912109375,-0.0022268604952841997,0.039701033383607864,-0.0078034671023488045
1772642678134953000,5.976952880859375,0.00003116007428616285,0.041032932698726654,-0.009932264685630798
1772642678144995000,5.9869951171875,0.004187022801488638,0.04397838935256004,-0.016239961609244347
1772642678155036000,5.997035888671875,0.011598555371165276,0.04802543669939041,-0.025902846828103065
1772642678165078000,6.007078125,0.014976242557168007,0.05284123122692108,-0.03483268991112709
1772642678175118800,6.017118896484375,0.018613945692777634,0.05585464835166931,-0.04046793282032013
1772642678185161000,6.027160888671875,0.019225673750042915,0.05487966537475586,-0.0375770702958107
1772642678195201800,6.037201904296875,0.020895512774586678,0.046674467623233795,-0.03641049563884735
1772642678205243000,6.047242919921875,0.020679796114563942,0.0400804802775383,-0.03538411110639572
1772642678215284700,6.05728466796875,0.022358853369951248,0.029647227376699448,-0.027078351005911827
1772642678225325800,6.067325927734375,0.023402545601129532,0.02479361742734909,-0.025453023612499237
1772642678235368000,6.077367919921875,0.02578853815793991,0.023451702669262886,-0.02778797782957554
1772642678245409000,6.087408935546875,0.02856115624308586,0.023454897105693817,-0.027416201308369637
1772642678255451000,6.097450927734375,0.028921619057655334,0.022402897477149963,-0.02599525824189186
1772642678265492000,6.107491943359375,0.028818821534514427,0.017790568992495537,-0.02581975609064102
1772642678275533000,6.117532958984375,0.026964351534843445,0.015745365992188454,-0.023934392258524895
1772642678285575000,6.127574951171875,0.026291638612747192,0.016892923042178154,-0.02385316602885723
1772642678295616000,6.137615966796875,0.022850172594189644,0.011739120818674564,-0.022968580946326256
1772642678305657900,6.147657958984375,0.01914970949292183,0.011237913742661476,-0.019312327727675438
1772642678315699000,6.157698974609375,0.016308309510350227,0.009454980492591858,-0.013730207458138466
1772642678325740800,6.16774072265625,0.014468331821262836,0.008963094092905521,-0.012225788086652756
1772642678335782100,6.1777822265625,0.011794653721153736,0.007975808344781399,-0.011687414720654488
1772642678345823000,6.187822998046875,0.01094643771648407,0.012638204731047153,-0.010672751814126968
1772642678355865000,6.197864990234375,0.008311907760798931,0.014207551255822182,-0.010528795421123505
1772642678365906000,6.207906005859375,0.005737696308642626,0.01643501967191696,-0.00459021283313632
1772642678375948000,6.217947998046875,0.003695644438266754,0.018469300121068954,0.0007670745253562927
1772642678385988900,6.22798876953125,0.0019840309396386147,0.020273059606552124,0.005362092517316341
1772642678396031000,6.238031005859375,0.001938135945238173,0.02177007682621479,0.0012687462149187922
1772642678406071800,6.24807177734375,-0.0003140993067063391,0.026746725663542747,0.0013505052775144577
1772642678416113000,6.25811279296875,0.00037980644265189767,0.027430569753050804,0.0020818966440856457
1772642678426154800,6.26815478515625,0.0007489205454476178,0.02848491631448269,0.004991932772099972
1772642678436195800,6.27819580078125,-0.001344169839285314,0.02639652043581009,0.007157907821238041
1772642678446238000,6.288238037109375,-0.0004983498947694898,0.026497455313801765,0.005445229355245829
1772642678456279000,6.298279052734375,-0.0007615787326358259,0.02516438066959381,0.007526068948209286
1772642678466321000,6.30832080078125,-0.0038961193058639765,0.023872215300798416,0.007254692725837231
1772642678476362000,6.318362060546875,-0.004118209704756737,0.021469885483384132,0.008782693184912205
1772642678486403000,6.328403076171875,-0.004623677581548691,0.019556405022740364,0.008537416346371174
1772642678496445000,6.33844482421875,-0.004724582657217979,0.01832953840494156,0.008195193484425545
1772642678506486000,6.348486083984375,-0.0025051047559827566,0.017821406945586205,0.008872169069945812
1772642678516527900,6.35852783203125,-0.002475140616297722,0.01598617061972618,0.007454982027411461
1772642678526569000,6.36856884765625,-0.000596014317125082,0.014080412685871124,0.009128512814640999
1772642678536610800,6.37861083984375,0.00011169502977281809,0.012097049504518509,0.006882819347083569
1772642678546652000,6.38865185546875,-0.00025662011466920376,0.010812073945999146,0.00650225393474102
1772642678556692700,6.398692626953125,0.0026877194177359343,0.008215172216296196,0.01090775802731514
1772642678566735000,6.408735107421875,0.0020525555592030287,0.009408269077539444,0.010601228103041649
1772642678576776000,6.41877587890625,0.0023283117916435003,0.007997699081897736,0.010240106843411922
1772642678586818000,6.428818115234375,0.0022366989869624376,0.006827239878475666,0.012862787581980228
1772642678596859000,6.43885888671875,0.0011243761982768774,0.004144211765378714,0.01464619766920805
1772642678606901000,6.44890087890625,0.0011992111103609204,0.0023934494238346815,0.010567300952970982
1772642678616941800,6.45894189453125,0.00138586456887424,0.0002765560057014227,0.007935545407235622
1772642678626983000,6.46898291015625,0.002318237442523241,-0.0009077517315745354,0.007534206844866276
1772642678637024800,6.479024658203125,0.00019763573072850704,-0.002164816949516535,0.007140190340578556
1772642678647065900,6.48906591796875,-0.00026788481045514345,-0.0034258239902555943,0.009707477875053883
1772642678657107700,6.499107666015625,-0.00029917393112555146,-0.0017382316291332245,0.011913787573575974
1772642678667148800,6.509148681640625,-0.001454452984035015,-0.0030969763174653053,0.010230403393507004
1772642678677191000,6.51919091796875,-0.00002443778794258833,-0.0031803336460143328,0.008735444396734238
1772642678687232000,6.52923193359375,0.0003132511046715081,-0.005451743490993977,0.00892798975110054
1772642678697273000,6.539273193359375,-0.0001685770694166422,-0.0057119345292449,0.0111213568598032
1772642678707315000,6.54931494140625,-0.0017630114452913404,-0.007393986918032169,0.010790059342980385
1772642678717356000,6.55935595703125,-0.0048307692632079124,-0.006213674321770668,0.010792706161737442
1772642678727398000,6.56939794921875,-0.005237434059381485,-0.0038847404066473246,0.0091580580919981
1772642678737439000,6.57943896484375,-0.0036468475591391325,-0.001936212065629661,0.008991073817014694
1772642678747480800,6.589480712890625,-0.005027164239436388,-0.0030515440739691257,0.008557511493563652
1772642678757522000,6.59952197265625,-0.0029395222663879395,-0.0012312191538512707,0.008030090481042862
1772642678767562800,6.609562744140625,0.00041526154382154346,0.0009389907936565578,0.010540918447077274
1772642678777604900,6.61960498046875,0.002289117779582739,-0.002825547708198428,0.012152651324868202
1772642678787645700,6.629645751953125,0.0018222657963633537,-0.002290518721565604,0.014502890408039093
1772642678797688000,6.63968798828125,0.00280897319316864,-0.0031835827976465225,0.014920501038432121
1772642678807729000,6.64972900390625,0.007091868668794632,-0.002298081526532769,0.009690850973129272
1772642678817771000,6.65977099609375,0.006144979037344456,-0.004008310381323099,0.006434458773583174
1772642678827811800,6.669811767578125,0.007784687448292971,-0.0035715517587959766,0.003913244232535362
1772642678837853000,6.67985302734375,0.008933886885643005,-0.0053040445782244205,0.006345913279801607
1772642678847894800,6.689894775390625,0.007534129079431295,-0.004937327466905117,0.009314805269241333
1772642678857936000,6.699935791015625,0.0062026106752455235,-0.006117640528827906,0.012973735108971596
1772642678867978000,6.70997802734375,0.006875059101730585,-0.007699824869632721,0.013050965964794159
1772642678878018800,6.720018798828125,0.006209620274603367,-0.007321495562791824,0.012738295830786228
1772642678888061000,6.73006103515625,0.006879138760268688,-0.006635199300944805,0.008562992326915264
1772642678898102000,6.74010205078125,0.007319313939660788,-0.007925394922494888,0.008388683199882507
1772642678908143900,6.750143798828125,0.009363289922475815,-0.0087784044444561,0.007367361336946487
1772642678918185000,6.76018505859375,0.009086797945201397,-0.011284812353551388,0.010251576080918312
1772642678928226000,6.77022607421875,0.00705853383988142,-0.011613179929554462,0.011879300698637962
1772642678938268000,6.780267822265625,0.00537821976467967,-0.011206782422959805,0.012767432257533073
1772642678948309000,6.79030908203125,0.008447512984275818,-0.011491741053760052,0.01226143166422844
1772642678958350800,6.800350830078125,0.00831673014909029,-0.0113009512424469,0.01294643059372902
1772642678968392000,6.810391845703125,0.008869602344930172,-0.011750493198633194,0.01192484237253666
1772642678978433800,6.820433837890625,0.01075464952737093,-0.009373621083796024,0.009503241628408432
1772642678988475000,6.830474853515625,0.008880316279828548,-0.009509708732366562,0.010359448380768299
1772642678998516000,6.840515869140625,0.010293594561517239,-0.010923048481345177,0.010692598298192024
1772642679008558000,6.85055810546875,0.00855188723653555,-0.011254345998167992,0.00961401779204607
1772642679018599000,6.860598876953125,0.00970013439655304,-0.00750663923099637,0.004563447088003159
1772642679028641000,6.87064111328125,0.00916191004216671,-0.008073891513049603,0.00160547427367419
1772642679038681900,6.880681884765625,0.008609643206000328,-0.005107183940708637,0.0005691035185009241
1772642679048724000,6.890723876953125,0.007473272737115622,-0.005441144574433565,0.002747036749497056
1772642679058765000,6.90076513671875,0.005374123342335224,-0.005232512950897217,0.005711263045668602
1772642679068806000,6.910805908203125,0.005474258214235306,-0.006095643155276775,0.007960569113492966
1772642679078848000,6.920847900390625,0.003670358331874013,-0.006564359180629253,0.012011799030005932
1772642679088888800,6.930888916015625,0.0032964504789561033,-0.0033102426677942276,0.009577669203281403
1772642679098931000,6.940930908203125,0.0027958329301327467,-0.0028946828097105026,0.008925717324018478
1772642679108971800,6.9509716796875,0.003392114769667387,-0.0005830589216202497,0.006134191993623972
1772642679119012900,6.961012939453125,0.004212810192257166,0.0003577824681997299,0.0038683656603097916
1772642679129055000,6.971054931640625,0.004674602299928665,-0.0006725945277139544,0.006159217096865177
1772642679139096000,6.981095947265625,0.003928854130208492,0.0005319522460922599,0.008434338495135307
1772642679149138000,6.991137939453125,0.00306492461822927,0.0009063926991075277,0.011748109012842178
1772642679159179000,7.001178955078125,0.0031053940765559673,0.001976771280169487,0.014976545237004757
1772642679169220900,7.011220947265625,0.004284375347197056,0.0020793029107153416,0.013773861341178417
1772642679179262000,7.021261962890625,0.003307594219222665,0.0007014345610514283,0.012722545303404331
1772642679189303800,7.0313037109375,0.0015480436850339174,-0.0020964823197573423,0.013053842820227146
1772642679199345000,7.041344970703125,0.002863277681171894,-0.005033681634813547,0.012061957269906998
1772642679209386000,7.051385986328125,0.0036228110548108816,-0.006824391428381205,0.015893714502453804
1772642679219427800,7.061427734375,0.0038515031337738037,-0.004665047395974398,0.01699213683605194
1772642679229469000,7.071468994140625,0.0033692046999931335,-0.0028008343651890755,0.018221717327833176
1772642679239511000,7.081510986328125,0.004259047098457813,-0.0010403769556432962,0.017834922298789024
1772642679249552100,7.09155224609375,0.0016227841842919588,0.0006901451270096004,0.014352572150528431
1772642679259594000,7.101593994140625,0.002988225780427456,0.0016936231404542923,0.012777687050402164
1772642679269635000,7.111635009765625,0.0025818273425102234,0.003060889896005392,0.010970733128488064
1772642679279676000,7.121676025390625,0.002438402036204934,0.002721443772315979,0.011711361818015575
1772642679289718000,7.131718017578125,0.0014461082173511386,0.00288416282273829,0.01107459980994463
1772642679299758800,7.1417587890625,-0.0003333249478600919,0.0017710153479129076,0.011282602325081825
1772642679309801000,7.151801025390625,0.0006073035765439272,0.0021009810734540224,0.013638168573379517
1772642679319841800,7.161841796875,0.0038838249165564775,0.0009211475262418389,0.011055455543100834
1772642679329884000,7.1718837890625,0.006285463459789753,0.0004074237949680537,0.012499420903623104
1772642679339925000,7.181925048828125,0.008531476370990276,-0.00015631539281457663,0.014830182306468487
1772642679349966000,7.191966064453125,0.00804145447909832,-0.0006535275606438518,0.017004920169711113
1772642679360008000,7.202008056640625,0.00857417844235897,-0.002495582215487957,0.01966329850256443
1772642679370049000,7.212049072265625,0.005828991532325745,-0.002215417567640543,0.01863078959286213
1772642679380091000,7.2220908203125,0.005622586235404015,-0.00448357779532671,0.01587430201470852
1772642679390132000,7.232132080078125,0.008067367598414421,-0.005813560448586941,0.015174424275755882
1772642679400173800,7.242173828125,0.006240274757146835,-0.007537425495684147,0.018332792446017265
1772642679410215000,7.25221484375,0.006263710558414459,-0.008929193019866943,0.020852673798799515
1772642679420256000,7.262256103515625,0.007999366149306297,-0.009181713685393333,0.02314365841448307
1772642679430297900,7.2722978515625,0.010894222185015678,-0.009281582199037075,0.025024382397532463
1772642679440339000,7.2823388671875,0.012316985055804253,-0.009301556274294853,0.02542930841445923
1772642679450381000,7.292381103515625,0.011786483228206635,-0.00924776028841734,0.023117683827877045
1772642679460422100,7.302422119140625,0.012054277583956718,-0.011753369122743607,0.019448110833764076
1772642679470464000,7.312464111328125,0.011713126674294472,-0.012735010124742985,0.01669600047171116
1772642679480505000,7.322505126953125,0.010966467671096325,-0.009081631898880005,0.015294388867914677
1772642679490546000,7.3325458984375,0.009265240281820297,-0.005507403984665871,0.014662953093647957
1772642679500588000,7.342588134765625,0.006161739118397236,-0.004179658368229866,0.015131399035453796
1772642679510628900,7.35262890625,0.00570394191890955,-0.0018430007621645927,0.01209007017314434
1772642679520671000,7.3626708984375,0.0035604718141257763,-0.0007978162029758096,0.008875520899891853
1772642679530711800,7.3727119140625,0.002357522025704384,-0.0006396245444193482,0.005491442047059536
1772642679540754000,7.38275390625,0.001253641676157713,-0.002283859997987747,0.006302374415099621
1772642679550794800,7.392794677734375,0.0018323465483263135,-0.0010289786150678992,0.0053556207567453384
1772642679560835800,7.4028359375,0.0000842306180857122,-0.00025916536105796695,0.009050080552697182
1772642679570878000,7.4128779296875,-0.0007978083449415863,-0.00017793901497498155,0.006672144867479801
1772642679580919000,7.4229189453125,-0.0015516194980591536,0.00025860569439828396,0.0024335761554539204
1772642679590961000,7.4329609375,-0.0021042253356426954,-0.0005267604719847441,0.00005137850530445576
1772642679601002000,7.443001953125,-0.00217746221460402,-0.000949137844145298,0.000534209655597806
1772642679611043800,7.4530439453125,-0.0010000788606703281,-0.003200574079528451,-0.0019630363676697016
1772642679621085000,7.4630849609375,-0.0004646264133043587,-0.002532815095037222,0.0002158044371753931
1772642679631126000,7.4731259765625,0.0013399315066635609,-0.0039107343181967735,0.003017449751496315
1772642679641168000,7.48316796875,0.0010587932774797082,-0.003887244500219822,0.0052651697769761086
1772642679651209000,7.493208984375,0.0042308843694627285,-0.006416981108486652,0.008534199558198452
1772642679661250800,7.503250732421875,0.00581452576443553,-0.0074457586742937565,0.010370481759309769
1772642679671292000,7.5132919921875,0.009405265562236309,-0.009871365502476692,0.010600846260786057
1772642679681334000,7.523333984375,0.011520897969603539,-0.00995115377008915,0.009610557928681374
1772642679691375000,7.533375,0.014725479297339916,-0.012154920026659966,0.00916607677936554
1772642679701417000,7.5434169921875,0.017134763300418854,-0.011625058017671108,0.00943596288561821
1772642679711457800,7.553457763671875,0.014872939325869083,-0.012432262301445007,0.010724667459726334
1772642679721498600,7.56349853515625,0.014644145965576172,-0.013678674586117268,0.009618130512535572
1772642679731540700,7.573540771484375,0.015247885137796402,-0.0147130461409688,0.009227178059518337
1772642679741581600,7.58358154296875,0.013280578888952732,-0.01445743627846241,0.00745618250221014
1772642679751623700,7.593623779296875,0.014326668344438076,-0.012908541597425938,0.0039043244905769825
1772642679761664500,7.60366455078125,0.01223879586905241,-0.010227110236883163,0.003732687793672085
1772642679771706600,7.61370654296875,0.011760491877794266,-0.007741316221654415,0.001953962491825223
1772642679781747500,7.62374755859375,0.009395139291882515,-0.0063002281822264194,-0.00010615657083690166
1772642679791788500,7.63378857421875,0.007578064221888781,-0.002935856580734253,-0.0033293806482106447
1772642679801830700,7.64383056640625,0.006242807954549789,0.0010139321675524116,-0.0017483613919466734
1772642679811871700,7.653871826171875,0.0057506556622684,0.0036251614801585674,-0.002969687106087804
1772642679821913600,7.66391357421875,0.0055107614025473595,0.007133982609957457,-0.003814453026279807
1772642679831954700,7.67395458984375,0.006405317224562168,0.00981711782515049,-0.00820680521428585
1772642679841996500,7.68399658203125,0.006860184948891401,0.014433708041906357,-0.008391894400119781
1772642679852037600,7.69403759765625,0.006531551014631987,0.013925576582551003,-0.007084548473358154
1772642679862078700,7.70407861328125,0.003457911778241396,0.011126434430480003,-0.006294638384133577
1772642679872120600,7.71412060546875,0.0030520460568368435,0.005211287178099155,-0.004758793395012617
1772642679882161700,7.72416162109375,0.0013862671330571175,0.0018331205938011408,-0.0024144176859408617
1772642679892203500,7.73420361328125,-0.0007493218290619552,0.002773749176412821,0.00022184522822499275
1772642679902244600,7.74424462890625,-0.005439176689833403,0.0021638316102325916,0.004318591207265854
1772642679912286700,7.75428662109375,-0.008699418976902962,0.005534594878554344,0.005433124024420977
1772642679922327800,7.764327880859375,-0.006130732595920563,0.005072589032351971,0.0023665991611778736
1772642679932368600,7.77436865234375,-0.0053642746061086655,0.006129597779363394,-0.002000718377530575
1772642679942410800,7.78441064453125,-0.0018758280202746391,0.002986215753480792,-0.004419128876179457
1772642679952451600,7.79445166015625,0.0037048261146992445,0.00229059811681509,-0.004880388267338276
1772642679962493700,7.80449365234375,0.007956104353070259,0.0015139668248593807,-0.004568933509290218
1772642679972534800,7.81453466796875,0.010811013169586658,-0.0004381301114335656,-0.0017222801689058542
1772642679982576600,7.82457666015625,0.011610034853219986,-0.0008405870175920427,0.0008187732892110944
1772642679992617700,7.83461767578125,0.01651131547987461,-0.003221452934667468,-0.0038942229002714157
1772642680002658600,7.844658447265625,0.017396889626979828,-0.002134404145181179,-0.013521418906748295
1772642680012700700,7.85470068359375,0.01866615191102028,-0.002654519397765398,-0.01624050736427307
1772642680022741800,7.86474169921875,0.02441933937370777,-0.004091560374945402,-0.014928476884961128
1772642680032784000,7.874783935546875,0.02676372043788433,-0.0034326945897191763,-0.012656268663704395
1772642680042824700,7.88482470703125,0.030553778633475304,-0.0011309783440083265,-0.009771822951734066
1772642680052866800,7.89486669921875,0.04073876887559891,0.007593803573399782,-0.01349838450551033
1772642680062907600,7.90490771484375,0.05054450035095215,0.01952764205634594,-0.029468819499015808
1772642680072948700,7.91494873046875,0.06587472558021545,0.023220647126436234,-0.0484267994761467
1772642680082990600,7.924990478515625,0.08514884859323502,0.03133828192949295,-0.06278683245182037
1772642680093031700,7.93503173828125,0.10245753079652786,0.050146859139204025,-0.07967101037502289
1772642680103073500,7.945073486328125,0.11755543947219849,0.0752059817314148,-0.08566257357597351
1772642680113114600,7.955114501953125,0.1250559687614441,0.10750079900026321,-0.08073785156011581
1772642680123156700,7.96515673828125,0.12393435835838318,0.13128213584423065,-0.07676707953214645
1772642680133197800,7.97519775390625,0.11765116453170776,0.14408127963542938,-0.06517993658781052
1772642680143238700,7.98523876953125,0.10360424965620041,0.1328503042459488,-0.05459524691104889
1772642680153280800,7.99528076171875,0.08411630243062973,0.11401962488889694,-0.0398424006998539
1772642680163321900,8.00532177734375,0.06291590631008148,0.10047346353530884,-0.020827800035476685
1772642680173363700,8.01536376953125,0.05088720843195915,0.08744154870510101,-0.014116368256509304
1772642680183404800,8.02540478515625,0.038727615028619766,0.07251900434494019,-0.01856210082769394
1772642680193446700,8.03544677734375,0.031921908259391785,0.06179099529981613,-0.014192122034728527
1772642680203487700,8.04548779296875,0.03732182830572128,0.05403011664748192,0.0016764169558882713
1772642680213528600,8.055528564453125,0.04420849680900574,0.04970567300915718,0.019234903156757355
1772642680223570700,8.06557080078125,0.04981168359518051,0.0427420437335968,0.027286315336823463
1772642680233611500,8.075611572265625,0.05029238387942314,0.030946902930736542,0.03141661360859871
1772642680243654000,8.08565380859375,0.04656313359737396,0.022514749318361282,0.03058810904622078
1772642680253694700,8.09569482421875,0.03908364474773407,0.0070114233531057835,0.023725144565105438
1772642680263736800,8.10573681640625,0.031766150146722794,-0.0072719622403383255,0.02087223157286644
1772642680273777700,8.115777587890625,0.02128235064446926,-0.017428725957870483,0.023078393191099167
1772642680283818800,8.12581884765625,0.011669892817735672,-0.02539253607392311,0.019999107345938683
1772642680293860600,8.135860595703125,0.0033179528545588255,-0.029508717358112335,0.008199173957109451
1772642680303901700,8.145901611328124,-0.003791162744164467,-0.03042612411081791,0.0016934729646891356
1772642680313943600,8.155943603515626,-0.014741814695298672,-0.03343762829899788,0.006106597371399403
1772642680323984600,8.165984619140625,-0.026543356478214264,-0.038264285773038864,0.02152831479907036
1772642680334026500,8.176026611328124,-0.03253387287259102,-0.043857455253601074,0.039090000092983246
1772642680344067600,8.186067626953125,-0.03634214773774147,-0.0375240333378315,0.04244678467512131
1772642680354108700,8.196108642578125,-0.0352981872856617,-0.022457199171185493,0.015194657258689404
1772642680364150800,8.20615087890625,-0.028156882151961327,-0.010361389257013798,-0.038535840809345245
1772642680374191900,8.21619189453125,-0.02112533710896969,-0.01338727306574583,-0.0747433751821518
1772642680384233700,8.226233642578125,-0.015077482908964157,-0.03129474073648453,-0.07529307901859283
1772642680394274800,8.23627490234375,-0.005509011447429657,-0.05326369032263756,-0.05119120329618454
1772642680404315600,8.246315673828125,0.00802768673747778,-0.06877361238002777,-0.016885507851839066
1772642680414357800,8.256357666015624,0.01665419712662697,-0.07102026045322418,0.014034058898687363
1772642680424398600,8.266398681640625,0.024931229650974274,-0.07170596718788147,0.027325762435793877
1772642680434440700,8.276440673828125,0.028427161276340485,-0.06692665815353394,0.034778885543346405
1772642680444481500,8.2864814453125,0.02729717455804348,-0.05958661809563637,0.03547687456011772
1772642680454523600,8.296523681640625,0.02789318934082985,-0.05494952201843262,0.03186136484146118
1772642680464564700,8.306564697265625,0.02543565258383751,-0.05165380984544754,0.027661817148327827
1772642680474606800,8.31660693359375,0.02135995216667652,-0.04520736262202263,0.02232004888355732
1772642680484647700,8.326647705078125,0.021187899634242058,-0.03741702809929848,0.017324645072221756
1772642680494688800,8.336688720703124,0.01783045195043087,-0.027037622407078743,0.018269799649715424
1772642680504730600,8.346730712890626,0.016285013407468796,-0.016027478501200676,0.03264337778091431
1772642680514771700,8.356771728515625,0.010429254733026028,-0.007802039850503206,0.04405049607157707
1772642680524813600,8.3668134765625,0.006423959042876959,0.00002600590232759714,0.04814302176237106
1772642680534854700,8.376854736328125,-0.00012502027675509453,0.010090358555316925,0.04247022047638893
1772642680544895700,8.386895751953125,-0.00454056728631258,0.017558390274643898,0.0326770655810833
1772642680554937600,8.3969375,-0.005386386997997761,0.020681746304035187,0.029609903693199158
1772642680564978700,8.406978759765625,-0.005171104334294796,0.017485370859503746,0.02744053676724434
1772642680575020800,8.417020751953125,-0.004362568724900484,0.014040570706129074,0.02817343734204769
1772642680585062000,8.427061767578126,-0.004643153864890337,0.013690843246877193,0.02894599363207817
1772642680595103700,8.437103759765625,-0.0053203958086669445,0.014480470679700375,0.028258897364139557
1772642680605144800,8.447144775390624,-0.0024441638961434364,0.017665451392531395,0.020321493968367577
1772642680615185700,8.457185546875,-0.002181309973821044,0.019839655607938766,0.014578385278582573
1772642680625227800,8.467227783203125,-0.003962394781410694,0.01937280222773552,0.013935869559645653
1772642680635268600,8.4772685546875,-0.004557877779006958,0.017014572396874428,0.020148225128650665
1772642680645310700,8.487310791015625,-0.009960567578673363,0.014351414516568184,0.020992733538150787
1772642680655351600,8.4973515625,-0.01198670081794262,0.010972129181027412,0.019588980823755264
1772642680665393700,8.5073935546875,-0.013446260243654251,0.008500822819769382,0.01800440438091755
1772642680675434500,8.5174345703125,-0.01424946915358305,0.00683102011680603,0.018085630610585213
1772642680685475600,8.5274755859375,-0.014442246407270432,0.004344690591096878,0.019030623137950897
1772642680695517700,8.537517578125,-0.013718399219214916,-0.00022795720724388957,0.019129158928990364
1772642680705558800,8.547558837890625,-0.014597555622458458,-0.005127050913870335,0.019390465691685677
1772642680715600600,8.5576005859375,-0.01557173952460289,-0.013449695892632008,0.013509939424693584
1772642680725641700,8.567641845703125,-0.015659449622035027,-0.02181926555931568,0.007054693065583706
1772642680735683800,8.577683837890625,-0.014612560160458088,-0.024794282391667366,0.004694866016507149
1772642680745725000,8.587724853515626,-0.013150153681635857,-0.02631622925400734,0.006558642257004976
1772642680755766000,8.59776611328125,-0.01196318306028843,-0.026938077062368393,0.010360837914049625
1772642680765807900,8.607807861328125,-0.012400501407682896,-0.0252361036837101,0.009460964240133762
1772642680775849000,8.617848876953126,-0.012675339356064796,-0.02393301948904991,0.0033165186177939177
1772642680785890800,8.627890869140625,-0.0107259601354599,-0.02345402166247368,-0.002051066607236862
1772642680795932000,8.637931884765624,-0.009261487983167171,-0.026880711317062378,-0.000634531257674098
1772642680805973800,8.647973876953126,-0.003180363215506077,-0.025662312284111977,0.004447063896805048
1772642680816014800,8.658014892578125,0.001647947821766138,-0.02230832725763321,0.00881065335124731
1772642680826055700,8.6680556640625,0.0023690226953476667,-0.01537415012717247,0.010670182295143604
1772642680836097800,8.678097900390625,0.0011831170413643122,-0.007504509761929512,0.007537771947681904
1772642680846138600,8.688138671875,0.0018016502726823092,-0.0025833616964519024,0.001883877208456397
1772642680856181000,8.698180908203126,0.0014162908773869276,0.001065701711922884,-0.0029854464810341597
1772642680866221800,8.708221923828125,0.005322542041540146,-0.00016515806782990694,-0.0013903442304581404
1772642680876264000,8.718263916015625,0.008841908536851406,0.003684174967929721,0.0011886609718203545
1772642680886304800,8.7283046875,0.011814207769930363,0.00866071879863739,0.001465112087316811
1772642680896345900,8.738345947265625,0.016626007854938507,0.009184562601149082,-0.000710424268618226
1772642680906387700,8.7483876953125,0.015676159411668777,0.010039702989161015,0.0007256764220073819
1772642680916428800,8.7584287109375,0.016931306570768356,0.004358914215117693,0.003829058026894927
1772642680926470700,8.768470703125,0.017453936859965324,-0.004429943393915892,0.006793959066271782
1772642680936511700,8.77851171875,0.017894957214593887,-0.008719231002032757,0.00909386482089758
1772642680946553600,8.7885537109375,0.017315249890089035,-0.01417977549135685,0.011536266654729843
1772642680956594700,8.7985947265625,0.020267629995942116,-0.015269806608557701,0.008568440563976765
1772642680966635800,8.8086357421875,0.020529521629214287,-0.01797344908118248,0.00244329497218132
1772642680976678000,8.818677978515625,0.01916598342359066,-0.02134607546031475,-0.0015240160282701254
1772642680986719000,8.828718994140624,0.019826484844088554,-0.024073420092463493,-0.00032522319816052914
1772642680996760800,8.8387607421875,0.023276876658201218,-0.028845272958278656,0.003256462048739195
1772642681006802000,8.848802001953125,0.02065252512693405,-0.02934509515762329,0.005071009509265423
1772642681016843800,8.85884375,0.01948659121990204,-0.029358144849538803,0.009539260528981686
1772642681026884900,8.868884765625,0.016836414113640785,-0.0315885916352272,0.01269420888274908
1772642681036925700,8.87892578125,0.015263285487890244,-0.027623945847153664,0.01167102251201868
1772642681046967800,8.8889677734375,0.013459592126309872,-0.025388970971107483,0.00896348524838686
1772642681057008600,8.899008544921875,0.008735677227377892,-0.025821465998888016,0.005341053940355778
1772642681067050800,8.90905078125,0.006900125183165073,-0.025676323100924492,0.0036037503741681576
1772642681077091600,8.919091552734375,0.007255923468619585,-0.02926972694694996,-0.0018714424222707748
1772642681087132700,8.929132568359375,0.00749678211286664,-0.029368633404374123,-0.003255330491811037
1772642681097174800,8.9391748046875,0.006736449431627989,-0.031000884249806404,-0.004019657615572214
1772642681107216000,8.9492158203125,0.0050624702125787735,-0.03155013918876648,-0.00394111592322588
1772642681117257700,8.9592578125,0.004407599102705717,-0.03198396787047386,-0.0034596165642142296
1772642681127298800,8.969298828125,0.0038511911407113075,-0.03195727989077568,-0.003275456838309765
1772642681137340700,8.979340576171875,0.0013081385986879468,-0.030435817316174507,-0.0011699616443365812
1772642681147381800,8.9893818359375,0.002761462703347206,-0.028913823887705803,0.0035236950498074293
1772642681157422800,8.9994228515625,0.0029137954115867615,-0.02468179538846016,0.004290685523301363
1772642681167464700,9.009464599609375,0.004583771340548992,-0.020026691257953644,0.0021715210750699043
1772642681177505800,9.019505859375,0.003784290049225092,-0.016372835263609886,0.0010540587827563286
1772642681187548000,9.0295478515625,0.004269738681614399,-0.01020218525081873,0.0033732671290636063
1772642681197589000,9.039589111328125,0.00023345177760347724,-0.007549143861979246,0.0025452901609241962
1772642681207630800,9.049630859375,-0.0011607767082750797,-0.004304083064198494,0.007754680700600147
1772642681217672000,9.059671875,-0.0019424143247306347,0.0009724375559017062,0.010872709564864635
1772642681227712800,9.069712646484374,-0.0032756109721958637,0.005492246709764004,0.010958848521113396
1772642681237755000,9.0797548828125,-0.0014159257989376783,0.009731466881930828,0.010725289583206177
1772642681247795700,9.089795654296875,-0.0012568712700158358,0.009910698980093002,0.0073859719559550285
1772642681257837800,9.099837890625,-0.0013125312980264425,0.008146354928612709,0.0029163886792957783
1772642681267878700,9.109878662109375,-0.0011079823598265648,0.005499813240021467,0.0004286097828298807
1772642681277920800,9.119920654296875,-0.0007897347095422447,0.001894159009680152,0.0013980004005134106
1772642681287961600,9.129961669921874,-0.002030235016718507,0.005449213087558746,0.001970047364011407
1772642681298002700,9.140002685546875,0.0006467744242399931,0.00991773046553135,0.0006366027519106865
1772642681308044800,9.150044921875,0.0016632210463285446,0.016707617789506912,-0.001965738832950592
1772642681318086000,9.1600859375,-0.0002316181198693812,0.019263984635472298,-0.008322171866893768
1772642681328127700,9.170127685546875,0.0010064203524962068,0.02136916294693947,-0.013791602104902267
1772642681338168800,9.1801689453125,0.0013712733052670956,0.019890043884515762,-0.017849460244178772
1772642681348210000,9.1902099609375,0.0016523203812539577,0.01750507578253746,-0.016648929566144943
1772642681358251800,9.200251708984375,0.0032859034836292267,0.015110893175005913,-0.00907276850193739
1772642681368292900,9.21029296875,0.004648569505661726,0.015807896852493286,-0.005951941013336182
1772642681378334700,9.220334716796875,0.0016650301404297352,0.01462438702583313,-0.0048299515619874
1772642681388375800,9.230375732421875,0.0006882737507112324,0.013048429042100906,-0.01353627722710371
1772642681398417700,9.240417724609374,-0.0008172111702151597,0.005273330491036177,-0.017752327024936676
1772642681408458800,9.250458740234375,0.0023531813640147448,0.0005392967723309994,-0.01524827815592289
1772642681418499600,9.26049951171875,0.0014740718761458993,-0.0020801883656531572,-0.011177903041243553
1772642681428542000,9.2705419921875,0.0008769171545282006,0.00012784451246261597,-0.0067641837522387505
1772642681438582800,9.280582763671875,-0.0028065009973943233,0.00445335078984499,0.0013427453814074397
1772642681448625000,9.290625,-0.009503276087343693,0.009199315682053566,0.005517096724361181
1772642681458665700,9.300665771484375,-0.014142769388854504,0.014655865728855133,0.009655648842453957
1772642681468707800,9.310707763671875,-0.01690695621073246,0.01860128529369831,0.006529884412884712
1772642681480003800,9.32200390625,-0.011979840695858002,0.015725070610642433,0.007355464622378349
1772642681490045000,9.332044921875,-0.01131100207567215,0.013108089566230774,0.011319584213197231
1772642681500085800,9.342085693359374,-0.006117571610957384,0.012508345767855644,0.01281228568404913
1772642681510127900,9.3521279296875,-0.004685277119278908,0.009936158545315266,0.013181006535887718
1772642681520168700,9.362168701171875,-0.006725791376084089,0.006311330012977123,0.01168910413980484
1772642681530210800,9.3722109375,-0.009288256987929344,0.007445089984685183,0.00922513846307993
1772642681540251600,9.382251708984375,-0.010577226988971233,0.0058988588862121105,0.008877329528331757
1772642681550294000,9.3922939453125,-0.010412139818072319,0.005207982379943132,0.015060133300721645
1772642681560334800,9.4023349609375,-0.008734880946576595,0.007899106480181217,0.020149432122707367
1772642681570376000,9.4123759765625,-0.006858161184936762,0.00904378853738308,0.021895555779337883
1772642681580417800,9.422417724609375,-0.005259465426206589,0.008852040395140648,0.018711745738983154
1772642681590459000,9.432458984375,-0.00400910060852766,0.00807114690542221,0.013680082745850086
1772642681600500700,9.442500732421875,-0.00034352607326582074,0.0037887839134782553,0.008914089761674404
1772642681610541800,9.452541748046874,0.0045513734221458435,-0.00013890181435272098,0.00847131572663784
1772642681620583700,9.462583740234376,0.004965494852513075,0.00038867039256729186,0.008654008619487286
1772642681630624800,9.472624755859375,0.005596644710749388,-0.0013332189992070198,0.004557312000542879
1772642681640665900,9.482665771484376,0.009365283884108067,-0.001944148214533925,0.0002810743171721697
1772642681650707700,9.492707763671875,0.010394265875220299,-0.0040520415641367435,-0.004681745078414679
1772642681660748800,9.502748779296875,0.011917327530682087,-0.0075421142391860485,-0.007491379976272583
1772642681670791000,9.512791015625,0.013062532059848309,-0.012662679888308048,-0.004980945028364658
1772642681680832000,9.52283203125,0.014677206985652447,-0.015307198278605938,-0.002159325871616602
1772642681690872800,9.532872802734374,0.014224019832909107,-0.016303330659866333,0.0010878414614126086
1772642681700915000,9.5429150390625,0.013656233437359333,-0.013836443424224854,-0.0000708999577909708
1772642681710955800,9.552955810546875,0.009524799883365631,-0.014175411313772202,-0.003995198756456375
1772642681720997600,9.56299755859375,0.008258732035756111,-0.017014073207974434,-0.0065856557339429855
1772642681731038500,9.57303857421875,0.006831351201981306,-0.01729828678071499,-0.0077120414935052395
1772642681741080600,9.58308056640625,0.0032030607108026743,-0.0200639795511961,-0.0011252453550696373
1772642681751121400,9.593121337890626,0.0008575137471780181,-0.019235733896493912,0.00551975192502141
1772642681761162500,9.60316259765625,0.00017281505279242992,-0.014844450168311596,0.004949568770825863
1772642681771204400,9.613204345703124,0.0013224183348938823,-0.0023559797555208206,0.01807338371872902
1772642681781245400,9.623245361328125,-0.014080505818128586,-0.04435669258236885,0.1389140486717224
1772642681791287300,9.633287353515625,0.0066239554435014725,-0.018769681453704834,0.05905875563621521
1772642681801328400,9.643328369140624,0.017341580241918564,-0.0198365431278944,-0.020389199256896973
1772642681811370500,9.65337060546875,0.031087055802345276,-0.01055968925356865,-0.07695142179727554
1772642681821411300,9.663411376953125,0.04159722104668617,0.005310087464749813,-0.14518825709819794
1772642681831452400,9.673452392578126,0.05175656080245972,0.030299169942736626,-0.21163411438465118
1772642681841494500,9.68349462890625,0.04215266928076744,0.05024784058332443,-0.17701275646686554
1772642681851535600,9.69353564453125,0.04259950667619705,0.027733853086829185,-0.05633893609046936
