time,seconds_elapsed,z,y,x
1772644009292692000,0.06669189453125,0.08571253633797168,0.005215396560728549,0.005099231968307867
1772644009302733000,0.076733154296875,0.09543839606046677,-0.0016313275288790464,0.00909439341854304
1772644009312774000,0.08677392578125,0.10277063864469528,0.015428126484714448,0.01180345144784078
1772644009322815000,0.09681494140625,0.09633271455168724,0.00339157866705209,0.009484196453727781
1772644009332856000,0.10685595703125,0.09693184948861598,0.0009712196523323655,-0.001864844023808837
1772644009342895900,0.116895751953125,0.09663140523731709,0.008617058230377733,0.012072103188233449
1772644009352937000,0.12693701171875,0.08301789042651653,0.011059227218106388,0.005628132946928962
1772644009362978000,0.13697802734375,0.09723346278369425,0.008944500086456537,0.004769707752997055
1772644009373019000,0.147018798828125,0.1023205567896366,0.010630663075111806,-0.007978833392076194
1772644009383060000,0.15706005859375,0.08765548709928989,-0.002202113154157996,-0.012064970194548368
1772644009393099800,0.167099853515625,0.08945055382251739,0.00828435567729175,-0.0032161399017553776
1772644009403140900,0.177140869140625,0.10366495713591575,-0.005917882274277508,-0.005577069479972124
1772644009413181700,0.187181640625,0.09348784651458263,0.003690269352681935,-0.007308423317223787
1772644009423222800,0.197222900390625,0.08316343637704848,0.02192249347269535,-0.0008355192423798143
1772644009433263900,0.207263916015625,0.09199147047698497,0.016086736523918805,-0.00037568317828699945
1772644009443304000,0.217303955078125,0.09797872819304465,0.015310601052269338,0.007187929609557614
1772644009453344800,0.2273447265625,0.09887304668426514,0.014051687032356857,0.0008173533980268985
1772644009463385900,0.2373857421875,0.10650047282278537,0.015219488702714442,0.0017645711202640085
1772644009473427000,0.247427001953125,0.09647358432710171,0.014041932823322712,0.003269267461635172
1772644009483467800,0.2574677734375,0.08809270947277545,0.015449169272743165,-0.002891465391498059
1772644009493507800,0.2675078125,0.08734510597586631,0.0065927858611568805,-0.009605183351738378
1772644009503549000,0.277548828125,0.10575053123831749,-0.0010816577568650244,-0.006088635731302201
1772644009513589800,0.28758984375,0.09422609766125678,0.00776230456456542,0.0034864264768082647
1772644009523630800,0.297630859375,0.10350421361625194,0.01553385188151151,0.008111958252452313
1772644009533672000,0.307671875,0.10619476787447929,-0.0059274538202211255,0.004518290275195613
1772644009543712000,0.3177119140625,0.09093290133476256,0.0033097456024959683,-0.009377685605641454
1772644009553752800,0.3277529296875,0.0868926860332489,0.005435578650049865,-0.010066371122701093
1772644009563794000,0.3377939453125,0.09317921895682811,0.02530084733199328,-0.004988154542958364
1772644009573835000,0.3478349609375,0.07851648735404014,0.013827961279079317,-0.009082757779676466
1772644009583875800,0.357875732421875,0.10664894138276576,0.007063764373771846,-0.0071074208524078124
1772644009593916000,0.367916015625,0.0976677625477314,0.013409918530099093,-0.005419202903984114
1772644009603957000,0.37795703125,0.09153086722791194,0.004067541699856519,0.011456318510603159
1772644009613997800,0.387997802734375,0.08674129486382007,-0.0026254896653816104,-0.001446910872682929
1772644009624039000,0.398038818359375,0.10469663827121257,-0.00546221092864871,0.009555416792724281
1772644009634080000,0.408080078125,0.08913432748019695,0.0010869549864903091,0.01113417388414964
1772644009644120000,0.4181201171875,0.0913800605803728,-0.0020942688655108213,0.015788813023269177
1772644009654161000,0.428160888671875,0.09481938737928866,0.00468052249904722,0.01120118383890949
1772644009664202000,0.438201904296875,0.09227437907159328,0.0093526790285483,-0.000300097191426903
1772644009674243000,0.4482431640625,0.08943184912204742,0.01039312799219042,0.0032698519835248586
1772644009684283000,0.458282958984375,0.09377075510919093,0.006970350469276309,-0.005268588052690029
1772644009694323700,0.46832373046875,0.08598667710423469,0.005996902327239513,0.0033120928232092408
1772644009704364800,0.47836474609375,0.08643442087173461,0.00197875272706151,0.008432111851219087
1772644009714406000,0.488406005859375,0.09526362401545047,0.01347754040621221,-0.004852600263478234
1772644009724446700,0.49844677734375,0.08778115930557251,-0.0032819077474996444,-0.010673068311577662
1772644009734487800,0.50848779296875,0.07924889328181743,-0.004986702371388673,-0.016177319150511175
1772644009744528000,0.51852783203125,0.10468611687719821,0.0016150705138221382,-0.007932373035000637
1772644009754568700,0.528568603515625,0.10962591136693954,-0.004007372477836907,0.005759321578545496
1772644009764609800,0.53860986328125,0.08957271889746189,-0.00008486527185887098,-0.002244189597060904
1772644009774651000,0.54865087890625,0.08987316314876079,0.002995199760608375,-0.005953757305257022
1772644009784691000,0.55869091796875,0.08164835563898086,0.027720877553150055,-0.0033499680150300263
1772644009794731800,0.568731689453125,0.08119827378392219,0.011133753759041428,-0.00005653422651812434
1772644009804772900,0.57877294921875,0.08344225331842899,0.013826317311264574,0.007917294196877629
1772644009814814000,0.58881396484375,0.08763035265803337,0.004921418582834303,0.00611408069981262
1772644009824854800,0.598854736328125,0.08702946415543555,0.0030132834065705535,0.00512639396986924
1772644009834894800,0.608894775390625,0.10753098491430282,0.012977701125293969,0.016712595070991664
1772644009844936000,0.61893603515625,0.09780454066991806,0.007595935021713376,0.0074475760595872995
1772644009854976800,0.628976806640625,0.09630874915421009,-0.009349025766737759,0.0017860157670918852
1772644009865017900,0.639017822265625,0.1018459250152111,0.004371456549875438,0.009463107999926432
1772644009875059000,0.649058837890625,0.09930267027318478,-0.0012031652446836232,0.006361159929214045
1772644009885099000,0.65909912109375,0.09466448907852172,0.0029668504489585757,-0.0030319972401950507
1772644009895139800,0.669139892578125,0.10124620555639266,0.01454904209524393,0.004493594225356355
1772644009905181000,0.679180908203125,0.0958592518210411,0.003473630927316844,-0.004370598033349961
1772644009915222000,0.689221923828125,0.09376549441218375,0.005570932000130415,-0.005345854539982974
1772644009925262800,0.699262939453125,0.10349076961278915,0.006241963129490613,-0.0025811573333106934
1772644009935303000,0.709302978515625,0.09556056113541125,0.006689122375100851,-0.001124528784211725
1772644009945344000,0.719343994140625,0.09346621920466422,0.004886128073744476,0.005454904405027628
1772644009955385000,0.729385009765625,0.09795359375178814,-0.002518668290041387,-0.0025555753674823788
1772644009965426000,0.739426025390625,0.10363514651954174,-0.006719590578600764,0.0053951918407343325
1772644009975467000,0.749467041015625,0.10034311923682689,0.006448737747967243,-0.00684360968391411
1772644009985506800,0.7595068359375,0.08657645969092845,0.011212627681531011,0.018325875486526637
1772644009995547600,0.769547607421875,0.09690320791602135,0.008002762256935239,0.015231882393406703
1772644010005588700,0.779588623046875,0.0913631094455719,0.004943411218933761,0.002869883747352287
1772644010015630300,0.78963037109375,0.10153963554501533,-0.004956307233124971,0.011378549699811264
1772644010025671200,0.799671142578125,0.09226035054624081,-0.0034457930723205206,0.0035394444388337433
1772644010035711000,0.8097109375,0.09884440511167049,0.0032776334311813114,0.009240112899011001
1772644010045752000,0.819751953125,0.09046177669167518,0.008473485041223467,0.0065045139226596795
1772644010055793200,0.829793212890625,0.09180851512551307,0.015360248880274593,0.0065190082388930015
1772644010065834200,0.839834228515625,0.09539981761574745,0.004736344339512288,0.00935022220998071
1772644010075875300,0.849875244140625,0.08582242645323276,0.008801292223483324,-0.000535878708679229
1772644010085915100,0.8599150390625,0.0946481224656105,0.00644318479001522,-0.0004139876283705234
1772644010095956000,0.8699560546875,0.0930009397804737,0.007992788852192461,0.002707633257191628
1772644010105997000,0.8799970703125,0.09494739767313003,0.0034784167002886533,-0.004508700462942943
1772644010116038100,0.8900380859375,0.10557049849629402,0.00262899679671973,0.00786660518925637
1772644010126079000,0.900078857421875,0.10332710348367691,0.0031934257464483378,0.002948748536687344
1772644010136119000,0.910119140625,0.09030629386901855,0.004305295978486538,-0.00020692988210357723
1772644010146160000,0.92016015625,0.10841244392395019,0.009561791734583675,0.010226594052556902
1772644010156201200,0.930201171875,0.08671499137878418,0.012115969729423522,0.0039409835775848475
1772644010166242000,0.940241943359375,0.10527005424499511,0.008972958995960652,0.0019928269181866197
1772644010176282000,0.9502822265625,0.09494505958557128,0.02153203285038471,-0.0041343689915258434
1772644010186323200,0.9603232421875,0.08536708390116692,0.015434300497174262,0.0019940416277386248
1772644010196364300,0.9703642578125,0.08626724761128425,0.007457914790511131,-0.006269682253478095
1772644010206405000,0.980405029296875,0.09330138403177261,0.011628734201751648,0.0002620210702065378
1772644010216446200,0.9904462890625,0.09614742111265659,-0.0050538493234664195,-0.003972885686345398
1772644010226486300,1.000486328125,0.08402911329567432,0.0016025763584300876,-0.0024756693985313175
1772644010236527000,1.010527099609375,0.08477788583636284,-0.002167151438631117,0.003518200721405446
1772644010246568200,1.020568115234375,0.09585223755836486,0.01068962672073394,0.0010738215102814137
1772644010256609300,1.030609375,0.10438450358211994,0.018581950873136518,-0.008321180556342005
1772644010266650000,1.040650146484375,0.08897241491675377,-0.0037017040621489285,-0.0021101422880776227
1772644010276690200,1.050690185546875,0.09944763170182705,0.01187251636236906,-0.00037503472431562836
1772644010286731300,1.060731201171875,0.0868792420297861,0.009615933074615895,-0.002102570902975276
1772644010296772400,1.0707724609375,0.0964560486704111,0.007825615591742097,-0.0006081858930643648
1772644010306813200,1.080813232421875,0.09211538911759853,-0.0026175620872527358,0.005396306085586547
1772644010316854300,1.090854248046875,0.09720072955787182,-0.006751337423734367,-0.008615350330481305
1772644010326894300,1.100894287109375,0.09121230279803276,0.0023028335822746155,0.012523847277415916
1772644010336935200,1.11093505859375,0.088069328597188,0.008121347135305405,0.013040281500108539
1772644010346976300,1.120976318359375,0.09210720581114291,0.00023373569063842294,-0.0015414390220306812
1772644010357017300,1.131017333984375,0.10153437484800815,0.010865312081202864,-0.00007700162581168115
1772644010367058200,1.14105810546875,0.10602174939513206,0.007014810665510594,-0.0009263484641443937
1772644010377098000,1.151097900390625,0.09584814590513706,0.00981032313555479,-0.005314281224785372
1772644010387139000,1.16113916015625,0.09420447035133839,0.009916961847804487,-0.0025419487009290605
1772644010397180200,1.17118017578125,0.0945043300807476,-0.0025123481471091506,0.005102510770782828
1772644010407221000,1.181220947265625,0.08791969099342822,0.003921849618852139,0.0058663347501307726
1772644010417262000,1.191261962890625,0.09016367052793502,0.004249656801111996,-0.005063174274237826
1772644010427302100,1.20130224609375,0.09509995788633822,0.005618716664612293,-0.0015593765375204384
1772644010437343200,1.21134326171875,0.08941372894346714,0.0018789456143975256,-0.0015655688162893055
1772644010447384000,1.221384033203125,0.09959142408668994,0.004068345417454838,-0.0013197499622125178
1772644010457425200,1.231425048828125,0.09121347184181212,0.003406776236183941,0.005167054773820564
1772644010467465200,1.24146533203125,0.1009393315643072,-0.011386303748004138,0.003937640843028202
1772644010477506000,1.251506103515625,0.08717267201840877,0.00135645611025393,0.010188052140455692
1772644010487547100,1.261547119140625,0.09195932177305222,0.006941745429299771,0.0018192056506406516
1772644010497588200,1.271588134765625,0.10034019662737846,0.015125453743711112,0.004233052726183086
1772644010507629000,1.281629150390625,0.09166238465309143,0.010769742752239107,0.013167652473133057
1772644010517669000,1.291669189453125,0.08133622094988822,0.003921192031726241,0.004768045518873259
1772644010527710200,1.301710205078125,0.09375731110572814,-0.00012870441358536481,0.006676619086554273
1772644010537751300,1.311751220703125,0.09450783721208572,-0.0036480011135339736,0.0027671174926217645
1772644010547792100,1.321792236328125,0.09330781377255916,0.0010735109830275176,-0.005550857326481491
1772644010557833200,1.331833251953125,0.08837035737037659,0.010181348405033349,0.00118511813133955
1772644010567873300,1.341873291015625,0.09540449379086494,-0.0006436316657811403,0.005993276464892551
1772644010577914000,1.3519140625,0.09600129064023494,0.0037333778420463202,0.012159708406450226
1772644010587955200,1.361955078125,0.09285714739561081,0.00735354110058397,0.0051990299478173255
1772644010597996300,1.371996337890625,0.09659808748960494,0.0008924553276970982,0.0007475943637546152
1772644010608037000,1.382037109375,0.10617430960834026,-0.0002897767268121242,-0.0036916301927063613
1772644010618077200,1.3920771484375,0.0898638107985258,0.007632613770291209,0.0024633305067662146
1772644010628118300,1.4021181640625,0.10048866518735886,0.016110080866888164,-0.003176419812720269
1772644010638159400,1.412159423828125,0.08148176690042018,0.008838044037297368,-0.0099848942511715
1772644010648200200,1.4222001953125,0.08162672832906245,0.007933825206570327,-0.003068292396282777
1772644010658241300,1.4322412109375,0.09988193146586417,0.010052059469558299,-0.0020473792501725257
1772644010668281000,1.442281005859375,0.09135258805155753,0.0069007558317855,0.002747901335498318
1772644010678322200,1.452322265625,0.09045534695088862,0.01705788311101496,0.01206556384959258
1772644010688363000,1.462363037109375,0.09030278673768043,0.009487886248156429,-0.004803893150389194
1772644010698404000,1.472404052734375,0.09209726893901825,0.019415296424739062,0.002359988863300532
1772644010708444200,1.482444091796875,0.08925123185813426,0.003921959216706455,-0.0005971439092420041
1772644010718485000,1.492485107421875,0.10182195961773395,0.006428316014446318,0.003912698198016732
1772644010728526000,1.502526123046875,0.08042787393331527,0.004251885290816426,0.00770718597699888
1772644010738567200,1.512567138671875,0.08566694363057613,0.009753807175345719,0.0028685868394095447
1772644010748608000,1.52260791015625,0.1143985325962305,0.02152151145637035,-0.0028024719337932766
1772644010758648000,1.53264794921875,0.10377309368550777,0.020480331840366125,0.001447869853908196
1772644010768689200,1.542689208984375,0.09060323098897934,0.0034920068342238664,-0.004833365840045735
1772644010778730200,1.552730224609375,0.09913315892517566,-0.002832994936220348,-0.004948681049095466
1772644010788771000,1.56277099609375,0.0938946737498045,0.0026095249112695453,0.0050456477507017546
1772644010798812200,1.572812255859375,0.08985445844829082,0.015572211130522191,0.006811926770862191
1772644010808852200,1.582852294921875,0.08746084131002425,0.011080708397552371,-0.002369478210853413
1772644010818893300,1.592893310546875,0.09209960702657699,-0.0035794659219682214,-0.00940176060097292
1772644010828934100,1.60293408203125,0.0840209299892187,-0.003464205511845648,0.0025217096304986624
1772644010838975200,1.612975341796875,0.08566986624002457,0.005442483314871788,0.006047299073915928
1772644010849016000,1.62301611328125,0.10362696321308612,0.0031920375069603322,0.014427534607425331
1772644010859056000,1.63305615234375,0.09779109666645526,0.00812616944089532,0.011283637957973405
1772644010869097200,1.64309716796875,0.10123217703104019,0.004560074457153678,0.00034767179335467517
1772644010879138300,1.65313818359375,0.106019995829463,0.014729951620101928,-0.004538100087363273
1772644010889179100,1.66317919921875,0.10198036504983901,0.011568199653550982,-0.0009301661227364092
1772644010899219200,1.67321923828125,0.09853577755391597,0.005914959664829075,-0.004418218301050365
1772644010909260300,1.68326025390625,0.09284954861104487,0.00518441690057516,0.003936079073604196
1772644010919301400,1.69330126953125,0.10407003080546855,-0.0026670637847855685,-0.002359879265446216
1772644010929342200,1.70334228515625,0.08162672832906245,0.006681194796971976,-0.0031018384728580713
1772644010939383300,1.71338330078125,0.09314882381856442,0.00835044318344444,-0.002264556531654671
1772644010949423000,1.723423095703125,0.09748948337137699,0.01325476450100541,-0.011096819282136856
1772644010959464200,1.733464111328125,0.09793898070454597,0.010968407129496335,-0.007442662422452122
1772644010969505000,1.743505126953125,0.08940846824645995,0.007267799045890569,-0.0007132354364264756
1772644010979546000,1.753546142578125,0.0840209299892187,0.016871968617476522,-0.0034154344666749237
1772644010989587000,1.7635869140625,0.0965916577488184,0.012368556251004338,0.0000963365139439702
1772644010999627000,1.773626953125,0.09854045372903346,0.0030260698229074476,0.003453875914076343
1772644011009668000,1.783668212890625,0.09091010498106479,0.010744023789092897,0.007244135042512789
1772644011019709200,1.793709228515625,0.08148293594419956,0.0017611279210075735,0.005159145462000742
1772644011029750000,1.80375,0.09554945521950721,0.012391937126591802,0.00915131123755127
1772644011039791000,1.813791015625,0.08238368417620659,0.006380860143527388,0.0027394805670250206
1772644011049831200,1.8238310546875,0.09614975920021533,0.003543042901717126,0.00009857413680292665
1772644011059872300,1.833872314453125,0.09749766667783259,0.0058910307999700305,-0.0009386325569823384
1772644011069913000,1.8439130859375,0.09884498963356017,0.004078501485288143,0.012353431747108698
1772644011079954200,1.8539541015625,0.09211480459570884,0.0005474778149276971,0.00004179331511259079
1772644011089995300,1.863995361328125,0.0987000282049179,0.016962788706086574,0.006195274443551897
1772644011100035000,1.87403515625,0.09585632921159266,0.0005112009251490235,-0.0009761972215492278
1772644011110076200,1.884076171875,0.09196516699194908,0.009363675346598028,-0.002338589882245287
1772644011120117200,1.8941171875,0.09824819278419017,0.0030898557741194962,-0.0025320118288043886
1772644011130158000,1.904157958984375,0.08987199410498142,-0.005843063472397625,0.003920653175609186
1772644011140198100,1.9141982421875,0.09032207596004009,0.009247866947203875,-0.004532802857737988
1772644011150239200,1.9242392578125,0.08987491671442985,0.01353654058445245,0.009975359237845987
1772644011160280300,1.9342802734375,0.08987608575820923,-0.002329648523963988,-0.0005450392626691609
1772644011170321200,1.944321044921875,0.08359247544407844,-0.001350062902085483,0.007122700619930401
1772644011180362200,1.9543623046875,0.08957973316013812,0.010990217102505266,0.000015809490485116837
1772644011190402300,1.96440234375,0.09960428356826305,0.005450630088709295,0.0004194218553137034
1772644011200443400,1.974443359375,0.09630874915421009,0.008265102987550198,-0.004236130599258467
1772644011210484200,1.984484130859375,0.10693126545548438,0.009059249039925634,0.0023523809455800802
1772644011220525300,1.994525390625,0.08702829511165619,0.0013024974333122371,0.0019180903146974741
1772644011230566100,2.004566162109375,0.0759562814772129,0.020894246403500436,0.002617434223089367
1772644011240606000,2.01460595703125,0.10019698876440525,0.00967887877561152,0.0033914325365796685
1772644011250647000,2.02464697265625,0.10228957712948322,0.01333206752091646,0.014354551569605245
1772644011260688100,2.034688232421875,0.09376198728084564,0.005356266336143016,0.0004198602467309683
1772644011270729000,2.04472900390625,0.08598316997289657,0.00974956939164549,0.0016545531408395618
1772644011280770000,2.05477001953125,0.09585866729915142,0.0039268545875325795,0.01184076038408093
1772644011290810000,2.06481005859375,0.10633213051855564,0.00637925270833075,0.0022391115631442515
1772644011300851200,2.074851318359375,0.0972054057329893,0.006503463609889149,-0.0027338088780641556
1772644011310892000,2.08489208984375,0.08658113586604595,0.00932831177227199,-0.004966645964048802
1772644011320933000,2.09493310546875,0.10618424648046493,0.0005148541869595646,-0.004569362875306978
1772644011330973200,2.10497314453125,0.08688274916112422,0.010798749651014804,0.0007595679293386638
1772644011341014300,2.11501416015625,0.09092588707208633,0.013586480673402547,0.0057940823646727944
1772644011351055000,2.12505517578125,0.08554010238051414,0.008631452081911265,0.0010732826541643588
1772644011361096200,2.13509619140625,0.07791033815443515,0.005731127530522644,0.007220589770143851
1772644011371137000,2.145136962890625,0.08988310002088547,0.021517127542197704,0.00788403124809265
1772644011381177000,2.155177001953125,0.09033259735405444,0.0053410687670111655,0.00411409338847734
1772644011391218200,2.16521826171875,0.09018354427218436,0.004877214114926755,-0.0035206666731275615
1772644011401259300,2.17525927734375,0.08405015608370303,0.006605901071056723,0.004140342074586079
1772644011411300000,2.185300048828125,0.09003507571220397,-0.005041757026873529,0.005183293522568419
1772644011421341200,2.195341064453125,0.09153203627169132,0.002823934846930206,0.007830218701623379
1772644011431381200,2.20538134765625,0.09347790964245796,0.004707264375500381,0.0011774919473100452
1772644011441422300,2.21542236328125,0.10694470945894717,0.003674523794278502,0.006725043071852997
1772644011451463200,2.225463134765625,0.09632043959200381,0.00666548577118665,0.0000014156389515846967
1772644011461504300,2.235504150390625,0.10156009381115436,0.0063107540493831035,-0.0003155778883490711
1772644011471544300,2.24554443359375,0.08794248734712601,0.009905636736191808,-0.00013802023120224475
1772644011481585200,2.255585205078125,0.09736907186210154,0.011855565227568149,-0.0002612721515353769
1772644011491626200,2.265626220703125,0.10080956770479678,0.009625029696524142,0.0035362661010585722
1772644011501667300,2.275667236328125,0.09647007719576359,0.007215228608436882,0.004459335762728006
1772644011511708200,2.285708251953125,0.09407879814505576,0.014161796343326568,0.0008476663378998636
1772644011521748000,2.295748046875,0.09033551996350288,0.009418876132555305,0.00017626074920408427
1772644011531789000,2.3057890625,0.09721651164889335,0.007072860995680093,-0.002169480393035337
1772644011541830100,2.315830078125,0.0946744259506464,0.010785269114933908,0.005263153825746849
1772644011551871000,2.32587109375,0.10559387937188149,0.014054463511332868,0.007055562801007181
1772644011561912000,2.335912109375,0.10050853893160819,0.0035096886213868855,0.0019833193043246864
1772644011571952000,2.3459521484375,0.099309684535861,0.009383622156083583,0.009047147610178217
1772644011581993200,2.3559931640625,0.11023264508843421,-0.0012186916073784232,0.0076784622060135
1772644011592034000,2.366033935546875,0.09197568838596343,0.0037486850090324877,0.002614529879949987
1772644011602075100,2.3760751953125,0.08329495380222797,0.007683613305166363,-0.0021348657373804598
1772644011612116200,2.3861162109375,0.09705927526056767,0.007560900240950286,-0.004121208115853369
1772644011622156000,2.396156005859375,0.1024473980396986,0.0037961408799514172,0.002593304428830743
1772644011632197000,2.406197021484375,0.08958031768202782,0.0028236425859853626,0.0017355733546428381
1772644011642238200,2.41623828125,0.08972820172011851,0.003302512144111097,-0.003774888029368594
1772644011652279000,2.426279052734375,0.09885843363702297,0.012087035895884037,-0.00816162434676662
1772644011662319000,2.436319091796875,0.09870587342381477,0.007999547386541963,-0.012828995103295892
1772644011672360200,2.446360107421875,0.09332067325413226,0.0006387362949550152,-0.0037423465997911986
1772644011682401300,2.4564013671875,0.0960118120342493,0.0018935586616396903,-0.0022462354236748067
1772644011692442000,2.466442138671875,0.09047463617324829,0.002638531810045242,0.0004967248752247541
1772644011702483200,2.476483154296875,0.09571487491428851,0.007667904279381036,0.0031297676593996585
1772644011712523300,2.486523193359375,0.09481997190117836,0.004740253329649567,0.005485847532562912
1772644011722564000,2.496564208984375,0.09227671715915202,0.0020436711894348263,0.007575330625101923
1772644011732605200,2.506605224609375,0.0960164882093668,0.011213540996983646,0.005162077204603701
1772644011742646300,2.516646240234375,0.0951186625868082,0.014935630260035394,0.007437310393899678
1772644011752687000,2.52668701171875,0.08793430404067039,0.0024339491486549377,-0.000813535739434883
1772644011762727200,2.53672705078125,0.08479074531793594,-0.0008196823524311184,0.0051770373117178674
1772644011772768300,2.546768310546875,0.09631167176365851,0.004612717959843576,0.006209777892939746
1772644011782809300,2.556809326171875,0.07970072870254516,0.0029832170618698,-0.001404158576345071
1772644011792850200,2.56685009765625,0.0876332752674818,0.002059453280456364,0.014272544975113122
1772644011802890000,2.576889892578125,0.0981079075306654,-0.008746347165852784,0.0008616217980161308
1772644011812931000,2.58693115234375,0.09496434880793093,-0.003168766229227185,-0.009608398222131654
1772644011822972200,2.59697216796875,0.09436462934911251,0.006738185681216418,-0.00258717608214356
1772644011833013000,2.607012939453125,0.09586275895237922,-0.001676481844857335,-0.0027685239984188226
1772644011843054000,2.61705419921875,0.10155074146091937,-0.000989120635204017,0.003522127977851778
1772644011853094100,2.62709423828125,0.09706278239190579,0.0070446943471208215,-0.009150626250961795
1772644011863135000,2.637135009765625,0.09466741168797016,0.011074936243891715,-0.004286691742716357
1772644011873176000,2.647176025390625,0.08958031768202782,0.01704221061784774,0.0003567318826448172
1772644011883217200,2.657217041015625,0.08120061187148093,-0.004925875562243163,-0.0004359985307790339
1772644011893258000,2.667258056640625,0.09855857390761374,0.015128011026978493,0.009888439006218686
1772644011903298000,2.677298095703125,0.09122691584527493,0.010307057143934071,0.009469090216141193
1772644011913339100,2.687339111328125,0.10379589003920554,-0.009721220079995692,-0.0013426741800736635
1772644011923380200,2.697380126953125,0.10274725776910781,-0.004298464378900826,-0.0013388382551725953
1772644011933421000,2.707421142578125,0.10768588321506976,0.008866649077273905,-0.006315430224500596
1772644011943461000,2.717461181640625,0.08838204780817031,0.0003531242866069078,0.00030357692330144345
1772644011953502200,2.727502197265625,0.09167115248143673,0.00676810589544475,0.0033577403295319526
1772644011963543300,2.737543212890625,0.0888268689662218,0.013846739044785498,0.00347744858590886
1772644011973584100,2.747584228515625,0.09436287578344345,0.002793795436993241,-0.0026763796024024487
1772644011983625200,2.757625244140625,0.07820259909927844,-0.003933211263082922,0.0043218817871063945
1772644011993665300,2.767665283203125,0.06922258930802346,0.016751557108201087,0.0020962598931975663
1772644012003706000,2.7777060546875,0.0903214914381504,0.018565584260225296,0.0010028477664571255
1772644012013746700,2.78774658203125,0.09570844517350197,0.0015169439015910028,0.0042799058089032765
1772644012023787800,2.797787841796875,0.08733049292862415,0.0013083061195909977,0.012363596948096528
1772644012033827600,2.80782763671875,0.08059913884699345,0.0021721198746934532,-0.005056516204588115
1772644012043868400,2.817868408203125,0.0918202055633068,0.01705510663203895,0.0061020706016104665
1772644012053909500,2.827909423828125,0.09032382952570915,0.007035597725212573,-0.008420211350871249
1772644012063950600,2.83795068359375,0.08687748846411704,0.007618731375411153,-0.00944358131554909
1772644012073991400,2.847991455078125,0.09570610708594321,0.0027203283419832587,0.002020664773182943
1772644012084031500,2.858031494140625,0.1042336969345808,0.004276910134218633,0.013355238333949818
1772644012094072600,2.868072509765625,0.08582885619401931,0.006066716160438954,-0.0013275679424870758
1772644012104113700,2.87811376953125,0.08208850062191486,-0.0005267272878438234,0.004953366357367485
1772644012114154500,2.888154541015625,0.09540683187842368,0.006332089098356664,0.003170127069251612
1772644012124195600,2.898195556640625,0.10064297896623611,0.00815466488301754,-0.0043156438425648955
1772644012134235600,2.908235595703125,0.0814893656849861,-0.0037830987352877854,0.0013219327861443161
1772644012144276700,2.91827685546875,0.0928618235707283,0.0072984864450991145,-0.010700988364964723
1772644012154317600,2.928317626953125,0.07730068182349205,0.019530885628424585,-0.009936415466945618
1772644012164358700,2.938358642578125,0.08598083188533782,0.011426453095301985,0.0009639861939474939
1772644012174398700,2.948398681640625,0.0966045172303915,-0.0011270312685519456,0.004561006038915366
1772644012184439600,2.958439453125,0.09480652789771556,0.008060483793541788,0.008619935174053534
1772644012194480600,2.968480712890625,0.09211305103003978,0.017942666588909924,0.003211966050136834
1772644012204521700,2.978521728515625,0.09959668478369713,0.008639270062185823,0.0027233240166679024
1772644012214562600,2.9885625,0.088822777312994,0.010313194623775779,0.0025063202651217577
1772644012224602600,2.9986025390625,0.09091595019996165,0.004666055582277477,-0.002856165749253705
1772644012234643700,3.008643798828125,0.08956862724423408,0.005725793768279254,-0.008229830744769424
1772644012244684800,3.018684814453125,0.0998942064255476,-0.004136953674256801,-0.0067861530087888235
1772644012254725600,3.0287255859375,0.09300912308692931,0.003244644477032125,-0.004856710183015093
1772644012264766700,3.0387666015625,0.08732230962216854,-0.002692746215313673,0.0016644534803461283
1772644012274806800,3.048806884765625,0.09630173489153385,0.0012099603116512297,0.0011039335207547992
1772644012284847600,3.05884765625,0.09765139593482017,0.0017234993243589996,0.002889236901793629
1772644012294888700,3.068888671875,0.08657938230037689,0.00959328285139054,0.0005316957239061594
1772644012304929800,3.0789296875,0.0934627120733261,0.0006054550798609852,0.009098996528424321
1772644012314969600,3.088969482421875,0.09226268863379955,0.001275755556859076,-0.005206975792255253
1772644012325010400,3.099010498046875,0.09091595019996165,-0.0006500979391857981,-0.005858571568783372
1772644012335051500,3.109051513671875,0.08223638466000556,0.004162307311221957,0.006255955122224986
1772644012345092600,3.119092529296875,0.09914309579730034,0.014096914413571356,-0.00436188500393182
1772644012355133400,3.129133544921875,0.08417933542132378,0.006007862112671136,0.0022641912054736165
1772644012365173500,3.139173583984375,0.0931581761687994,0.002225165236182511,0.009793435932835564
1772644012375214600,3.149214599609375,0.08956979628801345,0.010995112473331391,0.00102357089407742
1772644012385255700,3.159255615234375,0.09435878413021564,0.007537080973945558,0.0023958456279709935
1772644012395296500,3.169296630859375,0.08074176218807697,0.003492883617058396,0.0016404698165599257
1772644012405337600,3.179337646484375,0.09600479777157306,0.0012481734301894901,0.0007436214415356517
1772644012415377700,3.189377685546875,0.0921124665081501,0.00611691197771579,0.0009743431911803782
1772644012425418500,3.19941845703125,0.0822352156162262,0.007373086051270366,0.001545576341031119
1772644012435459600,3.20945947265625,0.08866904805600642,0.003321618703380227,0.0026631821941118686
1772644012445500700,3.219500732421875,0.10108604655861854,0.0024840719006955624,-0.0040136012892238795
1772644012455541500,3.22954150390625,0.09555003974139689,0.0008266235498711466,0.005692092428077012
1772644012465581600,3.23958154296875,0.08597498666644096,0.0022847864689305424,-0.001678810799261555
1772644012475622700,3.24962255859375,0.09645020345151424,0.0043712008215487,0.002812573202699423
1772644012485663700,3.259663818359375,0.08552607385516166,0.012169855341129004,-0.0057286433124914765
1772644012495704600,3.26970458984375,0.09390987131893634,0.008037650907225906,-0.00011976305530406533
1772644012505744600,3.27974462890625,0.08822539594173431,-0.0005364449642598629,-0.012871939195878803
1772644012515785700,3.28978564453125,0.10139584316015243,-0.00014057751446962355,0.0033813951997552064
1772644012525826800,3.299826904296875,0.10648118360042572,0.008324541557207703,-0.0012767784701660275
1772644012535867600,3.30986767578125,0.09391104036271572,0.011477123836614192,0.004412217818526551
1772644012545908700,3.31990869140625,0.0940600934445858,0.00716890524867922,0.004703812043089419
1772644012555948800,3.32994873046875,0.10214227761328219,0.006378522055968642,0.001826411709561944
1772644012565989600,3.33998974609375,0.08942658842504024,0.00012278612945228814,0.008572260107425973
1772644012576030700,3.35003076171875,0.09047931234836577,-0.0022833616968244313,0.00465537892463617
1772644012586071800,3.36007177734375,0.08075403714776039,0.012917056979238986,0.010554218571726233
1772644012596111600,3.370111572265625,0.08868541466891765,0.004266059946641326,0.011801579151162877
1772644012606152400,3.38015234375,0.09556815991997718,0.0028024171348661185,0.005474129695305601
1772644012616193500,3.390193603515625,0.0849450590968132,0.00785506088193506,0.01714856620230712
1772644012626234600,3.400234619140625,0.1018541083216667,0.0027642770815640687,-0.0048412751518655565
1772644012636275500,3.410275390625,0.09003449119031429,0.0011093129487708211,0.0011920227961614727
1772644012646315500,3.4203154296875,0.09661913027763366,0.007088789217174053,0.007733736057206988
1772644012656356600,3.430356689453125,0.09496960950493812,-0.0025400398716330526,0.004788037994131446
1772644012666397700,3.440397705078125,0.10290098702609539,0.005668145296908914,0.007484857596363872
1772644012676438500,3.4504384765625,0.09287585209608078,0.0077488240284845225,0.00012196414554491638
1772644012686479600,3.460479736328125,0.10335165340304374,0.0039700361421331765,-0.004217645094497129
1772644012696519700,3.470519775390625,0.0910842925041914,0.00885466637853533,0.0019862419137731194
1772644012706560500,3.480560546875,0.08764145857393742,0.00575560438465327,0.003456369265262037
1772644012716601600,3.4906015625,0.10021043276786804,0.008024426099471748,-0.0002939323121216148
1772644012726642700,3.500642578125,0.09931260714530944,0.009839037773385644,0.003407114162901416
1772644012736682800,3.510682861328125,0.0975152023345232,-0.004758665769174695,-0.004668128808354959
1772644012746723600,3.5207236328125,0.09870996507704258,0.009048873776383698,0.004968664391199126
1772644012756764700,3.5307646484375,0.08569324711561202,0.0055297232069075105,-0.010553131726337596
1772644012766805800,3.5408056640625,0.09886194076836109,0.0038806042930111286,0.005748434858350083
1772644012776846600,3.5508466796875,0.0940729529261589,0.009586889643222093,-0.004156270296080037
1772644012786886700,3.56088671875,0.09167699770033359,0.00009564239419996738,-0.004351528006698936
1772644012796927700,3.570927734375,0.10155307954847811,-0.005307458758354187,0.006005606223503128
1772644012806968600,3.580968505859375,0.10320026223361492,0.013802972968295215,0.0015000932314898818
1772644012817009700,3.591009765625,0.08718494697809219,0.006417392761632799,-0.007692828658083454
1772644012827050800,3.60105078125,0.0949661023736,0.012274082900583743,-0.0030787315919063984
1772644012837090800,3.6110908203125,0.09436696743667125,0.004028342200629413,-0.00421073129652068
1772644012847131600,3.621131591796875,0.10963000302016734,-0.004192702449485659,-0.01378358328123577
1772644012857172700,3.6311728515625,0.1049918218255043,0.006722622785903513,-0.009358442049054429
1772644012867213800,3.6412138671875,0.09137655344903468,0.0030934359706938264,0.0039555418258998545
1772644012877253600,3.651253662109375,0.09646540102064609,-0.001582994875125587,-0.0027851098070386794
1772644012887294500,3.66129443359375,0.10274842681288719,0.005644143366813659,0.0057403611497487865
1772644012897335600,3.67133544921875,0.09227554811537265,0.004856134794279932,0.0051335086972452695
1772644012907376600,3.681376708984375,0.09586568156182765,0.016234291768446565,0.002371085646050051
1772644012917417500,3.69141748046875,0.0939203927129507,0.00798730895947665,0.003900541969342157
1772644012927457500,3.70145751953125,0.08434124798476696,0.01461783301513642,0.01277025065338239
1772644012937498600,3.71149853515625,0.09227496359348297,0.007499233181588351,-0.006531730723148212
1772644012947539500,3.72153955078125,0.10499474443495273,0.007502155791036785,-0.007015386054245755
1772644012957580500,3.73158056640625,0.09242518571913241,0.0034802067985758183,0.00863930659480393
1772644012967621600,3.74162158203125,0.1012573114722967,0.010404562701657414,0.013710490645561367
1772644012977661700,3.75166162109375,0.08330138354301451,0.003520648406818509,0.001695013015391305
1772644012987702500,3.76170263671875,0.09766951611340045,0.0036050387546420096,-0.0004381630884017795
1772644012997743600,3.77174365234375,0.09841711961030959,0.007193966624699533,-0.004165202521206811
1772644013007784700,3.78178466796875,0.08764555022716522,0.002939560583233833,-0.003719221452530473
1772644013017824800,3.79182470703125,0.08974339928925038,0.009922295610047876,0.004403203395009041
1772644013027865600,3.801865478515625,0.09213993903696537,0.006697049953229725,0.003372892232891172
1772644013037906700,3.81190673828125,0.09483224686086177,0.01316241004243493,0.005194801297271624
1772644013047947500,3.821947509765625,0.08376257131397724,0.003356324690580368,0.005566274091321975
1772644013057988600,3.831988525390625,0.08675649243295193,-0.0005690685922279953,-0.011805195880355312
1772644013068028700,3.842028564453125,0.0936368995964527,0.0005485372608527541,0.001874579966533929
1772644013078069800,3.85206982421875,0.08720482072234154,0.009934935895912348,-0.007039524981658905
1772644013088110600,3.862110595703125,0.08915010957121848,0.00858801479898393,0.00269390612593852
1772644013098151700,3.872151611328125,0.09588204817473887,0.009667078739963472,0.0038083884401712564
1772644013108191700,3.882191650390625,0.10052022936940193,0.0024973332410678267,0.001403382258210331
1772644013118232800,3.89223291015625,0.09213876999318599,0.002107311010174453,-0.00024549919366836546
1772644013128273700,3.902273681640625,0.09782499893605709,0.004330686148069799,0.0038604930867440997
1772644013138314800,3.912314697265625,0.09542904371023178,0.001829261253774166,0.006739071597205474
1772644013148355800,3.92235595703125,0.09004033640921115,0.012785539554059505,0.011718202583491802
1772644013158395600,3.932395751953125,0.09811959796845912,0.007128719368763268,0.0066374652530997984
1772644013168436700,3.942436767578125,0.09916823023855685,0.006498531706444919,0.007542697863979265
1772644013178477800,3.952477783203125,0.09033961161673068,0.014133154770731925,-0.0038566297623794524
1772644013188518700,3.9625185546875,0.09228840759694576,-0.004972746911272407,0.004195022270735353
1772644013198559700,3.972559814453125,0.09662672906219959,0.0016210618631914257,0.010544720091018825
1772644013208599800,3.982599853515625,0.09857026434540749,0.011690620456822216,0.0018886176250409333
1772644013218641000,3.992640869140625,0.0907879399061203,-0.00009524053540080785,0.006101102487230673
1772644013228681700,4.002681640625,0.09796879132091998,0.006868241801671684,0.007097118654102086
1772644013238722800,4.012722900390625,0.1099409686654806,0.009100567431002855,0.004948032595124096
1772644013248763000,4.022762939453125,0.09153554340302944,0.004487630275450647,0.005933289905963465
1772644013258804000,4.032803955078125,0.09019114305675029,0.0015257117299363016,-0.0011575542709790169
1772644013268844800,4.0428447265625,0.09677578214406966,0.012858239464089274,0.0009883991159964352
1772644013278886000,4.052885986328125,0.0901905585348606,0.010814750937744975,-0.009982574429921806
1772644013288926700,4.0629267578125,0.0889928731828928,0.009956270944885909,0.0054057315010577435
1772644013298966500,4.072966552734375,0.09318331061005591,0.001995375068299472,0.012293417788716033
1772644013309007600,4.083007568359375,0.09752104755342006,0.005917188154533505,-0.004379603323712945
1772644013319048700,4.093048583984375,0.08510054191946982,0.003532302311994135,-0.0031851876410655677
1772644013329089500,4.103089599609375,0.09856851077973842,0.01383095695376396,0.006857884804438799
1772644013339130600,4.113130615234375,0.10066577531993388,0.013645225123316049,-0.0041434290808159855
1772644013349170700,4.123170654296875,0.08031447668671607,-0.00011025544144213199,0.003951842898316681
1772644013359211800,4.133211669921875,0.10455635301768779,0.007634842259995639,0.0017352536942344158
1772644013369252600,4.143252685546875,0.097675945854187,0.008154957143962383,0.007987719951430335
1772644013379293700,4.153293701171875,0.08091536518931389,-0.0031820275695994492,0.004725238423608243
1772644013389333800,4.163333740234375,0.09407996718883514,-0.003975296839140355,-0.012324059522151947
1772644013399374800,4.173374755859375,0.09647241528332233,0.009702990303561091,0.008165012747095897
1772644013409415700,4.183415771484375,0.09078677086234092,0.013124854511022566,-0.00412313521145843
1772644013419456800,4.193456787109375,0.07822188832163811,0.008051496769487857,0.003649873410211876
1772644013429497600,4.20349755859375,0.09827624983489512,0.011832878471724689,0.007578700759122148
1772644013439537700,4.21353759765625,0.09932488210499286,0.007268237437307834,-0.005059466213500127
1772644013449578800,4.223578857421875,0.09393968193531035,-0.0062342912796884776,0.0037318160726223138
1772644013459619800,4.233619873046875,0.08435995268523692,0.001189648175984621,0.0034336825094185767
1772644013469660700,4.24366064453125,0.08555646899342537,0.011053199336118995,0.002285836781701073
1772644013479701800,4.25370166015625,0.10381108760833739,0.006025434301979839,0.001957709939032793
1772644013489741800,4.263741943359375,0.10186521423757075,0.0051127033712342375,-0.010389730458706616
1772644013499783000,4.273782958984375,0.09797171393036842,-0.006050495678000152,0.001792582505196333
1772644013509823700,4.28382373046875,0.09363222342133522,0.007127148466184735,-0.006604841625131666
1772644013519864800,4.29386474609375,0.09378303006887435,0.005739310836978257,-0.0032989776133093983
1772644013529905000,4.30390478515625,0.08944295503795147,0.003399396647326648,0.010257180987065658
1772644013539945700,4.31394580078125,0.08046411429047584,0.006444682627357542,-0.006887384893558919
1772644013549986800,4.32398681640625,0.07552665788829326,0.008380655658617616,0.0023684644307009873
1772644013560028000,4.33402783203125,0.09467968664765357,-0.012699541771039366,0.0038585294585209338
1772644013570068700,4.34406884765625,0.09916998380422591,-0.0022627207675948737,-0.005871933373855427
1772644013580108500,4.354108642578125,0.08914309530854225,0.01391041539814323,-0.010317368475394323
1772644013590149600,4.364149658203125,0.08286240760385989,0.00048157297186553476,0.00029541188315488395
1772644013600190700,4.374190673828125,0.09812252057790756,0.006863565626554191,0.0022164613399188963
1772644013610231600,4.3842314453125,0.08929156386852263,0.005927673015929758,0.0007709113072603941
1772644013620271600,4.394271728515625,0.08958850098848342,0.011081073723733424,-0.0012823496944271027
1772644013630312700,4.404312744140625,0.08091068901419639,0.003125621207244694,0.0006001852496992796
1772644013640353800,4.414353759765625,0.0946785176038742,0.0017698226841166614,-0.0014032909266650676
1772644013650394600,4.42439453125,0.09288520444631576,0.002154986076802015,-0.005778537735668942
1772644013660435700,4.434435791015625,0.10126549477875232,0.003652750353887677,0.008994312311243265
1772644013670475800,4.444475830078125,0.08510463357269764,0.001289601419121027,0.006525830705324188
1772644013680516600,4.4545166015625,0.08944821573495865,0.005655833804607391,0.003830399342579767
1772644013690557700,4.4645576171875,0.09214110808074474,0.008929960104450583,-0.005524225047882646
1772644013700598800,4.474598876953125,0.09603168577849865,0.006375928240083158,0.001972925774473697
1772644013710639600,4.4846396484375,0.09917582902312279,0.005563808139599859,0.0023219401415437457
1772644013720679700,4.4946796875,0.0925917744576931,0.009746171858161687,-0.0028871362762525675
1772644013730720800,4.504720703125,0.09423778809905052,-0.004930296009033918,-0.003645736091211438
1772644013740761900,4.514761962890625,0.087502342364192,0.009764876558631659,-0.00040644364273175593
1772644013750802700,4.524802734375,0.08346095801889895,0.010654409276880323,-0.0046745494159869845
1772644013760842800,4.5348427734375,0.09588087913095951,0.007039616313204169,-0.0001243478988762945
1772644013770883800,4.5448837890625,0.10426175398528575,0.006566591973975301,0.005100647607259452
1772644013780924700,4.554924560546875,0.09094166916310786,0.006615618747472763,0.012178696234710514
1772644013790965800,4.5649658203125,0.08405950843393802,0.012691723790764808,0.004610215475503355
1772644013801006800,4.5750068359375,0.09513093754649161,0.0028264190649613737,0.0027714192084036765
1772644013811047000,4.585046875,0.08705109146535396,0.0067406698992475865,-0.006142210815753788
1772644013821087700,4.595087646484375,0.09348667747080326,0.0007078560084104537,-0.00032301227613352237
1772644013831128800,4.60512890625,0.09273907397389411,0.004124788312427699,0.017202789740730078
1772644013841170000,4.615169921875,0.09139292006194591,0.01039941160250455,0.0026816128999460486
1772644013851210800,4.625210693359375,0.09303776465952396,0.006407309759035706,0.007733845655061304
1772644013861250600,4.63525048828125,0.09857727860808371,0.015607209378667174,0.00427456291350536
1772644013871291600,4.645291748046875,0.08870119675993919,0.007978723794221878,0.0009629906801041215
1772644013881332700,4.655332763671875,0.09004851971566677,0.01696308096703142,0.008711202787235379
1772644013891373600,4.66537353515625,0.08780395565927028,0.011115414384752512,0.0037870990569703277
1772644013901413600,4.67541357421875,0.10022446129322052,0.0027346125956624746,-0.007163388823345303
1772644013911454700,4.685454833984375,0.09962298826873302,0.0014715703899040816,-0.0034058720538858323
1772644013921495600,4.69549560546875,0.09453823235034942,0.015907836293056605,-0.001347578684054315
1772644013931536600,4.70553662109375,0.0798778388351202,0.013395268950238823,-0.003027476328704506
1772644013941577700,4.71557763671875,0.09155191001594067,-0.006408332672342657,0.0023059845205862075
1772644013951617800,4.72561767578125,0.08960603664517403,-0.004297770259156823,0.006070963077293708
1772644013961658600,4.73565869140625,0.08511690853238105,0.00873571617398411,-0.002507644572528079
1772644013971699700,4.74569970703125,0.10008300699591637,0.011773659097775816,0.004126194818224758
1772644013981740800,4.75574072265625,0.09140577954351901,0.006303593656234443,0.003620766046736389
1772644013991780900,4.76578076171875,0.0939513723731041,0.011781367480196057,-0.0017935506195761262
1772644014001821700,4.77582177734375,0.10263035339117049,0.004755304768308997,0.009730910356948152
1772644014011862800,4.78586279296875,0.0900602101534605,-0.001775558305159211,0.003363786477828398
1772644014021903600,4.795903564453125,0.10143559064865111,0.003226305102743208,-0.01235780652812682
1772644014031944400,4.8059443359375,0.09230769681930541,0.008285159394890069,0.010293430477380752
1772644014041984500,4.815984619140625,0.09604980595707893,0.006157134390249848,0.0075931128769647326
1772644014052025600,4.826025634765625,0.1008393783211708,-0.0038850247398018833,-0.0010027655680663883
1772644014062066400,4.83606640625,0.09126432524621486,0.0014903846882283686,0.00010641951654106377
1772644014072107500,4.846107421875,0.08408347383141516,0.0008496756318956613,-0.007242810735106468
1772644014082148600,4.856148681640625,0.0918681363582611,0.0007256473934277892,0.0008601970259100198
1772644014092188700,4.866188720703125,0.09291735315024852,0.006498714369535446,0.008051021845452488
1772644014102229500,4.8762294921875,0.09471534248292446,-0.012851407864503561,-0.0042626715463120485
1772644014112270600,4.8862705078125,0.09830839853882789,0.0061302829159423705,0.0005564191732089966
1772644014122311700,4.896311767578125,0.09022913697957992,0.0019475904038175939,0.004212503128498793
1772644014132351700,4.906351806640625,0.09681143797934055,0.004678294009342789,-0.0032228984361048784
1772644014142392600,4.916392578125,0.10863222415447235,0.008568652511388063,-0.00840175324557349
1772644014152433700,4.92643359375,0.10773498305380344,0.008880568004772067,0.009030342605849728
1772644014162474800,4.936474853515625,0.10219663814902305,0.0028149478228762744,0.003303763386281207
1772644014172515600,4.946515625,0.09366846377849579,-0.0009267229234799742,0.0024748930803965776
1772644014182555600,4.9565556640625,0.08947919539511204,-0.000792209823615849,-0.0048557694680988785
1772644014192596700,4.9665966796875,0.08917758210003375,0.004330759213306009,-0.0011879768087062984
1772644014202637600,4.976637451171875,0.09725684365928172,0.004680778227373957,0.011645849733334034
1772644014212678700,4.9866787109375,0.09531155481040478,0.00423139049205929,-0.004205616729985922
1772644014222719700,4.9967197265625,0.08872750024497508,0.009752163207530975,-0.00493459772481583
1772644014232759800,5.006759765625,0.0906739581376314,-0.002233458140492439,-0.004660274295462295
1772644014242800600,5.016800537109375,0.07840367462933064,0.00614358078893274,0.001626066831871867
1772644014252841700,5.026841796875,0.1050391680985689,0.0019594635047018526,0.000556090379646048
1772644014262882800,5.0368828125,0.10324410137534142,0.0041704906176775695,0.004321315531525761
1772644014272922600,5.046922607421875,0.09830430688560009,0.007510594825819134,0.008993709523044527
1772644014282963500,5.05696337890625,0.09486439556479453,0.002073043414391577,0.006140712978411465
1772644014293004500,5.067004638671875,0.08842939408123493,0.0003137786569073796,-0.0025865458944812417
1772644014303045600,5.077045654296875,0.10115092848837375,0.010522489992901682,-0.008503313923906535
1772644014313086500,5.08708642578125,0.10189911650717258,0.0010626607954502105,-0.009760483511304482
1772644014323126500,5.09712646484375,0.08319500055909157,0.007056640513241291,0.0018740319772623478
1772644014333167600,5.107167724609375,0.09097732499837875,0.011041399300470947,0.005482660061633214
1772644014343208400,5.11720849609375,0.08723930751383305,0.0055520811691880225,0.00564965065899305
1772644014353249500,5.12724951171875,0.09098141665160656,0.010000731141120194,0.003565017271507531
1772644014363289600,5.13728955078125,0.10055822329223156,0.004018551458977162,-0.0037764041330199684
1772644014373330700,5.14733056640625,0.09577098901569843,0.0008446706632152199,-0.004680686895828694
1772644014383371500,5.15737158203125,0.09367723160684108,-0.0009719868373125791,0.0005381528641562909
1772644014393412600,5.16741259765625,0.08993453794717789,0.0018998788045719265,-0.004790239084372296
1772644014403453700,5.17745361328125,0.10040858568847179,0.00131871791575104,-0.007031241210503503
1772644014413493800,5.18749365234375,0.09038169719278812,0.012073920685984193,0.001600000808853656
1772644014423534600,5.19753466796875,0.0818517692565918,0.006553038372658193,0.0061102995738387105
1772644014433575700,5.20757568359375,0.09307692762613295,0.008615998784452676,0.012887712153745814
1772644014443616500,5.217616455078125,0.08858896855711937,0.01070602986626327,0.011179793991008772
1772644014453657600,5.22765771484375,0.10983750829100608,0.012626805328391492,-0.0019280728525947778
1772644014463697700,5.23769775390625,0.10385258866250514,-0.00013418430630117654,-0.0006791505037341267
1772644014473738800,5.24773876953125,0.09278115954995154,0.01235763299819082,-0.003784897966729477
1772644014483779600,5.257779541015625,0.09203472509682178,0.008881079461425542,-0.004421223108889535
1772644014493820700,5.267820556640625,0.09113514590859413,0.01013652288261801,0.003369083707453683
1772644014503860700,5.27786083984375,0.09786533094644546,0.016482238647527993,0.004687829022668301
1772644014513901800,5.28790185546875,0.10115560466349124,0.007528824602253735,0.00010381656750105321
1772644014523942700,5.297942626953125,0.08349778289794921,0.0038305911388248205,-0.0005650317379273474
1772644014533983700,5.307983642578125,0.10130407322347164,0.000531659191288054,0.0005503364922944456
1772644014544024800,5.31802490234375,0.08379530453979969,0.006044942720048129,0.0011263736814260481
1772644014555319600,5.329319580078125,0.08185001569092273,0.0030245354529470202,0.0022369926712941376
1772644014565360600,5.339360595703125,0.0869359406530857,0.0076926368618384,-0.0014402162704151122
1772644014575401500,5.3494013671875,0.09561492167115211,0.005874006599932909,0.0023822828934993595
1772644014585442600,5.359442626953125,0.093371526658535,0.005387136398442089,-0.0007520148105453699
1772644014595482600,5.369482666015625,0.10055237807333468,0.007781264993362128,-0.0010996226718183607
1772644014605523700,5.379523681640625,0.0984556980550289,0.0027501389583572742,-0.003915547742228955
1772644014615564500,5.389564453125,0.1012970589607954,0.008598682323470712,0.007822546851821243
1772644014625605600,5.399605712890625,0.10025193382203579,0.006891659209877252,-0.0021978297046851367
1772644014635646500,5.409646484375,0.0972580127030611,0.004074081038497388,-0.014150452965404837
1772644014645686500,5.4196865234375,0.09082476478517056,0.005224821976199746,0.00008594298409298062
1772644014655727600,5.4297275390625,0.09217208774089812,0.001169409105554223,0.006195256177242845
1772644014665768700,5.439768798828125,0.09576397475302219,0.00037986616306006905,0.005680264992965385
1772644014675809500,5.4498095703125,0.09501461769044399,0.008484298696182668,-0.002243778605107218
1772644014685850600,5.4598505859375,0.09935293915569782,0.0028400822641327975,-0.005827116984594613
1772644014695890700,5.469890625,0.09246902486085891,-0.0031224063368514177,0.010175475786672904
1772644014705931800,5.479931884765625,0.09381459425091743,0.003321655235998332,0.009633103405125439
1772644014715972600,5.48997265625,0.09950140771567821,0.004192885112576187,0.007088387358374893
1772644014726013700,5.500013671875,0.08588672386109829,0.001722293747961521,-0.0017356920856516807
1772644014736053800,5.5100537109375,0.08633739023804664,-0.004630326681770384,0.0004112750814761966
1772644014746094600,5.520094482421875,0.09022855245769024,-0.003211692055501044,0.006542389114480465
1772644014756135700,5.5301357421875,0.08439560852050781,-0.002430149756371975,0.003289250803738832
1772644014766176800,5.5401767578125,0.09187865775227547,-0.0011117241015657783,0.00821671553486958
1772644014776217600,5.550217529296875,0.08230243563354014,-0.0015694412738084791,-0.002142373190401122
1772644014786257400,5.56025732421875,0.09352876304686068,0.014638072085566818,-0.002752851505251601
1772644014796298800,5.570298828125,0.08574526956379414,0.017412249506637452,0.010254066581372172
1772644014806339800,5.58033984375,0.08050795343220234,0.004849595455639064,0.013799712432129308
1772644014816380700,5.590380615234375,0.09517536121010779,-0.006145517017692327,-0.005098939707363024
1772644014826420500,5.60042041015625,0.10295768564939499,-0.008694105521962045,0.0026089586556889113
1772644014836461600,5.610461669921875,0.08874386685788631,0.0058093803985044355,-0.0027227577610872684
1772644014846502700,5.620502685546875,0.09951835885047912,0.014154672482796013,-0.0005953538109548389
1772644014856543500,5.63054345703125,0.09652326868772507,0.003279167801141739,0.005877851657988503
1772644014866584600,5.64058447265625,0.09173544988930225,0.0031192645316943522,0.0049691119157709174
1772644014876624600,5.650624755859375,0.08709843773841858,0.004422163823805749,0.012121321757975966
1772644014886665500,5.66066552734375,0.09802081376910209,0.0011930457094684243,-0.003792725080158561
1772644014896706600,5.67070654296875,0.09862111774981021,0.0025102292552590367,-0.004453746272157878
1772644014906747600,5.68074755859375,0.09652736034095287,0.00740497902687639,0.0031948596517089754
1772644014916788500,5.69078857421875,0.10161620791256427,-0.001442563491128385,0.0076499484975822265
1772644014926829600,5.70082958984375,0.09278875833451747,0.003632693946547806,0.008034956626640633
1772644014936869600,5.71086962890625,0.08530629362463951,0.017437639676220713,-0.000370806073769927
1772644014946910700,5.72091064453125,0.08366027998328208,-0.0028831907534971834,-0.009587136238394304
1772644014956951600,5.73095166015625,0.1007213048994541,0.002891702853515744,-0.002156538713071495
1772644014966992600,5.74099267578125,0.08066986599564552,-0.0010134513588622213,0.007003220692416653
1772644014977032700,5.75103271484375,0.08006897749304771,0.003371777988038957,0.00020122166052460668
1772644014987073500,5.761073486328125,0.10311375299394131,0.0006733692169189453,0.0006064414605498313
1772644014997114600,5.771114501953125,0.09054477880001068,0.00409333372823894,0.006457953100884333
1772644015007155700,5.78115576171875,0.08919920940995216,0.011850267997942865,-0.008220834587560967
1772644015017196500,5.791196533203125,0.0841126999258995,0.006444682627357542,0.00805664786864072
1772644015027236400,5.801236328125,0.10042202969193458,0.008561857444420456,-0.0001343852357007563
1772644015037277400,5.81127734375,0.09548165068030356,-0.0008162482863292098,-0.005795342739997432
1772644015047318500,5.821318603515625,0.09443301841020584,0.0035419834557920693,0.00577538679735735
1772644015057359400,5.831359375,0.09952303502559662,0.0058619508359581225,0.00474134930819273
1772644015067399400,5.8413994140625,0.08800152405798435,0.0044825887741521,0.007155881370324641
1772644015077440500,5.8514404296875,0.10221768093705176,0.007901585171092301,-0.0031636059969197957
1772644015087481600,5.861481689453125,0.10131751722693443,0.006003989655151963,-0.0017534104054328053
1772644015097522400,5.8715224609375,0.09802548994421958,-0.001919898679293692,0.002561064393352717
1772644015107563500,5.8815634765625,0.10027063852250576,0.006316343539953232,-0.0025469719359185543
1772644015117603600,5.891603515625,0.10670739357173442,0.0017612740514799951,0.007574143315013497
1772644015127644400,5.90164453125,0.09219313052892684,0.01343061425825581,0.0005014010503422468
1772644015137685500,5.911685546875,0.10880348906815052,0.006698730453662574,-0.0038604839535895732
1772644015147726600,5.9217265625,0.10356617293655872,0.0062581470793113105,-0.0007372464996762573
1772644015157766700,5.9317666015625,0.09757949974238872,0.003161751966550946,0.001041892002057284
1772644015167807500,5.941807373046875,0.09174363319575786,0.009141264767572283,0.004627404072321951
1772644015177848600,5.9518486328125,0.09668459672927855,0.013392437672335654,0.006553385432530194
1772644015187889700,5.9618896484375,0.08501403267979621,0.003167524120211601,0.0009085662122815846
1772644015197930500,5.971930419921875,0.09429156411290168,0.010223525312636046,-0.001534470425127074
1772644015207970300,5.98197021484375,0.084117376101017,0.01675186763545498,0.011204051649430766
1772644015218011400,5.992011474609375,0.09429390220046042,-0.003929831995908171,0.011654681493761017
1772644015228052700,6.002052734375,0.09025368689894675,0.009541808392480014,-0.001371699345158413
1772644015238093600,6.012093505859375,0.09190086958408356,0.005165894863195717,0.0034104294979944824
1772644015248134700,6.022134765625,0.08771510833203792,0.008638758605532348,0.011910510285198688
1772644015258174500,6.032174560546875,0.09190905289053916,0.0020948533874005078,0.005129846302280202
1772644015268215300,6.04221533203125,0.099240710952878,-0.0021116766580380497,-0.0006407181894872337
1772644015278256400,6.05225634765625,0.0911626184374094,0.004115509027428924,-0.01203231003396213
1772644015288297500,6.06229736328125,0.09969429993927478,0.0003318075039424002,-0.002391690042661503
1772644015298337500,6.072337646484375,0.09011807782053947,-0.006395327060297131,0.004293742538010702
1772644015308378400,6.08237841796875,0.08891980794668197,-0.004245619946811348,-0.011315339137334375
1772644015318419500,6.09241943359375,0.09924187999665736,0.00902668021088466,0.00228814746979624
1772644015328460500,6.10246044921875,0.09999065253734588,-0.0025053338844329117,-0.0013197956279851495
1772644015338501400,6.11250146484375,0.09580021511018276,0.0036038514445535835,-0.003934371173707768
1772644015348541400,6.12254150390625,0.10387889214754104,-0.0011352511076256633,0.0025298746706452217
1772644015358582500,6.13258251953125,0.09429974741935729,0.006698401660099625,0.0021248923326376823
1772644015368623600,6.14262353515625,0.09818740250766277,0.009622015755530447,0.009032132704136893
1772644015378664400,6.15266455078125,0.08815992949008941,-0.0061687152301892634,0.010345754319662228
1772644015388704500,6.16270458984375,0.09055413115024566,-0.00346968540456146,0.00213689329768531
1772644015398745600,6.17274560546875,0.0860650030374527,0.008646083395462483,-0.00640902679208666
1772644015408786400,6.182786376953125,0.11046002410352229,0.00688901059506461,0.004495000731153414
1772644015418827500,6.19282763671875,0.11435118632316589,0.004903590665198862,-0.008177232907852158
1772644015428868600,6.20286865234375,0.08561959735751151,-0.0027164741507731374,-0.0028982604584656653
1772644015438908700,6.21290869140625,0.0860690946906805,0.005638097218517214,-0.0021254677213728428
1772644015448949500,6.222949462890625,0.09384966556429862,0.004929821084998548,-0.00472504662736319
1772644015458990600,6.232990478515625,0.10537409914135933,-0.0009678586514666675,0.014231491445517167
1772644015469031700,6.24303173828125,0.09938567238152027,0.003183251412305981,-0.0003054218205157667
1772644015479071700,6.25307177734375,0.09609422962069511,0.005538125709071755,0.001544663025578484
1772644015489112600,6.263112548828125,0.09864157601594924,0.011258896242361515,0.003206897149374708
1772644015499153700,6.273153564453125,0.09804536368846893,0.008030344383604823,0.0023259130637627093
1772644015509194500,6.283194580078125,0.09236030378937721,0.004382690329942852,-0.0037600192537996916
1772644015519235600,6.293235595703125,0.09685060094594955,0.009732581724226474,-0.013644640601426361
1772644015529275400,6.303275390625,0.09385551078319548,-0.0002561849844641983,-0.006371498660137876
1772644015539316500,6.31331640625,0.08098550781607627,-0.011758151001390068,0.002037396712275222
1772644015549357300,6.323357421875,0.08772212259471417,0.0012075674251653254,0.0012064531803131103
1772644015559398400,6.3333984375,0.10238543871939182,0.007524312823917716,0.009301094971783459
1772644015569438500,6.3434384765625,0.08547814306020736,0.0026900976005010306,0.0013522183265537023
1772644015579479600,6.3534794921875,0.09101590344309807,0.0016423055806197226,-0.0006784929166082293
1772644015589520400,6.363520263671875,0.09999532871246337,-0.006808328307978809,0.002806033864058554
1772644015599561500,6.3735615234375,0.11076806713938712,-0.004664210685063153,0.009683025227766484
1772644015609602600,6.3836025390625,0.09864566766917705,0.00045855742245912547,-0.001657430084515363
1772644015619642600,6.393642578125,0.09535480943024158,0.012128701346833259,0.0053068651033099734
1772644015629683500,6.403683349609375,0.09969897611439227,-0.005204674237314611,-0.008064292318979278
1772644015639724500,6.413724609375,0.09221943401396274,-0.002116754691954702,-0.002880085480958223
1772644015649765400,6.423765380859375,0.09356558792591095,0.0019235884737223386,-0.0037491781993769105
1772644015659806500,6.433806396484375,0.09147007695138454,-0.002989299742784351,-0.006898399477917701
1772644015669846500,6.443846435546875,0.09700608376860619,0.0036151034909300502,0.006551805396797135
1772644015679887600,6.4538876953125,0.10793079788684844,0.004476962750963867,0.0011790354504249989
1772644015689928400,6.463928466796875,0.09042319824695587,-0.00417076461231336,-0.00456768237487413
1772644015699969500,6.473969482421875,0.08623743699491024,0.00322246917784214,0.002061398642370477
1772644015710009600,6.484009521484375,0.08938099571764468,0.0025635668776929376,0.004053275712486357
1772644015720050700,6.49405078125,0.0943213747292757,0.00159280388308689,-0.010618789974227548
1772644015730091500,6.504091552734375,0.08938508737087249,0.002896543425414711,-0.006177126865508035
1772644015740132600,6.514132568359375,0.08938742545843124,0.00165896445447579,0.0006355122914072126
1772644015750173700,6.524173583984375,0.10330430712997912,0.00298213934963569,-0.005791853874968365
1772644015760213500,6.534213623046875,0.09687164373397826,0.0048718620863743125,0.006325001770444214
1772644015770254600,6.544254638671875,0.10660159510970114,0.0041885194647125895,0.003118908338667825
1772644015780295700,6.554295654296875,0.09328326385319233,0.008103482685051858,-0.007512110929470509
1772644015790336500,6.56433642578125,0.09478139345645904,0.011807104709651321,-0.0075483421534765505
1772644015800376300,6.574376220703125,0.08819850793480873,0.008796634314674883,0.003947522916225716
1772644015810417400,6.58441748046875,0.07383212893009185,0.0008726181160658597,-0.007238764747651293
1772644015820458500,6.59445849609375,0.0946305868089199,0.006420424968935549,-0.0037319896025583147
1772644015830499300,6.604499267578125,0.08954816897809505,0.004049567651748657,-0.005302846515318378
1772644015840539400,6.614539306640625,0.07757891424298285,-0.006315941681154072,0.0009473729858640581
1772644015850580500,6.62458056640625,0.09598667759299277,-0.005648034090641886,0.009161923963110894
1772644015860621600,6.63462158203125,0.09224982915222645,0.003951167044881731,0.010375263541936873
1772644015870662400,6.644662353515625,0.09315057738423346,0.014944251957908272,-0.0004137592995073646
1772644015880703500,6.654703369140625,0.09943477222025394,-0.0012131569157354534,0.006945891881454736
1772644015890743600,6.66474365234375,0.10092705660462378,0.003978950100950896,0.007869847459113224
1772644015900784400,6.674784423828125,0.09194646229147911,-0.009725476130004972,0.011967245441116391
1772644015910825500,6.684825439453125,0.09359189141094684,0.008546952136233448,0.00029190475181676445
1772644015920866600,6.694866455078125,0.08985153583884238,0.0018032134970650076,0.0014664740896783769
1772644015930907400,6.704907470703125,0.10646189437806605,-0.0021021233784034848,0.0002452982642687857
1772644015940947500,6.714947509765625,0.08416647593975067,0.004472286575846374,0.003699548637680709
1772644015950988500,6.724988525390625,0.08715981253683566,0.013892149089090526,0.006057290744967758
1772644015961029600,6.735029541015625,0.10137772298157215,0.002005750331841409,0.0052829910373780875
1772644015971070500,6.745070556640625,0.08641571617126464,0.006009378216322511,-0.0038697267059702423
1772644015981110500,6.755110595703125,0.09330255307555198,-0.0056038661553524435,0.007734722437895834
1772644015991151600,6.765151611328125,0.09270692526996135,-0.001775814033485949,-0.005368185102799907
1772644016001192400,6.7751923828125,0.08896832326352595,0.00037800299953669306,-0.00787193895149976
1772644016011233500,6.785233642578125,0.1024339540362358,-0.010053191980719566,-0.0021405374263413247
1772644016021275100,6.795275146484375,0.09420505487322807,-0.0001650543686002493,0.005664318505162373
1772644016031315200,6.805315185546875,0.09839607682228088,0.014316219720058143,-0.00003367394073866308
1772644016041356000,6.81535595703125,0.08358195405006408,0.013436240281444042,-0.0007940547208301722
1772644016051397000,6.825397216796875,0.09375964919328689,-0.0005667853035964071,0.00013156309095211326
1772644016061438200,6.835438232421875,0.08882160826921462,-0.0035923802024684843,-0.005204190180124715
1772644016071478000,6.84547802734375,0.0928618235707283,0.003741159289702773,-0.006080644221091643
1772644016081518800,6.855518798828125,0.10677578263282775,0.006345405237656086,-0.0024648192109540104
1772644016091560000,6.865559814453125,0.09929097983539104,0.010170260755438356,0.0018705887780059128
1772644016101600800,6.875600830078125,0.0910620806723833,0.005678337897360324,0.00015251454743556676
1772644016111641900,6.885641845703125,0.09256021027565002,0.01820613983068615,-0.0026995504154358058
1772644016121682000,6.895681884765625,0.09315992973446846,0.004233454584982246,0.00614395524826832
1772644016131723000,6.905722900390625,0.10124094485938548,0.006317658714205026,-0.004463710543746128
1772644016141763800,6.915763916015625,0.09076338998675346,0.008615359463635832,0.004296445951750502
1772644016151805000,6.925804931640625,0.10123860677182674,0.007973298700433224,-0.00808159051365219
1772644016161845000,6.935844970703125,0.08432897302508353,0.002272694172337651,0.00023397315265610814
1772644016171886000,6.945885986328125,0.08777414504289627,0.0010063457646407187,-0.0032946302317548542
1772644016181927000,6.955927001953125,0.0925654709726572,0.003750712569337338,-0.0028471147931180894
1772644016191968000,6.965968017578125,0.09361468776464461,-0.007090433184988796,0.011078288111602887
1772644016202009000,6.976009033203125,0.0886784004062414,0.007534998614713549,0.004007774336636066
1772644016212049000,6.986048828125,0.09466624264419078,0.010605090242438017,0.00969761087554507
1772644016222090000,6.996090087890625,0.10304711749851703,0.003839121505152434,0.003233109302865341
1772644016232131000,7.006131103515625,0.0834457604497671,-0.003980447938293218,-0.0037636359829921274
1772644016242172000,7.016171875,0.08643734348118305,-0.002617635152488947,0.006428864003717899
1772644016252212000,7.0262119140625,0.10080138439834117,-0.009606471126526593,0.0007576134342700242
1772644016262253000,7.036253173828125,0.08748597575128078,-0.00787133616330102,-0.010817408685712144
1772644016272294100,7.046294189453125,0.09167524413466453,0.01022968105878681,0.002855745624145493
1772644016282335000,7.0563349609375,0.08015548673272133,0.0031437231195159255,0.0036974388789851216
1772644016292376000,7.0663759765625,0.0951186625868082,0.010069101935904472,0.0008085307707544416
1772644016302416100,7.076416015625,0.08584230019748211,0.01330735320476815,-0.0046898839824367315
1772644016312457000,7.08645703125,0.09556932896375656,0.010326035839039831,0.003312512948317453
1772644016322498000,7.096498046875,0.09347498703300952,-0.002802051808685064,-0.0018821056858636437
1772644016332539100,7.1065390625,0.08928338056206703,0.006694510936271399,0.009279549860255792
1772644016342579000,7.116578857421875,0.0952665466248989,0.011404131665639578,0.0028716829787939786
1772644016352619800,7.126619873046875,0.08928045795261859,0.007359897776134312,0.0024673490947578103
1772644016362660900,7.136660888671875,0.09571487491428851,-0.004162179447058588,-0.0009933036199770867
1772644016372702000,7.146701904296875,0.09616495676934718,-0.004499357245862484,0.004131519447313621
1772644016382742800,7.15674267578125,0.10334873079359531,0.002653985107503831,0.00903309168536216
1772644016392782800,7.166782958984375,0.08928571864962577,-0.0023788762268610298,-0.00905399747607298
1772644016402824000,7.176823974609375,0.10769172843396663,0.012128354286961256,0.008270400217175483
1772644016412865000,7.186864990234375,0.10290390963554381,0.0035913755554705857,-0.004946708287717774
1772644016422905900,7.19690576171875,0.10215455257296562,0.0012378529655747116,-0.0058525254204869264
1772644016432946000,7.20694580078125,0.09931143810153006,-0.0018987462934106588,0.0044721313122194255
1772644016442987000,7.216987060546875,0.09033259735405444,-0.0035532172358594834,0.007689558988763019
1772644016453027800,7.22702783203125,0.10005845707654952,0.009141684892680496,-0.004349144253367558
1772644016463069000,7.23706884765625,0.09033376639783382,0.0013134206861257552,0.0032528460497967897
1772644016473110000,7.247110107421875,0.09990998851656913,0.0023821276298724115,0.0020450502957683053
1772644016483150000,7.257150146484375,0.09122866941094399,-0.01863386372346431,0.0071208009237889195
1772644016493191000,7.26719091796875,0.09781389302015304,-0.013457063873764127,0.007336480367928743
1772644016503232000,7.27723193359375,0.09661679219007492,-0.000410973687376827,-0.007830812356667593
1772644016513273000,7.287273193359375,0.09571545943617821,-0.010475034121982753,0.00877224879208952
1772644016523313200,7.297313232421875,0.08793430404067039,0.0018120909232646227,-0.002617900013970211
1772644016533354000,7.30735400390625,0.08958324029147624,0.0034935412041842934,-0.004847449164325371
1772644016543395000,7.31739501953125,0.10035773228406905,0.007355148535780608,-0.0000353361748624593
1772644016553436200,7.327436279296875,0.10858780049085616,-0.00594780248850584,0.006846139567717909
1772644016563477000,7.33747705078125,0.09093114776909351,0.007619809087645262,0.0001660590155981481
1772644016573517000,7.34751708984375,0.10125672695040702,-0.011119213777035473,0.010522855319082737
1772644016583558100,7.35755810546875,0.09123042297661305,0.003270454771723598,0.007241906552808359
1772644016593599000,7.367598876953125,0.09811141466200352,0.006466017676331102,-0.003933001200528815
1772644016603640000,7.37764013671875,0.08554302498996258,-0.01286726302076131,-0.002161032225098461
1772644016613679900,7.387679931640625,0.09496727141737937,-0.0058874871360138055,0.001698300951020792
1772644016623721000,7.397720947265625,0.08464169223606587,0.0020510873109102247,0.0036937856171745803
1772644016633761800,7.40776171875,0.09736147307753562,0.004127857052348554,-0.005751887190761044
1772644016643803000,7.417802978515625,0.1014016883790493,0.010824541679397224,-0.001907660252228379
1772644016653844000,7.427843994140625,0.08912965130507945,-0.014271522061806171,0.0017006755711976437
1772644016663884000,7.437884033203125,0.09017653000950812,0.004135492369532585,0.004120915854908526
1772644016673924900,7.4479248046875,0.10199906975030898,0.0007010974740609526,0.005523585727065801
1772644016683966000,7.457966064453125,0.08539046477675437,-0.004562083751149476,0.00967594703300856
1772644016694007000,7.468007080078125,0.07775894698500632,0.007899977735895663,-0.0004141337588429451
1772644016704046800,7.478046875,0.07850771952569484,0.014006240455433725,0.004812176921544596
1772644016714088000,7.488087890625,0.08659107273817061,-0.007049151326529681,0.00020900310818105936
1772644016724129000,7.49812890625,0.0985650036484003,-0.007398275291454047,0.0059729734623804685
1772644016734169900,7.508169921875,0.09976327352225779,0.0010706431725062428,0.003441792750637978
1772644016744211000,7.5182109375,0.0921340938180685,0.0057747109439224,0.0031963848885148763
1772644016754251000,7.5282509765625,0.09378478363454341,-0.00022195392129942775,-0.0008550641930662095
1772644016764292000,7.5382919921875,0.08974456833302974,0.00519150422848761,-0.0023956994974985717
1772644016774333000,7.5483330078125,0.09677519762217998,0.010182809709757566,-0.006995329646905884
1772644016784374000,7.5583740234375,0.09034253422617912,0.005030925105605274,0.0016980360895395277
1772644016794414000,7.5684140625,0.08345978897511959,0.0045533341891132294,0.0008444697338156401
1772644016804455200,7.578455078125,0.09812310509979724,0.009651570643577724,0.014230386333819478
1772644016814496000,7.58849609375,0.10500468130707741,-0.004988273273967206,0.0026301201747264713
1772644016824537000,7.598537109375,0.09183540313243865,0.00458445997973904,-0.0035729722490999843
1772644016834578000,7.608577880859375,0.08659867152273655,0.009688084995374083,0.0029484288762789217
1772644016844618000,7.618617919921875,0.09063596421480179,-0.0017667904768139122,-0.011376695669442414
1772644016854659000,7.6286591796875,0.09048574208915233,0.0031589206886477768,-0.0008062474821228533
1772644016864700200,7.6387001953125,0.10140928716361522,-0.0035827721239067613,-0.0018432806459721177
1772644016874741000,7.648740966796875,0.09587152678072453,0.0030161512170918284,0.003012726284144446
1772644016884782000,7.658781982421875,0.0838993494361639,0.003027275399304926,0.0097805216523353
1772644016894822000,7.66882177734375,0.0747714556068182,0.0004861760817468166,0.015779451539879665
1772644016904863000,7.678863037109375,0.09048574208915233,0.002222041697334498,0.0016553751247469334
1772644016914904000,7.688904052734375,0.0895890855103731,0.005363828588090837,-0.002742594972718507
1772644016924945200,7.698945068359375,0.09991466469168662,0.005679854001011699,0.0010591353978030382
1772644016934985000,7.70898486328125,0.0853980635613203,0.011717873789928853,0.0015210812205914408
1772644016945026000,7.719026123046875,0.09691957452893256,0.005747749871760606,-0.00028826062316074965
1772644016955067000,7.72906689453125,0.09183189600110053,0.0027699396373704072,0.003150591251719743
1772644016965108000,7.73910791015625,0.08824117803275584,-0.0027826529884710906,0.0028099519873503592
1772644016975148800,7.749148681640625,0.08480126671195029,0.0006198123987764119,0.00713497557961382
1772644016985188900,7.75918896484375,0.09437748883068561,-0.005205843281093985,0.007742421687161549
1772644016995230000,7.76922998046875,0.10395078833997248,0.0010312610101886094,0.0013279972007498144
1772644017005271000,7.77927099609375,0.09766367089450359,0.0008122114320285618,0.008074959843466059
1772644017015312000,7.789311767578125,0.08718611602187157,-0.000016457944456487893,0.0016696137126535177
1772644017025352000,7.79935205078125,0.09391688558161258,-0.003228387461975217,0.009490973254386335
1772644017035393000,7.80939306640625,0.07955226014256477,-0.009079177583102137,0.013995052341138943
1772644017045434000,7.81943408203125,0.08778291287124157,-0.0011988726620562374,0.009115591470198706
1772644017055475000,7.829474853515625,0.09885609554946422,-0.008842208755761385,0.002254729257384315
1772644017065516000,7.83951611328125,0.07880290307998657,0.0004872355276718735,0.01677415253249928
1772644017075556000,7.84955615234375,0.09825637609064579,0.004197287293057889,0.006475963681610301
1772644017085597000,7.859596923828125,0.08344400688409805,0.007279325086902827,-0.007292586427275091
1772644017095638000,7.869637939453125,0.0931710356503725,0.005621694072987884,-0.004150671672355383
1772644017105679000,7.87967919921875,0.09676409170627594,-0.004591529041342437,0.008825266754115
1772644017115719200,7.88971923828125,0.09122457775771617,0.007181910860724746,-0.0003274875218514353
1772644017125760000,7.899760009765625,0.08763269074559212,0.010223379182163626,0.0003612710604444146
1772644017135801000,7.909801025390625,0.0808931533575058,-0.0006815890559926629,0.010120302400179207
1772644017145842200,7.91984228515625,0.10782675299048423,0.006394888668879866,0.007856138594169169
1772644017155883000,7.929883056640625,0.09869769011735915,0.0008916333437897265,0.01343636814560741
1772644017165922800,7.9399228515625,0.09091595019996165,0.009129811791796236,0.008961076761921868
1772644017175964200,7.949964111328125,0.09046703738868236,-0.002980239653494209,0.004122395425941795
1772644017186005000,7.9600048828125,0.09330956733822822,-0.01102737077511847,0.0015620799512602388
1772644017196046000,7.970046142578125,0.09615385085344313,0.0006052724167704582,-0.0033485706423874943
1772644017206086000,7.9800859375,0.09390987131893634,0.007177892272733151,-0.016714567832369357
1772644017216127000,7.990126953125,0.09421031557023525,-0.0025841347416862845,-0.005208564961142838
1772644017226167800,8.000167724609375,0.09735036716163158,0.0013939203101210294,-0.006126556588895619
1772644017236209000,8.010208984375,0.10138824437558651,-0.0004433963859453797,-0.0035064280852209776
1772644017246250000,8.02025,0.08702595702409743,0.004454823984391987,0.002509224608261138
1772644017256290000,8.0302900390625,0.09331248994767666,0.007719670999236404,0.002166612582514062
1772644017266331000,8.040330810546875,0.10273965898454189,0.0024724545281380413,0.00769709384124726
1772644017276372000,8.0503720703125,0.0928618235707283,0.007780242080055177,-0.004459061768092215
1772644017286413000,8.0604130859375,0.08972001841366291,0.0029781024953350423,0.0027084187084808944
1772644017296453000,8.070453125,0.09031739978492259,-0.000242795779928565,0.006214983791019767
1772644017306494000,8.080493896484375,0.0977981109291315,-0.013224204965960233,0.0063919477931223805
1772644017316535000,8.09053515625,0.09495558097958565,0.009358250252809374,0.013270272597391157
1772644017326575900,8.100575927734376,0.09390987131893634,0.003947915641870349,-0.004606863607792184
1772644017336617000,8.110616943359375,0.10632979243099688,0.0005152012468315661,-0.0007444708249066025
1772644017346657000,8.120656982421876,0.09525485618710518,0.01882843644749373,-0.0010771459785290061
1772644017356698000,8.130697998046875,0.09735036716163158,-0.007085592613089829,0.006904125965805724
1772644017366739000,8.140739013671874,0.09435527699887752,-0.00013661372540518641,0.0058434013991151
1772644017376780000,8.150780029296875,0.09929214887917041,0.0006597060177475214,-0.00045706871827133
1772644017386820000,8.160820068359374,0.100189974501729,0.00263054943298921,-0.004561891954904422
1772644017396861200,8.170861083984375,0.09166355369687079,-0.0026782975648529826,-0.0028158063394017516
1772644017406902000,8.180902099609375,0.09944354004859923,0.0009531177400611341,-0.0023630302037578074
1772644017416943000,8.190943115234376,0.09839549230039119,0.010258907153271138,-0.0028167653206270186
1772644017426984200,8.200984130859375,0.08447802610695361,0.009686678489577025,-0.01640478949714452
1772644017437024000,8.21102392578125,0.08657295255959034,-0.001698584078811109,0.0005013462514150888
1772644017447065000,8.221065185546875,0.09091244306862353,0.001314114805869758,0.00749520546044223
1772644017457106200,8.231106201171874,0.09225742793679237,-0.004151767650898546,0.005845575089892372
1772644017467147000,8.24114697265625,0.0941992096543312,-0.0031756343614310024,-0.0027570984221063554
1772644017477188000,8.25118798828125,0.09030687839090823,0.002385123304557055,-0.011845153431408106
1772644017487228000,8.261227783203125,0.083276249101758,0.004443754601106047,0.010095259290467947
1772644017497269000,8.27126904296875,0.0909054288059473,0.004960983408242464,0.010557908366154879
1772644017507309800,8.281309814453126,0.0846177268385887,0.010859941786341368,0.0025577125256415457
1772644017517351000,8.291350830078125,0.09194996942281722,-0.0030685937903821466,0.004524190293019637
1772644017527391000,8.301390869140626,0.10002923098206519,-0.004724124178756028,0.004736673133075237
1772644017537432000,8.31143212890625,0.09209726893901825,0.0037102892274037003,-0.006194406793871894
1772644017547473000,8.321472900390624,0.09464052368104457,0.0016458492445759474,-0.0038427565006539225
1772644017557514000,8.331513916015625,0.09075053050518035,0.012428889869805424,0.00462257263357751
1772644017567555000,8.34155517578125,0.09119885879456996,-0.006227697142120451,0.016364028228493407
1772644017577595000,8.351594970703125,0.11274901182353496,0.0019781499388627707,-0.010515238268207758
1772644017587636000,8.361635986328125,0.10407119984924793,0.00823547503426671,0.0014145703725051133
1772644017597677000,8.371677001953126,0.09599076924622059,0.02112231953833252,0.0025712295943405477
1772644017607718000,8.3817177734375,0.08880933330953121,-0.0012101064421236513,0.012902617461932822
1772644017617758000,8.391758056640626,0.09269815744161605,-0.004148808508832007,0.0057238849389832465
1772644017627799000,8.401799072265625,0.09598843115866183,0.006366338427830487,0.010685626399051398
1772644017637840100,8.411840087890624,0.09165127873718738,-0.0023528650027699765,-0.0083624898142647
1772644017647881000,8.421880859375,0.09135258805155753,0.0013865407212637364,-0.0004867606036365032
1772644017657922000,8.431922119140625,0.09494330601990222,0.00020021701352670787,-0.005237745389854535
1772644017667962000,8.441962158203125,0.09030570934712887,0.002273004699591547,-0.004838416474498808
1772644017678003200,8.452003173828125,0.09075462215840815,-0.0018969561951234935,-0.001906573406839743
1772644017688044000,8.4620439453125,0.09554361000061035,-0.0014389284956268966,-0.0007873327190987766
1772644017698085000,8.472085205078125,0.10616963343322276,-0.007173471825942397,-0.009183523873565719
1772644017708125200,8.482125244140626,0.08042962749898433,0.006071574998646974,0.006104710083268582
1772644017718166000,8.492166015625,0.0864133780837059,-0.008424805327598005,0.006313640126213431
1772644017728207000,8.50220703125,0.08506488608419895,0.005246138758864254,0.00004661562070250511
1772644017738248200,8.512248291015625,0.07788052753806114,0.005159574720263481,0.0003200987998396158
1772644017748289000,8.5222890625,0.08805530007183551,0.01220169351780787,0.007381881279079243
1772644017758328800,8.532328857421875,0.09403963517844677,0.016723445258568972,0.010097250318154692
1772644017768370000,8.542369873046875,0.0896983911037445,-0.000603975508827716,-0.0022755528497043994
1772644017778411000,8.552410888671876,0.09987199459373951,0.001248063832335174,0.012523189690290018
1772644017788451800,8.562451904296875,0.10316285283267497,-0.0051633193136192855,-0.00556040147296153
1772644017798492000,8.572491943359376,0.0941857656508684,0.006959664678480476,0.014104622795991598
1772644017808533000,8.582532958984375,0.09253975200951099,0.01220081673497334,0.00019029840771108864
1772644017818573800,8.59257373046875,0.10660159510970114,0.008577456872351468,0.0029308749532792715
1772644017828615000,8.602614990234375,0.10435761557519435,0.00825525744697079,0.0029108642117120324
1772644017838656000,8.612656005859375,0.08535422441959381,0.0006386266971006989,0.0016591014517936854
1772644017848696000,8.622696044921875,0.08759528134465216,-0.002870532201323658,-0.004129427954927087
1772644017858737000,8.63273681640625,0.09477788632512092,-0.0010681954870931803,0.0007897621382027864
1772644017868778000,8.642778076171876,0.088940266212821,0.006076415570545941,-0.00799905419619754
1772644017878819000,8.652819091796875,0.09298048151433468,-0.003457520042732358,-0.00538575729210861
1772644017888860000,8.66285986328125,0.1054015716701746,0.01024623033478856,-0.002505443482287228
1772644017898900000,8.67289990234375,0.10195990678369998,0.006620696781389415,-0.0036239443845115598
1772644017908941000,8.682941162109374,0.10121054972112178,0.0007970686618238687,0.008250681736553087
1772644017918982100,8.692982177734375,0.10195990678369998,0.001664133819937706,0.0003122077543288469
1772644017929023000,8.70302294921875,0.09103753075301646,0.00975820935582742,0.0010868545217905194
1772644017939063000,8.71306298828125,0.09702245038151741,0.0033538770051673053,-0.009245382729172706
1772644017949104000,8.723104248046875,0.10420505536198615,0.002432067718822509,0.001549403132777661
1772644017959145000,8.73314501953125,0.1013619408905506,0.009024141193926334,-0.005199002548353746
1772644017969186000,8.74318603515625,0.09148410547673702,-0.009309661870729178,-0.005233699402399361
1772644017979227100,8.75322705078125,0.10121054972112178,0.011338628681376577,0.000022969883633777497
1772644017989267200,8.76326708984375,0.09462357254624366,-0.006962185429129749,-0.0022363624836318195
1772644017999308000,8.77330810546875,0.0946218189805746,0.0007312368839979171,-0.009579272592347114
1772644018009349000,8.78334912109375,0.09611819501817226,0.011822850268054753,-0.0008129877501633017
1772644018019390200,8.79339013671875,0.09552081364691258,0.0010223287850618362,-0.0039563090108800675
1772644018029430300,8.80343017578125,0.10210136108100414,-0.0006866305572912096,0.005948743203422055
1772644018039471000,8.81347119140625,0.09791033913195132,0.0014362616145052016,0.001938146722037345
1772644018049512200,8.82351220703125,0.09895838688015937,-0.0008241575981490313,-0.0024215280584990975
1772644018059553000,8.833552978515625,0.09940846873521804,0.00723837202200666,0.004437754118582234
1772644018069594000,8.843593994140624,0.08893325195014476,0.0042426608047448095,-0.0009213708949275314
1772644018079634200,8.85363427734375,0.0890799669444561,-0.00006526552224531769,0.007469459097832441
1772644018089675300,8.86367529296875,0.09955459920763969,0.0021860753348097203,-0.0022590127068571747
1772644018099716000,8.873716064453125,0.09805880769193172,0.001987082163989544,0.0025892584413755686
1772644018109757200,8.883757080078125,0.08803484180569648,-0.002751581996772438,-0.0006173373138997704
1772644018119798300,8.89379833984375,0.0914759221702814,0.001594977573864162,0.009292984730564058
1772644018129838300,8.90383837890625,0.09521686226427555,-0.008132690513227134,0.010659176783543079
1772644018139879200,8.913879150390626,0.0940203459560871,0.006087667616922408,-0.0037773265816271303
1772644018149920300,8.923920166015625,0.09357084862291812,0.006426288454141467,0.0033771848155185577
1772644018159961300,8.93396142578125,0.08055003900825977,-0.00038598537659272547,-0.011723198419017717
1772644018170001200,8.944001220703125,0.08787935898303985,0.008812927862349896,-0.0002982248947490007
1772644018180042200,8.954042236328124,0.09850304432809352,0.0014851057249121366,0.001507555018737912
1772644018190083300,8.964083251953125,0.10149696544706821,0.003384929730556905,0.0006307813173625618
1772644018200124200,8.974124267578125,0.10538871218860149,-0.005654372499883174,-0.0020140432361513377
1772644018210165200,8.984165283203126,0.10029869557321071,0.0008708097514696419,-0.0021947152989916503
1772644018220205000,8.994205078125,0.10119827476143836,0.0021636077746748925,-0.01640168422460556
1772644018230246100,9.00424609375,0.10688450370430946,0.003180383601784706,0.00040491840592585504
1772644018240287000,9.014286865234375,0.0979074165225029,0.0070152490569278594,0.0024018552436493334
1772644018250328000,9.024328125,0.09521335513293742,-0.009900065511930733,0.004559489935263991
1772644018260369200,9.034369140625,0.08818155680000782,0.0009846271231770515,-0.01054147782116197
1772644018270409200,9.0444091796875,0.08503858259916305,0.006989183033909648,-0.005456493573915213
1772644018280450000,9.054449951171875,0.0928185689508915,0.0016256832393817602,0.004288710169866681
1772644018290491100,9.0644912109375,0.09281681538522243,0.010782127309776842,0.00032661987217143175
1772644018300532200,9.0745322265625,0.08787818993926048,-9.31581761687994e-7,0.0032274741465225815
1772644018310572000,9.084572021484375,0.09491641801297664,-0.013741305908933282,0.002703212810400873
1772644018320613000,9.094613037109376,0.0973100351512432,-0.004719959460292011,0.00009374269805848599
1772644018330654200,9.104654296875,0.10509119054675102,0.006051609922852367,0.011455743121868
1772644018340695000,9.114695068359374,0.08953063332140446,0.004346742233727127,0.0013053469775244594
1772644018350736100,9.124736083984375,0.09162555977404117,-0.001527300898823887,0.0012138327691704033
1772644018360776200,9.134776123046874,0.09177402833402157,0.012723835962079464,0.012479058287618682
1772644018370817300,9.1448173828125,0.10015314962267875,0.006452957265358418,-0.01431657591308467
1772644018380858000,9.154858154296875,0.10344634594917297,0.007038684731442481,0.0019263101537711916
1772644018390899200,9.164899169921876,0.09955635277330875,0.007013532023876905,0.006720832687616348
1772644018400940300,9.174940185546875,0.10090367572903633,0.006855491917952895,-0.00015903561976738273
1772644018410980400,9.18498046875,0.09117489339709281,0.0030513503946363926,-0.000516105429129675
1772644018421021200,9.195021240234375,0.08638765912055969,0.005433076165709644,0.010824167220061645
1772644018431062300,9.205062255859374,0.09506839370429515,-0.000600249181780964,-0.0017494740158319473
1772644018441103000,9.21510302734375,0.10285071814358233,0.0013003420088440179,-0.010745530759589747
1772644018451144200,9.225144287109375,0.0980640683889389,0.00892353036366403,-0.004396189132332802
1772644018461184300,9.235184326171876,0.10659224275946616,0.007021514400932937,-0.006800218066759407
1772644018471225300,9.245225341796875,0.10075754525661468,-0.0061498826655559235,-0.0032899083908647297
1772644018481266200,9.25526611328125,0.09911270065903663,0.0021826960676349697,0.003920808439236134
1772644018491307300,9.265307373046875,0.09911445422470569,0.005997048457711935,-0.0029476982239168134
1772644018501347000,9.27534716796875,0.08849018435776233,-0.00505715552540496,-0.0018049487964250147
1772644018511388200,9.28538818359375,0.09716858085393905,0.0020087642728351053,0.0029531507171690462
1772644018521429000,9.295428955078124,0.09372808501124381,0.011155728128831833,-0.00028514621746726334
1772644018531470000,9.305469970703125,0.09986147319972515,-0.002363331597857177,0.0024298392291180787
1772644018541511200,9.31551123046875,0.08474924426376819,-0.004483575154840946,-0.00162821312318556
1772644018560337200,9.334337158203125,0.09507657701075077,-0.0006559796907007694,0.0071545022639911615
1772644018570378000,9.3443779296875,0.09238017753362655,0.016329678434319792,-0.002355248756101355
1772644018580418000,9.35441796875,0.09716916537582873,0.005382460223324596,0.0002006006060168147
1772644018590459100,9.364459228515624,0.09028875821232796,0.014259484564140439,-0.010132029370591045
1772644018600500200,9.374500244140625,0.0901426277399063,-0.002025441413000226,-0.002322131937788799
1772644018610541000,9.384541015625,0.10046820692121981,-0.0017584427735768257,0.0004289386023301631
1772644018620582100,9.39458203125,0.08445932140648364,0.009546027909871191,-0.0028733086802996692
1772644018630622200,9.404622314453125,0.09867547828555107,0.004275083503313362,-0.004663443500082939
1772644018640663000,9.4146630859375,0.09837561855614185,0.008475439536292106,-0.0017853307805024087
1772644018650704100,9.4247041015625,0.10825111588239669,-0.0014029438667930662,-0.01579008253174834
1772644018660745200,9.4347451171875,0.10391162537336349,0.013111246110778301,0.001096005942625925
1772644018670786000,9.4447861328125,0.09358604619204998,0.0020439634503796695,-0.002586746823880821
1772644018680826000,9.454826171875,0.09343465502262115,-0.0019464213600382209,0.008328742808289826
1772644018690867200,9.4648671875,0.09268705152571201,0.0016284779846668243,0.006682016780879348
1772644018700908300,9.474908203125,0.08984452157616615,-0.0007879720399156212,-0.002732603301666677
1772644018710949000,9.48494921875,0.09178922590315342,0.013893683459050952,-0.003175232502631843
1772644018720989200,9.4949892578125,0.09193827898502349,0.006709580641239881,0.003734282024344429
1772644018731030300,9.5050302734375,0.10001870958805084,0.0029590507349930703,0.0025084848227445037
1772644018741071000,9.515071044921875,0.1151303540021181,0.00443823817577213,0.011604357812320812
1772644018751112200,9.5251123046875,0.0983691888153553,0.0014399696752429008,-0.0014663005597423762
1772644018761153300,9.5351533203125,0.0916372502118349,0.008164948815014212,-0.006789358746027574
1772644018771193300,9.545193359375,0.09851999546289443,0.0033826829745434222,-0.0012455887474585323
1772644018781234200,9.555234130859375,0.09328209480941295,0.013981306943576782,-0.0020223178741522133
1772644018791275300,9.565275146484375,0.09223346253931522,0.013934746121801435,-0.0013685758063104003
1772644018801316400,9.57531640625,0.09477671728134154,0.007584664709027856,0.006907669629761949
1772644018811357200,9.585357177734375,0.10495148981511593,0.0014365538754500448,0.004564047379372641
1772644018821397000,9.59539697265625,0.0973188029795885,0.0011659933057613671,0.005510872375965118
