time,seconds_elapsed,z,y,x
1772644009292692000,0.06669189453125,-0.0020520624238997698,0.00009085389319807291,0.0004804232157766819
1772644009302733000,0.076733154296875,0.0014623042661696672,-0.0002236763248220086,-0.000369194895029068
1772644009312774000,0.08677392578125,0.00008225423516705632,-0.0002345952671021223,-0.0003058116417378187
1772644009322815000,0.09681494140625,-0.00117386388592422,0.00014633970567956567,0.0024626064114272594
1772644009332856000,0.10685595703125,-0.0010039540939033031,-0.00013781955931335688,0.000040727900341153145
1772644009342895900,0.116895751953125,-0.0012779335957020521,0.0012053423561155796,-0.0014931375626474619
1772644009352937000,0.12693701171875,0.0014211800880730152,-0.0004189196042716503,-0.00013652327470481396
1772644009362978000,0.13697802734375,-0.00031753419898450375,-0.0009270691662095487,-0.0005207802169024944
1772644009373019000,0.147018798828125,0.0010752989910542965,0.00032568181632086635,-0.0008004119154065847
1772644009383060000,0.15706005859375,-0.0009450702928006649,0.00031696748919785023,0.0008718098979443312
1772644009393099800,0.167099853515625,0.0005359135684557259,0.0003254896146245301,0.0013541083317250013
1772644009403140900,0.177140869140625,-0.00045258563477545977,-0.00010123668471351266,-0.001647046534344554
1772644009413181700,0.187181640625,-0.00016895891167223454,-0.0004008422838523984,-0.0004891040734946728
1772644009423222800,0.197222900390625,-0.002156570553779602,-0.0008199066505767405,0.0010778546566143632
1772644009433263900,0.207263916015625,-0.00011126295430585742,0.000049082853365689516,0.000535635044798255
1772644009443304000,0.217303955078125,-0.0003351073246449232,0.0006787581951357424,0.0009609134867787361
1772644009453344800,0.2273447265625,0.0006071190000511706,-0.0007449677214026451,0.002471192041411996
1772644009463385900,0.2373857421875,0.0008059224346652627,0.00021474430104717612,0.001027000485919416
1772644009473427000,0.247427001953125,0.0006887433701194823,0.00041900877840816975,0.0011191458906978369
1772644009483467800,0.2574677734375,-0.0005332626169547439,-0.0007638063398189843,-0.00026305345818400383
1772644009493507800,0.2675078125,0.0013932681176811457,-0.0003233195166103542,-0.0008023434784263372
1772644009503549000,0.277548828125,0.0003691327292472124,-0.0016975334146991372,0.0004992969334125519
1772644009513589800,0.28758984375,-0.0003192944568581879,-0.0012575791915878654,0.0011885231360793114
1772644009523630800,0.297630859375,-0.0006206553662195802,0.0008156253024935722,0.0011682806070894003
1772644009533672000,0.307671875,-0.00010666530579328537,0.0005213459953665733,-0.0008629122748970985
1772644009543712000,0.3177119140625,0.0004250782076269388,0.0004676897660829127,0.0006924180779606104
1772644009553752800,0.3277529296875,0.0005294741131365299,0.0006120330654084682,0.0006287685828283429
1772644009563794000,0.3377939453125,0.00017968076281249523,-0.0001649149926379323,-0.0001077377237379551
1772644009573835000,0.3478349609375,-0.0003825125750154257,-0.0006605292437598109,-0.0003692600876092911
1772644009583875800,0.357875732421875,0.0003842707956209779,-0.0007349810330197215,-0.0008322796784341335
1772644009593916000,0.367916015625,-0.000014670717064291239,-0.00048783968668431044,0.0021238289773464203
1772644009603957000,0.37795703125,0.00007486453978344798,0.000013277283869683743,0.00029480294324457645
1772644009613997800,0.387997802734375,0.0009896603878587484,0.0003754671779461205,0.00003993837162852287
1772644009624039000,0.398038818359375,-0.0008255979628302157,-0.0012255056062713265,-0.0007590374443680048
1772644009634080000,0.408080078125,-0.0004444996011443436,-0.0006827535107731819,-0.00004930514842271805
1772644009644120000,0.4181201171875,-0.0004658465040847659,-0.000004388566594570875,0.00031845271587371826
1772644009654161000,0.428160888671875,-0.0008072637720033526,0.0005151941440999508,0.00030566961504518986
1772644009664202000,0.438201904296875,0.0012279803631827235,-0.0005584302125498652,0.0004370857495814562
1772644009674243000,0.4482431640625,-0.000008258968591690063,0.0004770068626385182,-0.00030167517252266407
1772644009684283000,0.458282958984375,0.0011697621084749699,0.00021925807232037187,0.0011298783356323838
1772644009694323700,0.46832373046875,0.0010677629616111517,-0.0002944656880572438,0.000490719685330987
1772644009704364800,0.47836474609375,0.00022583204554393888,-0.0005724566290155053,-0.00037256814539432526
1772644009714406000,0.488406005859375,0.0004055954050272703,0.00000944407656788826,-0.000711588654667139
1772644009724446700,0.49844677734375,0.001128541654907167,-0.00028798228595405817,0.000616877805441618
1772644009734487800,0.50848779296875,0.0009668877464719117,-0.0005745384842157364,0.0015351356705650687
1772644009744528000,0.51852783203125,-0.0006860351422801614,-0.0003560989862307906,-0.0007544644176959991
1772644009754568700,0.528568603515625,-0.0011984272859990597,-0.001570766675285995,-0.000524899922311306
1772644009764609800,0.53860986328125,0.0006153350695967674,0.000643360719550401,0.0003086728975176811
1772644009774651000,0.54865087890625,-0.0006158442702144384,0.00036026668385602534,-0.00019466457888484
1772644009784691000,0.55869091796875,-0.00010885926894843578,0.000006624148227274418,-0.0018654498271644115
1772644009794731800,0.568731689453125,0.00015825574519112706,-0.0003382551367394626,0.0006080941529944539
1772644009804772900,0.57877294921875,-0.001095893676392734,0.00008199719013646245,-0.0004893082659691572
1772644009814814000,0.58881396484375,0.0008937540696933866,0.00002820132067427039,0.0006409372435882688
1772644009824854800,0.598854736328125,0.0008594901883043349,0.00014281290350481868,0.000536845182068646
1772644009834894800,0.608894775390625,-0.0026793181896209717,-0.0010955570032820106,-0.00017847982235252857
1772644009844936000,0.61893603515625,-0.0005834412295371294,0.00009708059951663017,0.0003694193437695503
1772644009854976800,0.628976806640625,-0.0007807814981788397,-0.0007950783474370837,-0.00042074057273566723
1772644009865017900,0.639017822265625,0.000511753954924643,-0.0008790580905042589,-0.0009594426956027746
1772644009875059000,0.649058837890625,-0.00012341002002358437,-0.0008761286153458059,-0.00015916279517114162
1772644009885099000,0.65909912109375,-0.0009970132960006595,-0.0003022182499989867,0.000750022241845727
1772644009895139800,0.669139892578125,0.0001827669912017882,0.0001933960011228919,-0.0003892781678587198
1772644009905181000,0.679180908203125,0.00032028224086388946,0.0007381510804407299,-0.000986927654594183
1772644009915222000,0.689221923828125,0.0011810158612206578,-0.0001454857992939651,-0.00021674134768545628
1772644009925262800,0.699262939453125,-0.00031663040863350034,0.00035033520543947816,0.0003949275705963373
1772644009935303000,0.709302978515625,-0.00037282315315678716,0.000059518031775951385,0.00006149988621473312
1772644009945344000,0.719343994140625,-0.00207566493190825,0.0007863542414270341,0.0011487269075587392
1772644009955385000,0.729385009765625,0.001994710648432374,0.00006943126209080219,0.0008592413505539298
1772644009965426000,0.739426025390625,0.0012106900103390217,-0.0004077619523741305,0.001281964941881597
1772644009975467000,0.749467041015625,-0.0004673678777180612,0.0001634860527701676,0.0006321537075564265
1772644009985506800,0.7595068359375,-0.001483991276472807,-0.0008396133780479431,-0.0009144872892647982
1772644009995547600,0.769547607421875,0.0004787583602592349,-0.0008894144557416439,0.0009539865422993898
1772644010005588700,0.779588623046875,-0.0011323768412694335,-0.00018994801212102175,0.0009823967702686787
1772644010015630300,0.78963037109375,0.0017070855246856809,-0.00016065326053649187,0.00041887187398970127
1772644010025671200,0.799671142578125,0.00021264696260914207,-0.00020322127966210246,0.0012217022012919188
1772644010035711000,0.8097109375,-0.000017183832824230194,0.0006844103336334229,0.0007740248693153262
1772644010045752000,0.819751953125,0.00014943326823413372,0.0004954312462359667,0.0006329381139948964
1772644010055793200,0.829793212890625,0.00028525444213300943,-0.0005213636322878301,-0.0005010359454900026
1772644010065834200,0.839834228515625,-0.0007134361658245325,0.00002559443237259984,0.00035271188244223595
1772644010075875300,0.849875244140625,0.0002487639430910349,-0.0013496619649231434,-0.00046168267726898193
1772644010085915100,0.8599150390625,-0.0005022388650104403,-0.0010675648227334023,0.0013346532359719276
1772644010095956000,0.8699560546875,0.0016906079836189747,0.0009423228329978883,-0.0003207677509635687
1772644010105997000,0.8799970703125,-0.0007381293689832091,0.0008011123863980174,-0.00018108333460986614
1772644010116038100,0.8900380859375,0.0006198164774104953,0.00068659643875435,-0.00004153372719883919
1772644010126079000,0.900078857421875,0.0007568977307528257,-0.0005201659514568746,0.0012693111784756184
1772644010136119000,0.910119140625,-0.0006244839751161635,0.0004082119558006525,-0.0005003593396395445
1772644010146160000,0.92016015625,0.0001599445240572095,-0.0006036668783053756,0.0010092764860019088
1772644010156201200,0.930201171875,-0.0004658983089029789,0.0001105929259210825,0.0005807738052681088
1772644010166242000,0.940241943359375,-0.00024041614960879087,0.000299349136184901,0.0007488048868253827
1772644010176282000,0.9502822265625,-0.0006244439864531159,-0.0006596551975235343,0.0005994015373289585
1772644010186323200,0.9603232421875,0.0011623635655269027,-0.00023610115749761462,0.0005588376661762595
1772644010196364300,0.9703642578125,-0.0004834699211642146,0.0007719052955508232,-0.0002488992176949978
1772644010206405000,0.980405029296875,0.0008157879346981645,-0.00022949319100007415,0.0002702106721699238
1772644010216446200,0.9904462890625,0.0007433499558828771,-0.0016119400970637798,-0.0018789605237543583
1772644010226486300,1.000486328125,-0.0012333665508776903,-0.0007008207030594349,0.00004423782229423523
1772644010236527000,1.010527099609375,-0.0002751612337306142,0.00026670569786801934,0.00018165679648518562
1772644010246568200,1.020568115234375,-0.00151768047362566,0.00023440446238964796,0.00008293217979371548
1772644010256609300,1.030609375,0.000849869626108557,0.0015955460257828236,-0.0001346480567008257
1772644010266650000,1.040650146484375,0.0005696725565940142,0.001131938653998077,0.00016381870955228806
1772644010276690200,1.050690185546875,-0.0017848281422629952,0.0009172878926619887,-0.00035469885915517807
1772644010286731300,1.060731201171875,-0.0011696317233145237,0.00010712299263104796,-0.00017340481281280518
1772644010296772400,1.0707724609375,0.00004104134859517217,-0.0003344291471876204,-0.0006322674453258514
1772644010306813200,1.080813232421875,0.0008392654126510024,-0.0011075909715145826,0.00017841230146586895
1772644010316854300,1.090854248046875,0.0021093268878757954,-0.00027055939426645637,0.0009712352184578776
1772644010326894300,1.100894287109375,-0.0015158896567299962,-0.0009839637205004692,0.0006515552522614598
1772644010336935200,1.11093505859375,-0.0021025841124355793,-0.0014955569058656693,-0.000028349924832582474
1772644010346976300,1.120976318359375,0.0011408545542508364,0.00002706516534090042,-0.00010076886974275112
1772644010357017300,1.131017333984375,-0.00004212162457406521,0.0004563667462207377,0.00033252756111323833
1772644010367058200,1.14105810546875,-0.000053425843361765146,0.00040182832162827253,-0.0005881581455469131
1772644010377098000,1.151097900390625,-0.0010968523565679789,0.001167487120255828,-0.0005293022841215134
1772644010387139000,1.16113916015625,-0.000986117753200233,0.0005620813462883234,-0.00031590438447892666
1772644010397180200,1.17118017578125,0.001141215325333178,-0.0004331419477239251,-0.0009944778867065907
1772644010407221000,1.181220947265625,0.0003719672386068851,0.0007595791830681264,0.00016017910093069077
1772644010417262000,1.191261962890625,0.000040669983718544245,0.000016557227354496717,0.0013612647308036685
1772644010427302100,1.20130224609375,0.0015345050487667322,0.0005213040858507156,-0.0006750756874680519
1772644010437343200,1.21134326171875,-0.0010708654299378395,0.0001924036769196391,-0.0004036996979266405
1772644010447384000,1.221384033203125,-0.00027489790227264166,0.0005512139177881181,-0.00173064018599689
1772644010457425200,1.231425048828125,-0.0019454987486824393,-0.001043486874550581,0.00042385724373161793
1772644010467465200,1.24146533203125,-0.00027816835790872574,0.0005373127060011029,0.0013413323322311044
1772644010477506000,1.251506103515625,-0.0015421046409755945,0.00024143548216670752,0.0007045704405754805
1772644010487547100,1.261547119140625,0.0006864532479085028,-0.0003804431762546301,0.0014278569724410772
1772644010497588200,1.271588134765625,0.0004382466431707144,0.0005519295227713883,-0.0011498166713863611
1772644010507629000,1.281629150390625,0.00022653245832771063,0.00023272790713235736,0.00046022888273000717
1772644010517669000,1.291669189453125,0.0013173632323741913,0.0002798658679239452,0.00032387510873377323
1772644010527710200,1.301710205078125,-0.001249078894034028,0.0003177657490596175,0.00033068773336708546
1772644010537751300,1.311751220703125,-0.00031324411975219846,0.0009883497841656208,-0.0005755859892815351
1772644010547792100,1.321792236328125,-0.0006174700683914125,0.00014600285794585943,0.0008741322671994567
1772644010557833200,1.331833251953125,-0.0011439770460128784,0.0009329669992439449,-0.0005045861471444368
1772644010567873300,1.341873291015625,-0.0002796484041027725,-0.0007826570072211325,0.0004566930001601577
1772644010577914000,1.3519140625,-0.00011053768685087562,0.00002747657708823681,0.0006947795627638698
1772644010587955200,1.361955078125,0.0007262065191753209,-0.00030758255161345005,-0.00023654638789594173
1772644010597996300,1.371996337890625,-0.0007885994855314493,-0.0013539384817704558,0.00036159949377179146
1772644010608037000,1.382037109375,0.0011295202421024442,0.0008632013923488557,-0.0004750832449644804
1772644010618077200,1.3920771484375,-0.001322452211752534,0.00032178073888644576,-0.0006298127118498087
1772644010628118300,1.4021181640625,-0.00017889804439619184,0.0007378963637165725,-0.0011601157020777464
1772644010638159400,1.412159423828125,-0.00008675269782543182,-0.002137252362444997,0.0011515080695971847
1772644010648200200,1.4222001953125,0.0014617358101531863,0.00014969264157116413,0.0010709856869652867
1772644010658241300,1.4322412109375,-0.0016011656261980534,-0.0006628378760069609,0.0004725734470412135
1772644010668281000,1.442281005859375,0.0007270341739058495,0.00022507895482704043,-0.0004478837363421917
1772644010678322200,1.452322265625,0.0006825593300163746,-0.0007634864305146039,0.00015718629583716393
1772644010688363000,1.462363037109375,-0.0011121636489406228,0.0008277940796688199,0.00086608761921525
1772644010698404000,1.472404052734375,-0.00036860909312963486,-0.0004864758811891079,0.0012671597069129348
1772644010708444200,1.482444091796875,0.0016872761771082878,0.0005610447842627764,-0.00047689303755760193
1772644010718485000,1.492485107421875,-0.0016222341218963265,0.0009485346963629127,-0.0007900809869170189
1772644010728526000,1.502526123046875,-0.00005962944123893976,0.0008941549458540976,-0.0009851653594523668
1772644010738567200,1.512567138671875,0.0009209464769810438,0.0009450213401578367,-0.0005087258759886026
1772644010748608000,1.52260791015625,0.00036578800063580275,-0.001446507521905005,-0.00010139727964997292
1772644010758648000,1.53264794921875,0.0018318581860512495,-0.0006243897369131446,-0.000027094967663288116
1772644010768689200,1.542689208984375,-0.0006181979551911354,-0.0014807445695623755,0.0003284905105829239
1772644010778730200,1.552730224609375,0.000029482878744602203,-0.0010849988320842385,0.0007945437682792544
1772644010788771000,1.56277099609375,0.00026980810798704624,0.000640374724753201,0.0003487090580165386
1772644010798812200,1.572812255859375,0.0015316138742491603,-0.00038334447890520096,-0.0010499830823391676
1772644010808852200,1.582852294921875,0.00041038740891963243,0.0007493463344871998,0.00022346433252096176
1772644010818893300,1.592893310546875,-0.00031372607918456197,-0.00023788749240338802,0.0014075057115405798
1772644010828934100,1.60293408203125,-0.0005291526904329658,0.0017892597243189812,-0.0008150592911988497
1772644010838975200,1.612975341796875,-0.0009190394775941968,0.0007192015764303505,0.0009631332941353321
1772644010849016000,1.62301611328125,-0.002097079064697027,-0.00027245032833889127,-0.000012922799214720726
1772644010859056000,1.63305615234375,-0.000029667047783732414,-0.00006925110938027501,-0.00014927657321095467
1772644010869097200,1.64309716796875,-0.0001485242391936481,-0.0000709431478753686,0.0010059467749670148
1772644010879138300,1.65313818359375,-0.00042815617052838206,0.0002403803518973291,-0.00012163561768829823
1772644010889179100,1.66317919921875,-0.0009930920787155628,-0.0003511852119117975,-0.0002812726888805628
1772644010899219200,1.67321923828125,-0.001979527063667774,-0.0005807497072964907,-0.00031882314942777157
1772644010909260300,1.68326025390625,0.0006582235218957067,0.00028340931748971343,0.00110696442425251
1772644010919301400,1.69330126953125,-0.0009063836769200861,0.00005650799721479416,0.0008933788631111383
1772644010929342200,1.70334228515625,-0.0005134731181897223,0.00042328814743086696,-0.0006932730320841074
1772644010939383300,1.71338330078125,-0.0005430342280305922,0.0006190304993651807,0.00007238565012812614
1772644010949423000,1.723423095703125,-0.0008368031121790409,-0.0001740873558446765,0.000005375593900680542
1772644010959464200,1.733464111328125,0.0009174210717901587,-0.0007541237864643335,-0.0004918365739285946
1772644010969505000,1.743505126953125,-0.0012600828194990754,0.00034715532092377543,0.0011893371120095253
1772644010979546000,1.753546142578125,-0.0001402236521244049,0.000298419501632452,0.00040263927076011896
1772644010989587000,1.7635869140625,-0.001377265085466206,0.001874800305813551,-0.0003764410503208637
1772644010999627000,1.773626953125,0.0006171762943267822,-0.00018249161075800657,-0.0006499476730823517
1772644011009668000,1.783668212890625,0.0006410227506421506,0.00010154006304219365,0.0008112062932923436
1772644011019709200,1.793709228515625,0.0003294328926131129,0.00009648001287132502,0.00013609486632049084
1772644011029750000,1.80375,0.0007934710592962801,0.0020093307830393314,0.00007904018275439739
1772644011039791000,1.813791015625,0.00021103769540786743,0.0008961294661276042,-0.0015034100506454706
1772644011049831200,1.8238310546875,-0.0006364791188389063,-0.0013846310321241617,-0.0009929437655955553
1772644011059872300,1.833872314453125,0.0008490320760756731,0.00007637921953573823,0.0008723343489691615
1772644011069913000,1.8439130859375,-0.000007521011866629124,0.0008830378064885736,-0.00033948873169720173
1772644011079954200,1.8539541015625,-0.001163865439593792,-0.00034228258300572634,0.000013646436855196953
1772644011089995300,1.863995361328125,0.0005244133062660694,-0.0005998866399750113,0.000049962662160396576
1772644011100035000,1.87403515625,-0.0001621496630832553,0.0005527294706553221,0.00047154107596725225
1772644011110076200,1.884076171875,0.0010703993029892445,0.0001403044443577528,-0.0000590016134083271
1772644011120117200,1.8941171875,-0.0008944809669628739,-0.001810727408155799,-0.0003314430359750986
1772644011130158000,1.904157958984375,-0.00012012606021016836,-0.00013914587907493114,-0.00041935755871236324
1772644011140198100,1.9141982421875,-0.0016391932731494308,0.00030640093609690666,-0.000998861389234662
1772644011150239200,1.9242392578125,0.0004223552532494068,-0.0008293174905702472,-0.0007697874680161476
1772644011160280300,1.9342802734375,-0.000154219102114439,0.00020345632219687104,0.00012982822954654694
1772644011170321200,1.944321044921875,0.00024926470359787345,0.000019933446310460567,-0.0017671394161880016
1772644011180362200,1.9543623046875,-0.0009438314009457827,-0.0009643709054216743,0.0000853552483022213
1772644011190402300,1.96440234375,0.0004997330252081156,-0.0007046553073450923,0.0012065593618899584
1772644011200443400,1.974443359375,-0.0011282572522759438,0.000026648747734725475,0.0008070851908996701
1772644011210484200,1.984484130859375,0.0003215069300495088,-0.0009731459431350231,-0.0005782078951597214
1772644011220525300,1.994525390625,0.00013961305376142263,0.0005975863896310329,-0.0001904517412185669
1772644011230566100,2.004566162109375,0.00015854783123359084,0.0003457759157754481,0.00043977308087050915
1772644011240606000,2.01460595703125,0.00024323636898770928,0.00007200299296528101,-0.00010218028910458088
1772644011250647000,2.02464697265625,-0.00037230830639600754,-0.0000055335694923996925,-0.00032440340146422386
1772644011260688100,2.034688232421875,-0.00037869997322559357,0.00017396348994225264,-0.0015579794999212027
1772644011270729000,2.04472900390625,0.0004145205020904541,-0.0007729289354756474,0.0008495775982737541
1772644011280770000,2.05477001953125,0.00042330892756581306,0.00003613939043134451,0.00021148426458239555
1772644011290810000,2.06481005859375,0.00046926073264330626,0.0006318576633930206,0.0014996491372585297
1772644011300851200,2.074851318359375,0.0011251972755417228,-0.00017135171219706535,0.00020854873582720757
1772644011310892000,2.08489208984375,0.0005840497324243188,0.00024567166110500693,0.00006308010779321194
1772644011320933000,2.09493310546875,0.00040934636490419507,0.00007150089368224144,-0.00005569681525230408
1772644011330973200,2.10497314453125,0.0007847783854231238,0.00001419044565409422,-0.0007851677946746349
1772644011341014300,2.11501416015625,0.00038051052251830697,0.0013713373336941004,-0.0004346957430243492
1772644011351055000,2.12505517578125,0.000522558344528079,0.00082580023445189,-0.0003734629135578871
1772644011361096200,2.13509619140625,0.0007103111711330712,-0.0017225786577910185,-0.0006331210024654865
1772644011371137000,2.145136962890625,-0.00012295565102249384,-0.0001318927388638258,-0.00046076439321041107
1772644011381177000,2.155177001953125,-0.000816709129139781,0.00010885705705732107,-0.00013745669275522232
1772644011391218200,2.16521826171875,0.0004207629826851189,-0.0008520081173628569,0.00023792404681444168
1772644011401259300,2.17525927734375,-0.000019990140572190285,0.0005373629974201322,-0.0014726242516189814
1772644011411300000,2.185300048828125,-0.0002690778346732259,0.000011782045476138592,0.00006568850949406624
1772644011421341200,2.195341064453125,0.0007863328792154789,-0.0010303129674866796,-0.0007633534260094166
1772644011431381200,2.20538134765625,0.0008234103443101048,-0.0005153925158083439,-0.00044067506678402424
1772644011441422300,2.21542236328125,-0.0012293541803956032,-0.0009588089305907488,0.0009593487484380603
1772644011451463200,2.225463134765625,0.0012233767192810774,-0.00037839135620743036,-0.00023462530225515366
1772644011461504300,2.235504150390625,-0.001083986135199666,0.0005902003613300622,0.0009464867180213332
1772644011471544300,2.24554443359375,0.0009115114808082581,-0.0005273120477795601,-0.0007687718607485294
1772644011481585200,2.255585205078125,0.00048487307503819466,0.0006732409819960594,-0.0006031233351677656
1772644011491626200,2.265626220703125,0.0006590468110516667,-0.000926838954910636,0.0012516980059444904
1772644011501667300,2.275667236328125,0.0007237616227939725,-0.0015713239554315805,-0.0017163949087262154
1772644011511708200,2.285708251953125,0.00120633898768574,0.0006291503086686134,-0.0008063632994890213
1772644011521748000,2.295748046875,0.0016992900054901838,-0.0019674317445605993,0.0020370937418192625
1772644011531789000,2.3057890625,0.0002772805164568126,0.0008254919084720314,0.000009810086339712143
1772644011541830100,2.315830078125,-0.00001939560752362013,0.0006257548229768872,-0.0005486549343913794
1772644011551871000,2.32587109375,0.001272092224098742,0.00023433443857356906,-0.00004618382081389427
1772644011561912000,2.335912109375,0.0003019026480615139,-0.0008096246747300029,-0.000256839906796813
1772644011571952000,2.3459521484375,0.0016068569384515285,0.0006215907633304596,0.00029330793768167496
1772644011581993200,2.3559931640625,0.0012673038290813565,-0.0005877506919205189,-0.0000656861811876297
1772644011592034000,2.366033935546875,0.0004759129951708019,-0.0009794712532311678,0.00030377903021872044
1772644011602075100,2.3760751953125,0.0005259804311208427,-0.0009573670104146004,-0.000009675044566392899
1772644011612116200,2.3861162109375,0.000512156926561147,0.000053492141887545586,0.00004076003096997738
1772644011622156000,2.396156005859375,-0.0009642996592447162,-0.0005582359153777361,0.00008070748299360275
1772644011632197000,2.406197021484375,0.0015225349925458431,-0.0006250159349292517,0.00010952330194413662
1772644011642238200,2.41623828125,-0.000575503334403038,0.0007342614699155092,0.00005812430754303932
1772644011652279000,2.426279052734375,0.0010149127338081598,0.001118327840231359,0.0001668145414441824
1772644011662319000,2.436319091796875,-0.0011611562222242355,0.0008317716419696808,0.0003566979430615902
1772644011672360200,2.446360107421875,0.0008868911536410451,0.00002560904249548912,0.0006841807626187801
1772644011682401300,2.4564013671875,-0.00041885673999786377,0.00009325332939624786,-0.001407465897500515
1772644011692442000,2.466442138671875,0.0019151263404637575,0.00024426565505564213,0.000725787365809083
1772644011702483200,2.476483154296875,-0.00031873316038399935,0.0000879381550475955,-0.0005930101033300161
1772644011712523300,2.486523193359375,0.001415140344761312,0.00023609166964888573,-0.0008064636494964361
1772644011722564000,2.496564208984375,0.0006827710894867778,0.00035034125903621316,-0.0003329536411911249
1772644011732605200,2.506605224609375,0.000996710266917944,-0.0005433409241959453,0.0009905756451189518
1772644011742646300,2.516646240234375,0.00000654696486890316,0.0012971697142347693,0.0009847166948020458
1772644011752687000,2.52668701171875,0.001073995721526444,-0.0002670210087671876,-0.00013643968850374222
1772644011762727200,2.53672705078125,0.0000875608529895544,-0.0005051076877862215,0.0009032583329826593
1772644011772768300,2.546768310546875,0.0013349629007279873,-0.0005076881498098373,0.0010733214439824224
1772644011782809300,2.556809326171875,0.0021203290671110153,-0.0002315182937309146,-0.00042790244333446026
1772644011792850200,2.56685009765625,0.0009366725571453571,-0.001110803452320397,0.00024728267453610897
1772644011802890000,2.576889892578125,0.00007940095383673906,-0.0007315692491829395,-0.00013674492947757244
1772644011812931000,2.58693115234375,0.0014676175778731704,-0.0007583757396787405,0.0012478887801989913
1772644011822972200,2.59697216796875,0.0014372575096786022,-0.00010483595542609692,0.0006859616842120886
1772644011833013000,2.607012939453125,0.00006235518958419561,0.0012618773616850376,-0.0011007469147443771
1772644011843054000,2.61705419921875,-0.00011554395314306021,-0.0006910186493769288,-0.0009327016305178404
1772644011853094100,2.62709423828125,-0.00006607105024158955,-0.0005092939827591181,-0.00014555174857378006
1772644011863135000,2.637135009765625,0.00020450609736144543,-0.0007580331293866038,0.0005388807039707899
1772644011873176000,2.647176025390625,0.0009337646188214421,0.00012239767238497734,0.0003351897466927767
1772644011883217200,2.657217041015625,-0.0006271140882745385,0.001302710734307766,-0.0001463096123188734
1772644011893258000,2.667258056640625,-0.0005288680549710989,-0.0007323235040530562,0.00017271097749471664
1772644011903298000,2.677298095703125,0.0008104356238618493,-0.0005634791450574994,-0.001135167432948947
1772644011913339100,2.687339111328125,-0.0005263799102976918,0.0012946382630616426,0.0010171227622777224
1772644011923380200,2.697380126953125,-0.0012472975067794323,0.00015054421965032816,-0.00009980704635381699
1772644011933421000,2.707421142578125,0.002205389551818371,0.00028199871303513646,-0.0002441920805722475
1772644011943461000,2.717461181640625,0.00041547883301973343,0.0005943874712102115,0.0009893841343000531
1772644011953502200,2.727502197265625,-0.0015151894185692072,0.00011276802979409695,0.0010444589424878359
1772644011963543300,2.737543212890625,-0.0007721675792708993,0.0011045292485505342,0.00004257773980498314
1772644011973584100,2.747584228515625,-0.0009387765312567353,-0.00033358519431203604,-0.0000074729323387146
1772644011983625200,2.757625244140625,0.00016963097732514143,0.0006280822562985122,-0.0004942987579852343
1772644011993665300,2.767665283203125,-0.001010988256894052,-0.00023201154544949532,0.00009336182847619057
1772644012003706000,2.7777060546875,-0.0009641166543588042,0.0009597530006431043,0.00027845147997140884
1772644012013746700,2.78774658203125,-0.0008325751405209303,0.00043442926835268736,-0.0008949218317866325
1772644012023787800,2.797787841796875,0.00037463573971763253,-0.0005546687170863152,0.0001897835172712803
1772644012033827600,2.80782763671875,0.00012993457494303584,0.00005073111969977617,-0.0002773883752524853
1772644012043868400,2.817868408203125,0.0006290109595283866,-0.00037936947774142027,0.00043633882887661457
1772644012053909500,2.827909423828125,0.0002800780348479748,0.0003135840524919331,0.00024813367053866386
1772644012063950600,2.83795068359375,-0.0009572264971211553,0.00045313365990296006,0.0009506754577159882
1772644012073991400,2.847991455078125,-0.0008025056449696422,0.0004484836827032268,0.0009305833373218775
1772644012084031500,2.858031494140625,0.0009511859389021993,0.0005020131939090788,0.0017100905533879995
1772644012094072600,2.868072509765625,-0.0008391449227929115,-0.00014108989853411913,-0.001057203859090805
1772644012104113700,2.87811376953125,-0.0001240861602127552,0.0005870183231309056,-0.000283555593341589
1772644012114154500,2.888154541015625,-0.0012712302850559354,0.0008036287035793066,0.0006259591318666935
1772644012124195600,2.898195556640625,-0.000574014731682837,-0.0010035923914983869,0.0007828193483874202
1772644012134235600,2.908235595703125,0.0005400496884249151,0.0009954023407772183,-0.000016249017789959908
1772644012144276700,2.91827685546875,-0.00020030909217894077,-0.0003255255287513137,0.0003142491914331913
1772644012154317600,2.928317626953125,-0.0013137125642970204,-0.00006989645771682262,-0.000529017299413681
1772644012164358700,2.938358642578125,0.000755297252908349,-0.0003308862214908004,0.000449694343842566
1772644012174398700,2.948398681640625,0.0008494827779941261,0.0009986847871914506,0.000016223173588514328
1772644012184439600,2.958439453125,0.0008217858849093318,-0.00039920839481055737,0.00013579917140305042
1772644012194480600,2.968480712890625,0.001084191957488656,-0.0011859182268381119,-0.0017454170156270266
1772644012204521700,2.978521728515625,-0.0002790801227092743,0.0005347500555217266,-0.0001416616141796112
1772644012214562600,2.9885625,-0.0007634684443473816,-0.00032301421742886305,0.00024555716663599014
1772644012224602600,2.9986025390625,0.0011390938889235258,-0.0000764054711908102,-0.0008766988757997751
1772644012234643700,3.008643798828125,0.0005446388386189938,0.000009733601473271847,0.0009751993929967284
1772644012244684800,3.018684814453125,-0.0004857381572946906,0.0005311804707162082,0.0008481665281578898
1772644012254725600,3.0287255859375,-0.0010401250328868628,0.0002707960666157305,0.0011544818989932537
1772644012264766700,3.0387666015625,-0.0014587738551199436,-0.00004185910802334547,0.0011243881890550256
1772644012274806800,3.048806884765625,-0.002163863740861416,0.0008363467641174793,-0.0008084652945399284
1772644012284847600,3.05884765625,0.0004652088973671198,0.00003846373874694109,-0.0013235206715762615
1772644012294888700,3.068888671875,0.0004134260816499591,-0.0006238454952836037,0.00005639740265905857
1772644012304929800,3.0789296875,0.00031169335125014186,-0.0008986836764961481,0.0006305749993771315
1772644012314969600,3.088969482421875,-0.00017967494204640388,0.00004450033884495497,0.0005645814817398787
1772644012325010400,3.099010498046875,0.0002810519654303789,0.0006338578532449901,-0.0006705927662551403
1772644012335051500,3.109051513671875,0.0005458799423649907,0.000883881002664566,0.00013277027755975723
1772644012345092600,3.119092529296875,0.001022585784085095,0.000032734707929193974,0.000875792233273387
1772644012355133400,3.129133544921875,-0.0007939271163195372,-0.0009611087152734399,-0.00034807855263352394
1772644012365173500,3.139173583984375,-0.001721772481687367,-0.0004399281460791826,-0.00036618788726627827
1772644012375214600,3.149214599609375,0.0007482861401513219,0.0002314867451786995,-0.00013404362834990025
1772644012385255700,3.159255615234375,-0.0008195167174562812,-0.00029528653249144554,-0.0000663993414491415
1772644012395296500,3.169296630859375,0.00020973337814211845,0.0001450116978958249,0.00013786088675260544
1772644012405337600,3.179337646484375,0.000005468958988785744,0.0010784496553242207,0.0020257756114006042
1772644012415377700,3.189377685546875,0.0007413760758936405,0.001047849073074758,0.0003266986459493637
1772644012425418500,3.19941845703125,0.0003208629786968231,-0.0009545816574245691,-0.0006815739907324314
1772644012435459600,3.20945947265625,-0.0003835568204522133,-0.0009078682633116841,0.001779803540557623
1772644012445500700,3.219500732421875,0.0004412241978570819,-0.0016319818096235394,0.0009747298900038004
1772644012455541500,3.22954150390625,-0.00022773526143282652,-0.0005226759240031242,-0.001328376354649663
1772644012465581600,3.23958154296875,0.00008012616308405995,0.00029757764423266053,-0.00016297702677547932
1772644012475622700,3.24962255859375,-0.00015069800429046154,0.000012982054613530636,0.00023737619630992413
1772644012485663700,3.259663818359375,-0.0002388486173003912,0.0008303062058985233,-0.0001924580428749323
1772644012495704600,3.26970458984375,-0.0017129286425188184,-0.0001637203386053443,-0.0010585556738078594
1772644012505744600,3.27974462890625,-0.000679622171446681,0.00016597902867943048,-0.0016151564195752144
1772644012515785700,3.28978564453125,0.0014280383475124836,0.0008708448149263859,-0.00020575663074851036
1772644012525826800,3.299826904296875,0.0010610547615215182,0.0005219707381911576,0.00046695792116224766
1772644012535867600,3.30986767578125,0.0010955081088468432,-0.00011662219185382128,0.0004693944938480854
1772644012545908700,3.31990869140625,-0.00016123754903674126,0.00010495283640921116,0.00009628571569919586
1772644012555948800,3.32994873046875,-0.0010636326624080539,-0.0003197513287886977,-0.00018629455007612705
1772644012565989600,3.33998974609375,-0.0003882549935951829,0.0001100829103961587,-0.0010587461292743683
1772644012576030700,3.35003076171875,-0.00041454529855400324,0.00024726451374590397,-0.0018266371916979551
1772644012586071800,3.36007177734375,0.000502381066326052,-0.00042917835526168346,-0.0002220827154815197
1772644012596111600,3.370111572265625,-0.00027590105310082436,-0.00005758320912718773,-0.0008699449244886637
1772644012606152400,3.38015234375,0.0006016105762682855,0.0008614736725576222,-0.0004893792793154716
1772644012616193500,3.390193603515625,-0.000698921037837863,0.0002515820669941604,-0.00042326701804995537
1772644012626234600,3.400234619140625,-0.0009777540108188987,0.001273703295737505,0.000028138747438788414
1772644012636275500,3.410275390625,0.0010165864368900657,0.0005143064772710204,0.0005084475269541144
1772644012646315500,3.4203154296875,0.00019127281848341227,-0.0005490937037393451,0.00019872188568115234
1772644012656356600,3.430356689453125,-0.00038475950714200735,-0.0008190583903342485,0.0002509471960365772
1772644012666397700,3.440397705078125,-0.000047869631089270115,0.0007298360578715801,0.00023310398682951927
1772644012676438500,3.4504384765625,-0.0008445720886811614,0.00025843712501227856,-0.0003926700446754694
1772644012686479600,3.460479736328125,-0.0004256567917764187,0.0012962709879502654,-0.0007306251209229231
1772644012696519700,3.470519775390625,-0.0007742091547697783,0.0006748539162799716,0.0001609274186193943
1772644012706560500,3.480560546875,0.0010244898730888963,-0.0007155825151130557,0.00010872934944927692
1772644012716601600,3.4906015625,-0.00025585200637578964,-0.00037930975668132305,-0.001290124375373125
1772644012726642700,3.500642578125,-0.002372266259044409,0.000569840834941715,0.000934680225327611
1772644012736682800,3.510682861328125,-0.0011270500253885984,-0.0008194075198844075,0.001895487424917519
1772644012746723600,3.5207236328125,-0.002560629742220044,0.000339333841111511,-0.001918958267197013
1772644012756764700,3.5307646484375,0.0010559707880020142,0.00017990678315982223,-0.0006000720895826817
1772644012766805800,3.5408056640625,-0.0001469791168347001,0.0011437047505751252,0.00009021931327879429
1772644012776846600,3.5508466796875,0.0013448215322569013,-0.0003706213319674134,-0.000025429530069231987
1772644012786886700,3.56088671875,-0.0006317766383290291,0.0007540315855294466,0.0007173260673880577
1772644012796927700,3.570927734375,0.0011330118868499994,0.00015270430594682693,-0.00021829130128026009
1772644012806968600,3.580968505859375,0.0007050419226288795,-0.0003900479059666395,0.00012499000877141953
1772644012817009700,3.591009765625,-0.0003145876107737422,0.0004288319032639265,0.0010985535336658359
1772644012827050800,3.60105078125,-0.0004959489451721311,0.00012842734577134252,0.0006724478444084525
1772644012837090800,3.6110908203125,-0.0009474116377532482,-0.000368782551959157,-0.0011135558597743511
1772644012847131600,3.621131591796875,-0.001256871037185192,0.0005398879875428975,0.0005253535928204656
1772644012857172700,3.6311728515625,0.00004420883487910032,0.000621653045527637,-0.00026324065402150154
1772644012867213800,3.6412138671875,-0.0004588622832670808,-0.0009197845356538892,-0.000955129973590374
1772644012877253600,3.651253662109375,0.00038105633575469255,0.000013755867257714272,-0.00037096161395311356
1772644012887294500,3.66129443359375,-0.0002887287409976125,0.00022201507817953825,-0.00025218469090759754
1772644012897335600,3.67133544921875,-0.0003119594184681773,-0.00025340192951261997,-0.00013937009498476982
1772644012907376600,3.681376708984375,-0.0005465839058160782,-0.00013116281479597092,-0.0003929031081497669
1772644012917417500,3.69141748046875,-0.0008249629754573107,-0.0016269921325147152,-0.00023683859035372734
1772644012927457500,3.70145751953125,-0.0005445320857688785,-0.00006478186696767807,-0.0006459001451730728
1772644012937498600,3.71149853515625,-0.0010200326796621084,-0.00016314105596393347,-0.00005456642247736454
1772644012947539500,3.72153955078125,-0.00022827484644949436,-0.00013491150457412004,-0.00008625793270766735
1772644012957580500,3.73158056640625,0.0006715399213135242,0.00107077625580132,-0.0013264438603073359
1772644012967621600,3.74162158203125,0.0011421204544603825,0.00046943448251113296,-0.00010565086267888546
1772644012977661700,3.75166162109375,-0.0010535334004089236,0.0012798724928870797,-0.0007318314164876938
1772644012987702500,3.76170263671875,0.0008247941150330007,0.00019410171080380678,-0.0010279747657477856
1772644012997743600,3.77174365234375,0.000038280501030385494,-0.0002683863276615739,0.00009571993723511696
1772644013007784700,3.78178466796875,0.0006002074223943055,0.00098063622135669,-0.001820424571633339
1772644013017824800,3.79182470703125,0.0008682570187374949,0.00009892258094623685,-0.00148978759534657
1772644013027865600,3.801865478515625,0.00031112373108044267,0.0004081155639141798,-0.00026926095597445965
1772644013037906700,3.81190673828125,0.0009651363361626863,-0.0012748554581776261,-0.0007877876050770283
1772644013047947500,3.821947509765625,0.0002420881064608693,-0.0005866945721209049,-0.00042053754441440105
1772644013057988600,3.831988525390625,0.00013338716235011816,-0.0003202153602614999,0.0016237361123785377
1772644013068028700,3.842028564453125,-0.0007606359431520104,-0.0011039836099371314,-0.00013235234655439854
1772644013078069800,3.85206982421875,0.0004171440377831459,-0.0003179791383445263,-0.0014039811212569475
1772644013088110600,3.862110595703125,0.0017215603729709983,0.0007339695002883673,0.0004106967244297266
1772644013098151700,3.872151611328125,0.000629477552138269,-0.000883948989212513,0.00037630507722496986
1772644013108191700,3.882191650390625,-0.001000377000309527,0.000003416324034333229,0.0006972159026190639
1772644013118232800,3.89223291015625,0.0009759427630342543,0.00043518393067643046,0.0007420486072078347
1772644013128273700,3.902273681640625,-0.0003974493592977524,-0.0010790893575176597,0.0011766764800995588
1772644013138314800,3.912314697265625,0.00030577118741348386,-0.0003806166350841522,-0.0007643152493983507
1772644013148355800,3.92235595703125,0.00011988251935690641,0.0005778550985269248,0.0009710005251690745
1772644013158395600,3.932395751953125,0.0006949703674763441,0.00030273193260654807,0.00018570595420897007
1772644013168436700,3.942436767578125,-0.0005955974338576198,0.000519513210747391,-0.0008340184576809406
1772644013178477800,3.952477783203125,0.00003185018431395292,0.0003888686769641936,-0.00016873772256076336
1772644013188518700,3.9625185546875,0.000915753364097327,-0.00025348574854433537,0.00040117884054780006
1772644013198559700,3.972559814453125,0.00013247353490442038,-0.0001519503421150148,0.00001195375807583332
1772644013208599800,3.982599853515625,-0.0004166702274233103,-0.00011599768185988069,0.0006865323521196842
1772644013218641000,3.992640869140625,-0.0013208043528720737,-0.00009150803089141846,0.0015441103605553508
1772644013228681700,4.002681640625,-0.00009708188008517027,0.001013703877106309,-0.0006577912718057632
1772644013238722800,4.012722900390625,0.0005186980124562979,-0.0002772493753582239,-0.0006598362233489752
1772644013248763000,4.022762939453125,-0.00022645446006208658,0.00013633957132697105,-0.0008079081308096647
1772644013258804000,4.032803955078125,-0.0005101365968585014,-0.000730691768694669,-0.00032924883998930454
1772644013268844800,4.0428447265625,-0.00023316789884120226,0.0008536227978765965,-0.0010901140049099922
1772644013278886000,4.052885986328125,0.0006577229942195117,0.0006478134309872985,0.0003373776562511921
1772644013288926700,4.0629267578125,0.000328289985191077,-0.0009202557848766446,0.001452975906431675
1772644013298966500,4.072966552734375,-0.000464513199403882,-0.0006221398361958563,0.000037582358345389366
1772644013309007600,4.083007568359375,0.0010921044740825891,-0.0009427844197489321,-0.00014724093489348888
1772644013319048700,4.093048583984375,-0.0004094066098332405,-0.0012174627045169473,0.0013712955405935645
1772644013329089500,4.103089599609375,-0.00007970735896378756,0.00003369047772139311,-0.00042447401210665703
1772644013339130600,4.113130615234375,-0.0002166718477383256,0.000580914318561554,0.00045259855687618256
1772644013349170700,4.123170654296875,0.00039718678453937173,0.000143889628816396,0.0010526087135076523
1772644013359211800,4.133211669921875,0.0006637985934503376,0.000055100186727941036,-0.000288467388600111
1772644013369252600,4.143252685546875,-0.000021699117496609688,-0.0005108215264044702,0.0005999631248414516
1772644013379293700,4.153293701171875,0.0009485482005402446,-0.00122636160813272,0.001101770787499845
1772644013389333800,4.163333740234375,0.00008035777136683464,-0.00108388252556324,0.00012865173630416393
1772644013399374800,4.173374755859375,0.000613069802056998,0.001594850793480873,0.00006849993951618671
1772644013409415700,4.183415771484375,0.00047005806118249893,-0.000564972753636539,-0.0007698631379753351
1772644013419456800,4.193456787109375,0.0018492063973098993,0.0008140108548104763,-0.0008511357009410858
1772644013429497600,4.20349755859375,-0.000525534269399941,-0.0005154391983523965,-0.0017137336544692516
1772644013439537700,4.21353759765625,0.0009582050843164325,-0.00032033486058935523,0.00007213768549263477
1772644013449578800,4.223578857421875,0.0009968209778890014,-0.0007997038192115724,-0.00040776398964226246
1772644013459619800,4.233619873046875,0.0002899523242376745,-0.00004462979268282652,-0.0006600860506296158
1772644013469660700,4.24366064453125,-0.00024933775421231985,-0.00001853075809776783,0.0006909354124218225
1772644013479701800,4.25370166015625,0.0003782605635933578,-0.00048245664220303297,0.0004489296115934849
1772644013489741800,4.263741943359375,-0.0002350654685869813,-0.0008505055448040366,0.0005464013665914536
1772644013499783000,4.273782958984375,0.0005353125161491334,-0.0005311600398272276,-0.00027778930962085724
1772644013509823700,4.28382373046875,-0.000018891296349465847,0.0000933511764742434,-0.0003100135363638401
1772644013519864800,4.29386474609375,0.0009437130065634847,0.0002297410974279046,0.00036734878085553646
1772644013529905000,4.30390478515625,0.0002648732624948025,0.001010047271847725,0.0016392746474593878
1772644013539945700,4.31394580078125,0.0005109827034175396,0.0005856656352989376,0.00009318324737250805
1772644013549986800,4.32398681640625,0.0003258929937146604,0.0004463822697289288,-0.0005664818454533815
1772644013560028000,4.33402783203125,0.0022874840069562197,-0.00028293998911976814,0.000022104475647211075
1772644013570068700,4.34406884765625,-0.0005929910112172365,-0.00037348736077547073,0.0007182547124102712
1772644013580108500,4.354108642578125,0.0014604415046051145,0.00029876152984797955,-0.0020845725666731596
1772644013590149600,4.364149658203125,-0.00005276664160192013,0.0008817274938337505,0.00038604182191193104
1772644013600190700,4.374190673828125,-0.000031440285965800285,0.0012837927788496017,0.0012976429425179958
1772644013610231600,4.3842314453125,0.0010482051875442266,-0.00004752154927700758,0.0017019107472151518
1772644013620271600,4.394271728515625,-0.0016465223161503673,-0.0003717975923791528,-0.001019616611301899
1772644013630312700,4.404312744140625,-0.000030782539397478104,0.0002849379670806229,0.0005918622482568026
1772644013640353800,4.414353759765625,0.00012856617104262114,-0.0005117971450090408,-0.00047689001075923443
1772644013650394600,4.42439453125,-0.0002235037973150611,0.0010011446429416537,-0.000031076837331056595
1772644013660435700,4.434435791015625,0.0006713211769238114,0.00030103372409939766,0.00024189380928874016
1772644013670475800,4.444475830078125,-0.00039394316263496876,-0.0004196176305413246,-0.0008033968042582273
1772644013680516600,4.4545166015625,0.001198684680275619,0.00030288920970633626,-0.0003671704325824976
1772644013690557700,4.4645576171875,-0.0005459521198645234,-0.0009810207411646843,0.000013927929103374481
1772644013700598800,4.474598876953125,-0.00013786053750663996,-0.0002658030716702342,-0.0006530319806188345
1772644013710639600,4.4846396484375,-0.00027128495275974274,-0.0006881804438307881,0.0004260807763785124
1772644013720679700,4.4946796875,0.0013891211710870266,-0.0005907198647037148,-0.001321806339547038
1772644013730720800,4.504720703125,0.001141180982813239,0.0001666831085458398,0.0009312279289588332
1772644013740761900,4.514761962890625,-0.0005596099654212594,-0.0017688875086605549,-0.0003295035567134619
1772644013750802700,4.524802734375,-0.0008605472976341844,-0.0008871150203049183,-0.00003948528319597244
1772644013760842800,4.5348427734375,-0.000552543206140399,-0.0003227213164791465,-0.0009248785208910704
1772644013770883800,4.5448837890625,-0.0007008812390267849,0.0008663801709190011,0.0005497137317433953
1772644013780924700,4.554924560546875,0.00027144100749865174,-0.0006589386612176895,0.00004279520362615585
1772644013790965800,4.5649658203125,0.0007279068231582642,-0.0008046135772019625,-0.0001542787067592144
1772644013801006800,4.5750068359375,0.0009286170825362206,-0.0005750358104705811,-0.0004474467132240534
1772644013811047000,4.585046875,-0.0009702168172225356,0.0011789220152422786,-0.00031934864819049835
1772644013821087700,4.595087646484375,0.0003571526613086462,0.00015457894187420607,-0.001114261569455266
1772644013831128800,4.60512890625,0.00031241157557815313,0.00040811189683154225,0.0009827114408835769
1772644013841170000,4.615169921875,-0.0008668634109199047,-0.0002670568646863103,0.0007872686255723238
1772644013851210800,4.625210693359375,0.0007438163738697767,-0.0005208561196923256,0.0003843323793262243
1772644013861250600,4.63525048828125,0.0018819526303559542,0.0006735145580023527,-0.0005858773365616798
1772644013871291600,4.645291748046875,0.00045529723865911365,-0.0003126539522781968,0.0009395811939612031
1772644013881332700,4.655332763671875,-0.0006717747310176492,-0.00014199072029441595,0.0003306127618998289
1772644013891373600,4.66537353515625,-0.000326362787745893,0.0013416563160717487,-0.0007849852554500103
1772644013901413600,4.67541357421875,-0.00011706992518156767,-0.0011602593585848808,-0.0003107998054474592
1772644013911454700,4.685454833984375,-0.0006305273855105042,0.001052561216056347,-0.00048230751417577267
1772644013921495600,4.69549560546875,0.00003874755930155516,-0.0002767902333289385,-0.0005744828376919031
1772644013931536600,4.70553662109375,0.0006773736095055938,0.0007607773295603693,-0.0014562555588781834
1772644013941577700,4.71557763671875,-0.0003408686025068164,0.00039214384742081165,-0.0010751010850071907
1772644013951617800,4.72561767578125,-0.001461793202906847,0.0004981376696377993,0.0017707528313621879
1772644013961658600,4.73565869140625,0.0006929085357114673,-0.00020262086763978004,-0.0006785611622035503
1772644013971699700,4.74569970703125,0.0008300613262690604,-0.0008686775108799338,-0.0010860248003154993
1772644013981740800,4.75574072265625,0.0010812780819833279,-0.00022040260955691338,-0.0010315482504665852
1772644013991780900,4.76578076171875,-0.0002167465863749385,0.0003769444301724434,-0.00011542066931724548
1772644014001821700,4.77582177734375,0.00027752784080803394,-0.000029344228096306324,0.0009974442655220628
1772644014011862800,4.78586279296875,0.0005164133617654443,0.00036720052594318986,0.000789984012953937
1772644014021903600,4.795903564453125,0.00020195776596665382,-0.0000458036083728075,-0.0018489600624889135
1772644014031944400,4.8059443359375,0.00043924542842432857,-0.0007033380679786205,-0.0005424134433269501
1772644014041984500,4.815984619140625,0.0003627120750024915,0.0009473641403019428,-0.00031360448338091373
1772644014052025600,4.826025634765625,-0.0003486182540655136,0.000525519426446408,0.00039373093750327826
1772644014062066400,4.83606640625,-0.0014673498226329684,0.000807636184617877,-0.000780709320679307
1772644014072107500,4.846107421875,0.0005803547683171928,0.00006701104575768113,-0.0016683407593518496
1772644014082148600,4.856148681640625,0.0013967297272756696,-0.0005396323977038264,-0.00109830591827631
1772644014092188700,4.866188720703125,-0.0008565708994865417,0.001347749843262136,-0.0010314607061445713
1772644014102229500,4.8762294921875,0.001007922925055027,0.000003983150236308575,0.0005361678777262568
1772644014112270600,4.8862705078125,0.00009179557673633099,0.0008000020170584321,-0.000014840159565210342
1772644014122311700,4.896311767578125,0.0006636835169047117,-0.00014371355064213276,0.0011789187556132674
1772644014132351700,4.906351806640625,0.0006037623970769346,0.00004164251731708646,0.00040553673170506954
1772644014142392600,4.916392578125,-0.0004792658146470785,-0.000007596216164529324,-0.00002861744724214077
1772644014152433700,4.92643359375,0.00007866648957133293,0.0010424882639199495,0.0011120144044980407
1772644014162474800,4.936474853515625,-0.0007501870859414339,-0.0005373466410674155,-0.00020655617117881775
1772644014172515600,4.946515625,-0.0016231711488217115,0.0012088881339877844,-0.0006007042247802019
1772644014182555600,4.9565556640625,-0.001181650091893971,-0.0011583406012505293,-0.00041449861600995064
1772644014192596700,4.9665966796875,-0.0007108033169060946,0.0006139930337667465,0.00013704202137887478
1772644014202637600,4.976637451171875,-0.000022616120986640453,0.00009580736514180899,0.00006986921653151512
1772644014212678700,4.9866787109375,0.0012903222814202309,-0.00020805932581424713,0.00023205578327178955
1772644014222719700,4.9967197265625,-0.0001457546604797244,0.0005068965256214142,-0.000528976321220398
1772644014232759800,5.006759765625,0.00034080486511811614,0.00006481178570538759,-0.0007311101071536541
1772644014242800600,5.016800537109375,0.00005603616591542959,0.000027617032174021006,-0.00014050421305000782
1772644014252841700,5.026841796875,0.0005236872239038348,0.0005338839255273342,0.00006402633152902126
1772644014262882800,5.0368828125,0.001522897044196725,-0.0004546375712379813,0.0005822692764922976
1772644014272922600,5.046922607421875,0.0009244848042726517,-0.00015822774730622768,-0.00018685171380639076
1772644014282963500,5.05696337890625,0.0001766836503520608,0.00035989488242194057,-0.000007866183295845985
1772644014293004500,5.067004638671875,-0.000539440312422812,0.0004043696681037545,-0.0012347844894975424
1772644014303045600,5.077045654296875,-0.0008436699863523245,0.000029898423235863447,-0.0012906063348054886
1772644014313086500,5.08708642578125,-0.00014698703307658434,-0.000002325803507119417,-0.00008898810483515263
1772644014323126500,5.09712646484375,0.0012648857664316893,0.00010635779472067952,0.00022796867415308952
1772644014333167600,5.107167724609375,0.0006219987408258021,-0.0001040319912135601,-0.00006737583316862583
1772644014343208400,5.11720849609375,-0.0009253226453438401,0.00018889026250690222,-0.00117230205796659
1772644014353249500,5.12724951171875,-0.0010137396166101098,-0.0003333555650897324,0.000024256063625216484
1772644014363289600,5.13728955078125,-0.0009099632734432817,0.0011071040062233806,0.0003639721544459462
1772644014373330700,5.14733056640625,0.00012920214794576168,-0.00032008392736315727,0.0007514621829614043
1772644014383371500,5.15737158203125,0.0006596860475838184,-0.000008921080734580755,0.0006029263604432344
1772644014393412600,5.16741259765625,0.0009782001143321395,-0.0007759114960208535,0.0004359461599960923
1772644014403453700,5.17745361328125,0.0012064408510923386,0.00021950824884697795,0.0007537651108577847
1772644014413493800,5.18749365234375,0.00022799550788477063,-0.0005762442597188056,0.00029650027863681316
1772644014423534600,5.19753466796875,0.0004221759154461324,0.0005048582097515464,-0.00029685976915061474
1772644014433575700,5.20757568359375,-0.0009328403975814581,0.0008619880536571145,-0.0013826305512338877
1772644014443616500,5.217616455078125,0.0011856963392347097,-0.00027704640524461865,-0.0004658196121454239
1772644014453657600,5.22765771484375,0.00010551814921200275,-0.0007729270146228373,0.00031928042881190777
1772644014463697700,5.23769775390625,0.00009353749919682741,-0.00021097861463204026,-0.0015254088211804628
1772644014473738800,5.24773876953125,0.0000618459889665246,0.0009054185356944799,0.000533214770257473
1772644014483779600,5.257779541015625,0.0007791072130203247,0.0007407800876535475,0.0007153203478083014
1772644014493820700,5.267820556640625,0.00007656530942767859,-0.0015466089826077223,0.0010346333729103208
1772644014503860700,5.27786083984375,0.0002645751810632646,-0.0023956988006830215,0.000048968708142638206
1772644014513901800,5.28790185546875,-0.0005290468689054251,0.0005255226278677583,0.0013137039495632052
1772644014523942700,5.297942626953125,0.0003945187199860811,-0.0005569623317569494,-0.00033691152930259705
1772644014533983700,5.307983642578125,-0.00014903245028108358,-0.0020587188191711903,0.0005086421733722091
1772644014544024800,5.31802490234375,0.0014602208975702524,0.00031952548306435347,-0.00019373814575374126
1772644014555319600,5.329319580078125,0.00044547143625095487,-0.0010639384854584932,0.000061077531427145
1772644014565360600,5.339360595703125,0.00034533662255853415,-0.000307867128867656,0.0009513722034171224
1772644014575401500,5.3494013671875,0.0020054583437740803,-0.00004475534660741687,-0.00016381056047976017
1772644014585442600,5.359442626953125,0.0004640207043848932,0.0005059863906353712,-0.0002911097835749388
1772644014595482600,5.369482666015625,0.0007396548753604293,-0.0013087848201394081,0.0001756052952259779
1772644014605523700,5.379523681640625,-0.0006049751536920667,0.00090803048806265,0.0007417933084070683
1772644014615564500,5.389564453125,0.0008518864633515477,-0.0016516391187906265,-0.0014438808429986238
1772644014625605600,5.399605712890625,0.0005392313469201326,-0.00028969848062843084,0.0002624064218252897
1772644014635646500,5.409646484375,-0.00021581666078418493,0.00007709639612585306,-0.000025298912078142166
1772644014645686500,5.4196865234375,-0.0009612353751435876,0.00023262499598786235,0.0008897632360458374
1772644014655727600,5.4297275390625,0.0016257679089903831,-0.0017436110647395253,-0.0013104635290801525
1772644014665768700,5.439768798828125,0.000536002335138619,0.0000036888523027300835,0.0007633400382474065
1772644014675809500,5.4498095703125,-0.0000657881610095501,-0.0005248947418294847,0.0010743062011897564
1772644014685850600,5.4598505859375,0.00034087657695636153,-0.0002987924381159246,0.000507585471495986
1772644014695890700,5.469890625,0.00009472540114074945,0.00016309763304889202,-0.0004842267371714115
1772644014705931800,5.479931884765625,-0.00035827828105539083,-0.00010321842273697257,0.00017650355584919453
1772644014715972600,5.48997265625,0.0002338798949494958,0.0004429991531651467,-0.0005409985315054655
1772644014726013700,5.500013671875,0.0004477316979318857,-0.0005804536631330848,-0.001123432070016861
1772644014736053800,5.5100537109375,0.0001456080935895443,-0.002143263351172209,0.00009697489440441132
1772644014746094600,5.520094482421875,0.0013336442643776536,-0.0019097041804343462,-0.0002095550298690796
1772644014756135700,5.5301357421875,0.0014833564637228847,0.00014147826004773378,-0.0011493740603327751
1772644014766176800,5.5401767578125,-0.0006916471756994724,0.0005793019663542509,0.0002780801150947809
1772644014776217600,5.550217529296875,-0.00008354289457201958,0.0009685661643743515,0.0007888355758041143
1772644014786257400,5.56025732421875,-0.001170112518593669,-0.0004556924104690552,0.0006575417937710881
1772644014796298800,5.570298828125,-0.0008348107803612947,0.0007624495774507523,0.0004976593190804124
1772644014806339800,5.58033984375,0.0002885105204768479,-0.000026645022444427013,-0.000779592664912343
1772644014816380700,5.590380615234375,-0.00026913569308817387,0.0005939995171502233,-0.0006566408555954695
1772644014826420500,5.60042041015625,-0.00001879851333796978,0.0014451458118855953,0.0000762611161917448
1772644014836461600,5.610461669921875,0.000533491256646812,0.0012584147043526173,-0.0011538099497556686
1772644014846502700,5.620502685546875,-0.0001711811637505889,-0.00030219764448702335,0.00011571892537176609
1772644014856543500,5.63054345703125,0.0009173138532787561,0.0007050146232359111,0.0008626673370599747
1772644014866584600,5.64058447265625,-0.00018496846314519644,0.00026905513368546963,0.0000336251687258482
1772644014876624600,5.650624755859375,0.00043132383143529296,0.0018909536302089691,0.0004049296258017421
1772644014886665500,5.66066552734375,-0.0010334147373214364,0.000006234622560441494,0.0002699074102565646
1772644014896706600,5.67070654296875,0.0013503350783139467,0.0009188050171360373,-0.0005002876278012991
1772644014906747600,5.68074755859375,0.0003071748651564121,-0.00006470037624239922,-0.0007120091468095779
1772644014916788500,5.69078857421875,0.0006949220551177859,0.0004455503076314926,0.00036512932274490595
1772644014926829600,5.70082958984375,0.0006437893607653677,0.00007909937994554639,0.000169387087225914
1772644014936869600,5.71086962890625,-0.0005893108900636435,0.00016832828987389803,0.0005729066906496882
1772644014946910700,5.72091064453125,-0.0005493634380400181,0.0007254616357386112,0.00057264044880867
1772644014956951600,5.73095166015625,0.0002950612106360495,0.00038453511660918593,-0.001659192843362689
1772644014966992600,5.74099267578125,-0.0017153590451925993,-0.0010218801908195019,0.0008479070384055376
1772644014977032700,5.75103271484375,0.001570709515362978,0.00038806209340691566,-0.0000822022557258606
1772644014987073500,5.761073486328125,-0.0004077528137713671,-0.00011660694144666195,-0.0004150974564254284
1772644014997114600,5.771114501953125,0.0005034551722928882,-0.0002185528865084052,0.0007508501876145601
1772644015007155700,5.78115576171875,0.0022773868404328823,0.0006144839571788907,0.0013644425198435783
1772644015017196500,5.791196533203125,-0.00029653916135430336,-0.0008150284411385655,0.000005910173058509827
1772644015027236400,5.801236328125,-0.0008874945342540741,0.0010960559593513608,0.0007273606024682522
1772644015037277400,5.81127734375,0.0014168559573590755,-0.0011966489255428314,0.0004697644617408514
1772644015047318500,5.821318603515625,0.0002762241056188941,-0.00011061178520321846,-0.0006056199781596661
1772644015057359400,5.831359375,-0.000013376178685575724,0.0010963716777041554,-0.0018455944955348969
1772644015067399400,5.8413994140625,0.00047451493446715176,-0.0009707739809527993,0.0008173002861440182
1772644015077440500,5.8514404296875,-0.00037298165261745453,0.00035960919922217727,-0.00044510746374726295
1772644015087481600,5.861481689453125,0.00007336417911574244,-0.000059838639572262764,0.0008481235709041357
1772644015097522400,5.8715224609375,0.0007453541620634496,0.0007929203566163778,-0.00008931150659918785
1772644015107563500,5.8815634765625,-0.0002594565157778561,0.0007130255689844489,-0.0003108866512775421
1772644015117603600,5.891603515625,-0.0009933478431776166,0.0005119252018630505,-0.00040895072743296623
1772644015127644400,5.90164453125,-0.0000021192245185375214,0.0002669143723323941,-0.00015834718942642212
1772644015137685500,5.911685546875,0.0021204978693276644,-0.0002988101914525032,0.0005100127309560776
1772644015147726600,5.9217265625,-0.0009525236091576517,0.0011158609995618463,-0.0008657763246446848
1772644015157766700,5.9317666015625,-0.00142361456528306,0.00023079675156623125,0.0011505093425512314
1772644015167807500,5.941807373046875,-0.0003828511689789593,0.00046462228056043386,-0.0005230209790170193
1772644015177848600,5.9518486328125,0.0005692725535482168,0.0007795385899953544,-0.0003391783684492111
1772644015187889700,5.9618896484375,-0.00028693367494270205,-0.00023299525491893291,0.00015510432422161102
1772644015197930500,5.971930419921875,0.0008323080255649984,0.000983749981969595,0.00012499932199716568
1772644015207970300,5.98197021484375,0.0012043516617268324,-0.0005467687733471394,-0.0005405247211456299
1772644015218011400,5.992011474609375,0.0003130952827632427,-0.0002792367013171315,0.0013817863073199987
1772644015228052700,6.002052734375,-0.0006656163604930043,0.0009223815286532044,-0.0008941511623561382
1772644015238093600,6.012093505859375,0.0014779233606532216,-0.0011637797579169273,-0.00005590356886386871
1772644015248134700,6.022134765625,0.0005759106716141105,0.0013835339341312647,-0.0024077410344034433
1772644015258174500,6.032174560546875,0.00041635954403318465,0.0004725322942249477,-0.0006862429436296225
1772644015268215300,6.04221533203125,-0.0002036243095062673,-0.001602869015187025,0.00028740870766341686
1772644015278256400,6.05225634765625,-0.0008857408538460732,0.0003220999496988952,-0.00026107789017260075
1772644015288297500,6.06229736328125,-0.0007081080693751574,0.0008637869032099843,-0.0005183392204344273
1772644015298337500,6.072337646484375,-0.0014272683765739202,0.0008930932963266969,-0.0007751747034490108
1772644015308378400,6.08237841796875,0.0009456080151721835,-0.0011370342690497637,0.001928732730448246
1772644015318419500,6.09241943359375,-0.0004458848852664232,0.000013019307516515255,0.0006470922380685806
1772644015328460500,6.10246044921875,-0.0013188691809773445,-0.00013611768372356892,-0.0001510570291429758
1772644015338501400,6.11250146484375,-0.0004806483048014343,-0.00042118877172470093,0.001579637173563242
1772644015348541400,6.12254150390625,-0.0011176764965057373,-0.001441978383809328,-0.00013357424177229404
1772644015358582500,6.13258251953125,0.00038844780647195876,-0.0009525744244456291,0.00155549100600183
1772644015368623600,6.14262353515625,-0.0007513851160183549,0.0002868607407435775,0.00008462718687951565
1772644015378664400,6.15266455078125,0.000045212043914943933,0.00026732252445071936,-0.00006972439587116241
1772644015388704500,6.16270458984375,0.0009016846306622028,0.0010518897324800491,-0.0004705300088971853
1772644015398745600,6.17274560546875,-0.0005291475681588054,0.0003176048630848527,-0.00028205825947225094
1772644015408786400,6.182786376953125,-0.00032435054890811443,0.0006789958570152521,-0.0011856688652187586
1772644015418827500,6.19282763671875,0.00025339366402477026,-0.00014490552712231874,-0.000058931997045874596
1772644015428868600,6.20286865234375,0.0005881530232727528,0.00045137625420466065,0.000918980804271996
1772644015438908700,6.21290869140625,-0.001695122104138136,-0.00025039492174983025,0.0008955957600846887
1772644015448949500,6.222949462890625,-0.0002580803702585399,-0.000007514609023928642,0.0003717519575729966
1772644015458990600,6.232990478515625,-0.00005175295518711209,0.0011814188910648227,0.0009025947656482458
1772644015469031700,6.24303173828125,0.0005266856169328094,0.0010671692434698343,0.0010618518572300673
1772644015479071700,6.25307177734375,0.0007417342276312411,-0.00013171671889722347,-0.00118735758587718
1772644015489112600,6.263112548828125,-0.0001299184514209628,0.000566031550988555,-0.0023426369298249483
1772644015499153700,6.273153564453125,0.00015204231021925807,0.000058386416640132666,0.00004002684727311134
1772644015509194500,6.283194580078125,0.0011091823689639568,0.00011058436939492822,-0.0013280389830470085
1772644015519235600,6.293235595703125,-0.000551992270629853,-0.000010311952792108059,-0.0010034337174147367
1772644015529275400,6.303275390625,-0.0014081986155360937,-0.001131769036874175,0.0005148343043401837
1772644015539316500,6.31331640625,-0.0011083267163485289,0.0006139329634606838,-0.0007967725396156311
1772644015549357300,6.323357421875,-0.0006956330616958439,0.0010290771024301648,-0.00003619934432208538
1772644015559398400,6.3333984375,0.0015549329109489918,-0.00041277718264609575,0.0002766697434708476
1772644015569438500,6.3434384765625,-0.0005953033687546849,0.0014061618130654097,0.00011315173469483852
1772644015579479600,6.3534794921875,-0.0005822928505949676,-0.0002762872027233243,-0.00034397910349071026
1772644015589520400,6.363520263671875,-0.0006022664601914585,0.0001391659607179463,-0.0006089636590331793
1772644015599561500,6.3735615234375,0.0008021891699172556,0.00007410324178636074,0.0014495686627924442
1772644015609602600,6.3836025390625,0.000746795441955328,-0.0007674556691199541,-0.00033261883072555065
1772644015619642600,6.393642578125,0.000030309660360217094,0.000930710812099278,-0.0010455469600856304
1772644015629683500,6.403683349609375,-0.0004754246328957379,0.0005277745658531785,-0.0019102755468338728
1772644015639724500,6.413724609375,-0.0001234179362654686,0.0006956988363526762,0.000074329087510705
1772644015649765400,6.423765380859375,0.0018193579744547606,0.00015241396613419056,-0.00033526518382132053
1772644015659806500,6.433806396484375,-0.0009633081499487162,0.0015003655571490526,0.0008849190780892968
1772644015669846500,6.443846435546875,0.00042526397737674415,0.0005533454823307693,-0.0014253731351345778
1772644015679887600,6.4538876953125,-0.0003975518047809601,-0.002052223077043891,-0.0007088042329996824
1772644015689928400,6.463928466796875,0.0012205848470330238,0.0017805984243750572,0.00037936342414468527
1772644015699969500,6.473969482421875,-0.0006027074414305389,-0.0002812580205500126,-0.001714056357741356
1772644015710009600,6.484009521484375,-0.0001355889835394919,0.00007161078974604607,-0.00016436283476650715
1772644015720050700,6.49405078125,-0.0004294331301935017,0.000507500022649765,-0.0010119269136339426
1772644015730091500,6.504091552734375,-0.0013149343430995941,-0.0005801349179819226,-0.00040845456533133984
1772644015740132600,6.514132568359375,-0.0008096739184111357,0.00002708833198994398,0.0002397684147581458
1772644015750173700,6.524173583984375,0.0013269801856949925,0.00013574527110904455,-0.0006297535728663206
1772644015760213500,6.534213623046875,-0.0009517193539068103,0.0006600097985938191,-0.00046589807607233524
1772644015770254600,6.544254638671875,-0.0007948591373860836,0.0008272563572973013,-0.0005002529360353947
1772644015780295700,6.554295654296875,-0.0007723210728727281,0.000029200688004493713,-0.00007051415741443634
1772644015790336500,6.56433642578125,0.0010897611500695348,0.0005711539997719228,0.0005132507067173719
1772644015800376300,6.574376220703125,-0.0010425243526697159,0.0004903441295027733,-0.00019518588669598103
1772644015810417400,6.58441748046875,-0.00016687694005668163,-0.0003967548254877329,0.0002626115456223488
1772644015820458500,6.59445849609375,0.00012139679165557027,-0.00019717949908226728,-0.0009132612030953169
1772644015830499300,6.604499267578125,0.000899838749319315,0.000994052505120635,0.00027717172633856535
1772644015840539400,6.614539306640625,0.0005836198688484728,0.0014364816015586257,-0.000440588453784585
1772644015850580500,6.62458056640625,-0.00006512616528198123,-0.0006730082677677274,-0.00007387110963463783
1772644015860621600,6.63462158203125,0.0000810491619631648,0.000337638717610389,-0.0010372193064540625
1772644015870662400,6.644662353515625,-0.00012001954019069672,-0.00077502999920398,0.0007148744771257043
1772644015880703500,6.654703369140625,0.00011000176891684532,-0.00004047353286296129,-0.00003314274363219738
1772644015890743600,6.66474365234375,-0.0004822852788493037,-0.0009808357572183013,0.0012478376738727093
1772644015900784400,6.674784423828125,0.0005235440330579877,-0.00034376687835901976,0.0007286719046533108
1772644015910825500,6.684825439453125,-0.00022560317302122712,0.00046157301403582096,-0.00006308592855930328
1772644015920866600,6.694866455078125,-0.0006508216611109674,-0.000018327031284570694,-0.0010464841034263372
1772644015930907400,6.704907470703125,-0.0003554770373739302,0.001230429159477353,-0.0006222426891326904
1772644015940947500,6.714947509765625,0.0006705770501866937,-0.0005012474721297622,0.00014014099724590778
1772644015950988500,6.724988525390625,-0.000265790440607816,0.0009472457459196448,-0.0002710509579628706
1772644015961029600,6.735029541015625,-0.0004898974439129233,0.00023293623235076666,0.00008884072303771973
1772644015971070500,6.745070556640625,-0.00009681493975222111,0.0006374703953042626,-0.001862191129475832
1772644015981110500,6.755110595703125,-0.001207920373417437,0.0009233106975443661,-0.0016532992012798786
1772644015991151600,6.765151611328125,-0.0011408088030293584,-0.0004689899506047368,0.0011110618943348527
1772644016001192400,6.7751923828125,0.00019754451932385564,-0.00014013482723385096,-0.0010467581450939178
1772644016011233500,6.785233642578125,0.0003011414664797485,0.0014939808752387762,0.0010752486996352673
1772644016021275100,6.795275146484375,0.00020708650117740035,0.00010416470468044281,0.0001733365934342146
1772644016031315200,6.805315185546875,0.00019270542543381453,0.00012467103078961372,-0.00030496716499328613
1772644016041356000,6.81535595703125,0.00004280166467651725,0.00028218969237059355,0.0003128201933577657
1772644016051397000,6.825397216796875,0.0008673163829371333,0.00025555811589583755,-0.0010648330207914114
1772644016061438200,6.835438232421875,-0.0003640887443907559,-0.0004693386144936085,0.0005060754483565688
1772644016071478000,6.84547802734375,-0.0007670249906368554,0.0005711584235541523,0.00020593730732798576
1772644016081518800,6.855518798828125,-0.0007661719573661685,-0.000282797496765852,0.0006653657183051109
1772644016091560000,6.865559814453125,0.00021999655291438103,0.0008125606691464782,0.0003140948247164488
1772644016101600800,6.875600830078125,-0.0007981203962117434,0.0004042705404572189,0.00032533821649849415
1772644016111641900,6.885641845703125,-0.001962454291060567,-0.0008394257165491581,-0.0003732088953256607
1772644016121682000,6.895681884765625,-0.0002521343412809074,-0.0005132189253345132,-0.0006309009622782469
1772644016131723000,6.905722900390625,0.001001681899651885,-0.0004469061968848109,-0.0005797683261334896
1772644016141763800,6.915763916015625,-0.0001751622767187655,0.000552985817193985,0.001116584287956357
1772644016151805000,6.925804931640625,-0.0008100598934106529,-0.0000664654653519392,-0.0004501533694565296
1772644016161845000,6.935844970703125,-0.0011306684464216232,0.000055234646424651146,-0.0006630083080381155
1772644016171886000,6.945885986328125,-0.00034157378831878304,-0.00004996021743863821,-0.0004875059239566326
1772644016181927000,6.955927001953125,0.0006694981711916625,-0.00033216679003089666,-0.0017515134532004595
1772644016191968000,6.965968017578125,0.0010841523762792349,-0.00016998022329062223,0.0006021884037181735
1772644016202009000,6.976009033203125,-0.00024327397113665938,-0.0005603703903034329,0.000044665299355983734
1772644016212049000,6.986048828125,0.0007554113981314003,-0.00023945944849401712,-0.0006453597452491522
1772644016222090000,6.996090087890625,0.00022662297124043107,0.000309636234305799,-0.00027758022770285606
1772644016232131000,7.006131103515625,-0.0007454307633452117,-0.0004016940947622061,0.0001365412026643753
1772644016242172000,7.016171875,-0.00012189737753942609,-0.00039895367808640003,-0.00012543285265564919
1772644016252212000,7.0262119140625,0.0006791815394535661,0.001258331467397511,-0.00041917944326996803
1772644016262253000,7.036253173828125,0.000014376419130712748,-0.00023216521367430687,-0.0013314574025571346
1772644016272294100,7.046294189453125,-0.0005257126758806407,-0.00046545802615582943,0.00004805997014045715
1772644016282335000,7.0563349609375,0.00022735970560461283,0.00030814623460173607,-0.0001722725573927164
1772644016292376000,7.0663759765625,0.0003405440365895629,0.00014755758456885815,-0.00043166428804397583
1772644016302416100,7.076416015625,-0.0016938097542151809,-0.0007149528246372938,0.000485069933347404
1772644016312457000,7.08645703125,-0.0002799376379698515,0.0005170254735276103,-0.0006172123830765486
1772644016322498000,7.096498046875,-0.0004870325792580843,-0.0008712140843272209,0.00013895495794713497
1772644016332539100,7.1065390625,0.0005585245089605451,-0.0003497670404613018,0.00017011398449540138
1772644016342579000,7.116578857421875,-0.00010228424798697233,-0.0009406653698533773,0.0005415057530626655
1772644016352619800,7.126619873046875,0.0007336820708587766,0.0006942492909729481,-0.00024492572993040085
1772644016362660900,7.136660888671875,0.0013314677635207772,-0.00020055484492331743,-0.0012322270777076483
1772644016372702000,7.146701904296875,-0.00031383312307298183,-0.0006133448332548141,0.0006719331722706556
1772644016382742800,7.15674267578125,0.00051566754700616,0.0005923841963522136,-0.000654606381431222
1772644016392782800,7.166782958984375,-0.0011972776846960187,0.0006645558751188219,0.0002258347813040018
1772644016402824000,7.176823974609375,-0.00010547670535743237,0.00017393426969647408,-0.0010642476845532656
1772644016412865000,7.186864990234375,-0.00039176654536277056,-0.00031848426442593336,-0.00045438390225172043
1772644016422905900,7.19690576171875,-0.000247754855081439,0.00040986743988469243,0.0009987569646909833
1772644016432946000,7.20694580078125,0.0012835627421736717,-0.00023914489429444075,0.0013391089159995317
1772644016442987000,7.216987060546875,-0.0009033156093209982,-0.00036306504625827074,-0.001546757761389017
1772644016453027800,7.22702783203125,0.000141442462336272,-0.0010272575309500098,0.0004905604291707277
1772644016463069000,7.23706884765625,0.0005106775206513703,0.00029317475855350494,-0.00003170594573020935
1772644016473110000,7.247110107421875,-0.0008339525666087866,0.0002550915232859552,-0.000013596378266811371
1772644016483150000,7.257150146484375,0.0005257212906144559,-0.00018289429135620594,-0.0000348677858710289
1772644016493191000,7.26719091796875,0.00033583794720470905,0.00023761886404827237,-0.0001983859110623598
1772644016503232000,7.27723193359375,-0.0004576703067868948,0.0004166080616414547,0.0010682608699426055
1772644016513273000,7.287273193359375,0.0006339594256132841,0.0007585579296573997,0.00006371643394231796
1772644016523313200,7.297313232421875,0.0013223938876762986,-0.0001092253951355815,0.0003251581219956279
1772644016533354000,7.30735400390625,0.0006970837130211294,0.0006894567050039768,-0.002336404984816909
1772644016543395000,7.31739501953125,-0.000029994873329997063,-0.00006439711432904005,-0.00029360665939748287
1772644016553436200,7.327436279296875,-0.001695535727776587,-0.00011739402543753386,0.00006112642586231232
1772644016563477000,7.33747705078125,0.000021464540623128414,-0.000861549167893827,-0.0013215199578553438
1772644016573517000,7.34751708984375,0.00011520786210894585,-0.0007177384104579687,0.0004950222792103887
1772644016583558100,7.35755810546875,0.00006111140828579664,0.0006473485263995826,0.0007737992564216256
1772644016593599000,7.367598876953125,0.0008866913267411292,0.00001777720171958208,0.0006608811672776937
1772644016603640000,7.37764013671875,-0.0005028002196922898,-0.00009184039663523436,-0.0005617025308310986
1772644016613679900,7.387679931640625,0.0003044038894586265,-0.0001485657412558794,0.0009171506389975548
1772644016623721000,7.397720947265625,0.00041550747118890285,-0.0008512928616255522,-0.0004184539429843426
1772644016633761800,7.40776171875,-0.0008457655785605311,-0.0003644669195637107,0.0006388210458680987
1772644016643803000,7.417802978515625,-0.000026158406399190426,-0.0010168047156184912,-0.0005831029266119003
1772644016653844000,7.427843994140625,0.0008606743067502975,0.00007029756670817733,-0.00021851621568202972
1772644016663884000,7.437884033203125,0.000594932644162327,0.0004861257039010525,0.0003386761527508497
1772644016673924900,7.4479248046875,0.0006846811738796532,0.0009540431201457977,-0.00020514125935733318
1772644016683966000,7.457966064453125,0.00043422396993264556,0.00025116652250289917,0.0006761276163160801
1772644016694007000,7.468007080078125,0.0009362298296764493,-0.0007997167995199561,0.00019462802447378635
1772644016704046800,7.478046875,0.001226976397447288,0.00004624552093446255,-0.000912877731025219
1772644016714088000,7.488087890625,-0.00045161403249949217,0.0006329399184323847,-0.0007714638486504555
1772644016724129000,7.49812890625,0.0002973441150970757,-0.00023000314831733704,0.00018789921887218952
1772644016734169900,7.508169921875,-0.00012210372369736433,-0.00010803039185702801,-0.001007327577099204
1772644016744211000,7.5182109375,0.0010478765470907092,-0.0012552817352116108,-0.0022252637427300215
1772644016754251000,7.5282509765625,0.0014745149528607726,0.0005114592495374382,-0.0018841128330677748
1772644016764292000,7.5382919921875,-0.001245943596586585,0.0005089878104627132,0.0012680611107498407
1772644016774333000,7.5483330078125,0.00005367887206375599,-0.0009248581482097507,-0.00009387941099703312
1772644016784374000,7.5583740234375,-0.0006795009830966592,-0.0007279049605131149,0.000048564979806542397
1772644016794414000,7.5684140625,-0.0001300908625125885,0.00040873215766623616,0.00017772824503481388
1772644016804455200,7.578455078125,-0.0003855926916003227,-0.0011216708226129413,0.0008096609963104129
1772644016814496000,7.58849609375,0.00112814805470407,-0.0011989023769274354,-0.0000697148498147726
1772644016824537000,7.598537109375,0.0007865552324801683,-0.000707299797795713,0.0008194450056180358
1772644016834578000,7.608577880859375,-0.000704548554494977,0.0012719614896923304,-0.0009614108130335808
1772644016844618000,7.618617919921875,0.0013281941646710038,-0.001355594489723444,0.001202494720928371
1772644016854659000,7.6286591796875,0.002162562683224678,-0.0001702216686680913,-0.000736819114536047
1772644016864700200,7.6387001953125,0.002676611766219139,-0.00032643135637044907,-0.0007103581447154284
1772644016874741000,7.648740966796875,0.001477390294894576,-0.0004982051905244589,0.0004414590075612068
1772644016884782000,7.658781982421875,0.0013939044438302517,-0.000594132230617106,0.00048548763152211905
1772644016894822000,7.66882177734375,0.000912671210244298,0.0014298702590167522,-0.00042478088289499283
1772644016904863000,7.678863037109375,-0.00009528582450002432,0.00015944743063300848,0.00019976473413407803
1772644016914904000,7.688904052734375,0.000021626939997076988,0.00005824735853821039,-0.00030463794246315956
1772644016924945200,7.698945068359375,-0.00003449979703873396,0.0008324251975864172,0.0006279968656599522
1772644016934985000,7.70898486328125,0.0003090480458922684,0.0005237648147158325,0.0003670071018859744
1772644016945026000,7.719026123046875,0.000341228733304888,-0.0008414750918745995,-0.0009850386995822191
1772644016955067000,7.72906689453125,0.00031726027373224497,0.0005409717559814453,0.0006805022712796926
1772644016965108000,7.73910791015625,-0.0019545964896678925,0.0003000822616741061,0.000227365642786026
1772644016975148800,7.749148681640625,0.0006750087486580014,-0.00018487940542399883,-0.0008267136290669441
1772644016985188900,7.75918896484375,0.0001629669568501413,-0.0005467258160933852,0.0001580778043717146
1772644016995230000,7.76922998046875,-0.0003270546440035105,-0.0005776184843853116,0.0016148267313838005
1772644017005271000,7.77927099609375,0.00039743585512042046,-0.00003367033787071705,0.00008919346146285534
1772644017015312000,7.789311767578125,-0.0004973863251507282,-0.00025338109117001295,0.0006892036180943251
1772644017025352000,7.79935205078125,-0.00018875848036259413,-0.0009672348387539387,-0.000010164454579353333
1772644017035393000,7.80939306640625,-0.0016590896993875504,-0.0003262120299041271,-0.0007670349441468716
1772644017045434000,7.81943408203125,0.0003044348559342325,0.00007643061690032482,-0.0017665771301835775
1772644017055475000,7.829474853515625,-0.0007448506075888872,-0.0001952117308974266,0.00028086104430258274
1772644017065516000,7.83951611328125,0.0017150691710412502,0.00012191070709377527,-0.0002557761035859585
1772644017075556000,7.84955615234375,0.0007632553461007774,0.000603143940679729,0.00018710759468376637
1772644017085597000,7.859596923828125,-0.0005228128284215927,-0.00035640643909573555,-0.0005974741652607918
1772644017095638000,7.869637939453125,0.0010668279137462378,0.000555726233869791,-0.00004060729406774044
1772644017105679000,7.87967919921875,-0.0007486168760806322,0.000059137819334864616,-0.0000772024504840374
1772644017115719200,7.88971923828125,0.0011539453407749534,0.0001960243098437786,-0.0006875991821289062
1772644017125760000,7.899760009765625,0.0002874611527658999,-0.0012237208429723978,0.0017666446510702372
1772644017135801000,7.909801025390625,0.0011471295729279518,-0.0003438125131651759,0.00006328686140477657
1772644017145842200,7.91984228515625,0.0006340233376249671,-0.00043854035902768373,-0.00018311617895960808
1772644017155883000,7.929883056640625,0.0004161767428740859,0.0005468292511068285,0.0008933335775509477
1772644017165922800,7.9399228515625,-0.00007710198406130075,0.0004977284115739167,-0.00009774882346391678
1772644017175964200,7.949964111328125,0.00015858776168897748,0.000016228877939283848,0.0008506028680130839
1772644017186005000,7.9600048828125,0.0004529786529019475,0.00027206161757931113,-0.0008645900525152683
1772644017196046000,7.970046142578125,0.0012793575879186392,0.00019243312999606133,-0.0004403486382216215
1772644017206086000,7.9800859375,0.0007066928665153682,-0.0008426440181210637,-0.0007892672438174486
1772644017216127000,7.990126953125,-0.0010643091518431902,-0.0003595466259866953,0.0009484454058110714
1772644017226167800,8.000167724609375,0.0004991871537640691,0.00002496002707630396,0.0003805863671004772
1772644017236209000,8.010208984375,-0.0003335833316668868,0.001934979110956192,-0.00007960805669426918
1772644017246250000,8.02025,0.0005603255121968687,0.0012379405088722706,0.0005804386455565691
1772644017256290000,8.0302900390625,-0.00021492061205208302,0.0006629640702158213,0.00004168110899627209
1772644017266331000,8.040330810546875,0.0008530754130333662,0.0002487661549821496,-0.00031258980743587017
1772644017276372000,8.0503720703125,0.0006232446758076549,0.001451982301659882,0.0008751801215112209
1772644017286413000,8.0604130859375,-0.0007856263546273112,0.0005783747183158994,-0.0007386833894997835
1772644017296453000,8.070453125,0.0009827124886214733,0.00004734040703624487,0.000714603578671813
1772644017306494000,8.080493896484375,0.000269675743766129,0.0005567288608290255,0.0007528488058596849
1772644017316535000,8.09053515625,0.0005303992074914277,0.00018681585788726807,-0.0008767393883317709
1772644017326575900,8.100575927734376,-0.00027130998205393553,0.0019197934307157993,-0.0007710075005888939
1772644017336617000,8.110616943359375,0.00008795037865638733,0.00005451554898172617,0.0007946649566292763
1772644017346657000,8.120656982421876,-0.0008750769775360823,0.0002512846258468926,0.0006159264594316483
1772644017356698000,8.130697998046875,-0.0008859960362315178,0.0002531488426029682,-0.0008384257089346647
1772644017366739000,8.140739013671874,0.0016554261092096567,-0.00025010621175169945,0.0006601400673389435
1772644017376780000,8.150780029296875,-0.00036964158061891794,-0.00008099549449980259,-0.00022802408784627914
1772644017386820000,8.160820068359374,-0.0008442258695140481,0.0010696930112317204,0.00019728904590010643
1772644017396861200,8.170861083984375,0.0005941474228166044,-0.00011834315955638885,0.0008036908693611622
1772644017406902000,8.180902099609375,0.0007472132565453649,0.00026047416031360626,-0.00011108024045825005
1772644017416943000,8.190943115234376,0.0006172509747557342,0.00042212806874886155,0.001953402068465948
1772644017426984200,8.200984130859375,0.001587967504747212,0.0007408595411106944,0.0000672896858304739
1772644017437024000,8.21102392578125,0.00016370898811146617,0.0006910584052093327,-0.0010997075587511063
1772644017447065000,8.221065185546875,0.0004422022611834109,0.0007184278802014887,-0.0008164225146174431
1772644017457106200,8.231106201171874,0.0006102477200329304,-0.00036015233490616083,0.0013487273827195168
1772644017467147000,8.24114697265625,-0.00026690366212278605,0.0007948196725919843,0.0003217568155378103
1772644017477188000,8.25118798828125,0.00026413070736452937,0.00021052209194749594,0.0005928666796535254
1772644017487228000,8.261227783203125,0.00019014952704310417,0.0009143143543042243,-0.0002891251351684332
1772644017497269000,8.27126904296875,-0.00034727633465081453,-0.0014947811141610146,0.001729018404148519
1772644017507309800,8.281309814453126,-0.000923246843740344,0.00013586750719696283,-0.0008256144355982542
1772644017517351000,8.291350830078125,0.00014547980390489101,-0.000892911572009325,-0.000022937776520848274
1772644017527391000,8.301390869140626,0.000012788339518010616,-0.0010893981670960784,-0.0004623562563210726
1772644017537432000,8.31143212890625,0.00018323061522096395,-0.000025465385988354683,-0.0002485043369233608
1772644017547473000,8.321472900390624,0.00047213665675371885,0.0014225402846932411,0.0005806010449305177
1772644017557514000,8.331513916015625,0.001553113805130124,0.0007801858009770513,0.0009976520668715239
1772644017567555000,8.34155517578125,0.00048218818847090006,0.0009795839432626963,0.0013390043750405312
1772644017577595000,8.351594970703125,0.00020388781558722258,0.00043709808960556984,0.000034854281693696976
1772644017587636000,8.361635986328125,0.00025300122797489166,0.000022055464796721935,0.0006490040104836226
1772644017597677000,8.371677001953126,0.001116398023441434,-0.00010471104178577662,-0.0005851048044860363
1772644017607718000,8.3817177734375,-0.00030462804716080427,0.0007388326339423656,0.00038335565477609634
1772644017617758000,8.391758056640626,0.0004051044234074652,-0.00042949605267494917,0.0018664700910449028
1772644017627799000,8.401799072265625,-0.0007162176771089435,0.0011585918255150318,0.000040841056033968925
1772644017637840100,8.411840087890624,0.00029365299269557,0.0012177139287814498,0.0014302122872322798
1772644017647881000,8.421880859375,-0.0012357152299955487,0.0001572592882439494,0.0006405084859579802
1772644017657922000,8.431922119140625,-0.0005920290714129806,-0.0003689813893288374,-0.0005829478614032269
1772644017667962000,8.441962158203125,-0.001514072297140956,0.0010321792215108871,0.00030012219212949276
1772644017678003200,8.452003173828125,0.0003852942609228194,0.00011072552297264338,0.0000689597800374031
1772644017688044000,8.4620439453125,0.001201238832436502,0.000566010014154017,-0.00047129462473094463
1772644017698085000,8.472085205078125,0.0010148176224902272,-0.0008957991376519203,-0.0001735531259328127
1772644017708125200,8.482125244140626,0.00014749285764992237,-0.0013509951531887054,0.000039068516343832016
1772644017718166000,8.492166015625,-0.0006671681767329574,-0.0005797437625005841,0.0011480087414383888
1772644017728207000,8.50220703125,-0.0005861539393663406,0.0005990367499180138,0.0006975929718464613
1772644017738248200,8.512248291015625,-0.00003408058546483517,-0.0008206943748518825,0.00020144600421190262
1772644017748289000,8.5222890625,0.0009611370041966438,-0.0003326319856569171,0.00017800554633140564
1772644017758328800,8.532328857421875,0.0023347954265773296,-0.001751297852024436,0.0004206195008009672
1772644017768370000,8.542369873046875,-0.000018012127839028835,-0.00025366642512381077,0.00039392290636897087
1772644017778411000,8.552410888671876,-0.0004779400769621134,0.00027869950281456113,0.001262645935639739
1772644017788451800,8.562451904296875,-0.001462588901631534,-0.0003325188299641013,-0.0011676079593598843
1772644017798492000,8.572491943359376,-0.0008005269337445498,-0.00012319441884756088,-0.0011854511685669422
1772644017808533000,8.582532958984375,0.0012959650484845042,-0.0007067740662023425,0.0016604014672338963
1772644017818573800,8.59257373046875,-0.0012311084428802133,-0.0001104922266677022,-0.00016199960373342037
1772644017828615000,8.602614990234375,0.0002320249332115054,0.00032490177545696497,0.0006894146790727973
1772644017838656000,8.612656005859375,-0.0007613342022523284,0.00026071962201967835,-0.0004275150131434202
1772644017848696000,8.622696044921875,0.000705215148627758,0.00034652341855689883,0.0011398582719266415
1772644017858737000,8.63273681640625,-0.0011677860748022795,0.0004583761910907924,0.0004216036759316921
1772644017868778000,8.642778076171876,-0.0017010881565511227,0.001021829666569829,0.0009999774629250169
1772644017878819000,8.652819091796875,0.00047817645827308297,0.0000130242551676929,-0.0008157656993716955
1772644017888860000,8.66285986328125,0.0015629548579454422,-0.0010594245977699757,-0.00011811405420303345
1772644017898900000,8.67289990234375,0.0009387099416926503,-0.0013140228111296892,0.0005998741835355759
1772644017908941000,8.682941162109374,0.001348160207271576,-0.0009105174685828388,0.0004876403836533427
1772644017918982100,8.692982177734375,0.001166798872873187,0.0012770029716193676,-0.00135260378010571
1772644017929023000,8.70302294921875,-0.001662648282945156,0.00048797440831549466,0.00041858945041894913
1772644017939063000,8.71306298828125,0.0008718820754438639,-0.0002904676366597414,0.00031019863672554493
1772644017949104000,8.723104248046875,-0.0003244545077905059,0.0002918455866165459,0.0000963273923844099
1772644017959145000,8.73314501953125,0.00031576945912092924,-0.00022294343216344714,0.0004507942358031869
1772644017969186000,8.74318603515625,0.0002675349824130535,0.00036373420152813196,0.0006696564378216863
1772644017979227100,8.75322705078125,0.00022918544709682465,-0.0009326926665380597,0.00014741066843271255
1772644017989267200,8.76326708984375,0.0013378544244915247,-0.00041844171937555075,-0.00022745691239833832
1772644017999308000,8.77330810546875,0.0000829729251563549,-0.0001950025325641036,0.0003051753155887127
1772644018009349000,8.78334912109375,-0.0007903630612418056,0.0007282781880348921,-0.00006540422327816486
1772644018019390200,8.79339013671875,0.00027809711173176765,-0.0007369930390268564,0.0003883985336869955
1772644018029430300,8.80343017578125,-0.00041587790474295616,-0.000010413408745080233,0.0006620901403948665
1772644018039471000,8.81347119140625,0.00045790517469868064,-0.00023598322877660394,-0.00009531271643936634
1772644018049512200,8.82351220703125,-0.0005775921745225787,-0.00010485778329893947,-0.00024284794926643372
1772644018059553000,8.833552978515625,-0.00023617490660399199,0.0002168521168641746,0.0011555778328329325
1772644018069594000,8.843593994140624,-0.0008072061464190483,-0.002016804413869977,-0.0005334897432476282
1772644018079634200,8.85363427734375,0.0015206629177555442,-0.000553131103515625,-0.0002775599714368582
1772644018089675300,8.86367529296875,-0.00037282402627170086,0.00006283924449235201,0.0005063500721007586
1772644018099716000,8.873716064453125,-0.0002844070550054312,-0.0004471560241654515,-0.0017853002063930035
1772644018109757200,8.883757080078125,-0.0013057293836027384,0.0002045194269157946,-0.0006534566637128592
1772644018119798300,8.89379833984375,0.00035619025584310293,-0.0006313410121947527,0.0008146460168063641
1772644018129838300,8.90383837890625,0.0008141700527630746,0.00018338661175221205,0.00009695068001747131
1772644018139879200,8.913879150390626,-0.0009376573143526912,-0.000017149432096630335,0.0004684616578742862
1772644018149920300,8.923920166015625,-0.00016540009528398514,0.00014671403914690018,0.0004814682761207223
1772644018159961300,8.93396142578125,-0.0013720783172175288,-0.000999510521069169,0.0008335381280630827
1772644018170001200,8.944001220703125,0.0008188635692931712,-0.00043569947592914104,0.000691017834469676
1772644018180042200,8.954042236328124,-0.000853601610288024,-0.0001938843633979559,-0.0006187248509377241
1772644018190083300,8.964083251953125,-0.0009006368927657604,-0.0008485524449497461,-0.0006617186591029167
1772644018200124200,8.974124267578125,0.0004786142962984741,-0.00023203063756227493,-0.00024653179571032524
1772644018210165200,8.984165283203126,0.000879086263012141,0.00100565270986408,0.0019775833934545517
1772644018220205000,8.994205078125,-0.00043278688099235296,-0.00016240979311987758,-0.000636309152469039
1772644018230246100,9.00424609375,0.00011746643576771021,-0.00041372247505933046,0.000040057115256786346
1772644018240287000,9.014286865234375,0.00021467183250933886,-0.00005419575609266758,-0.0003996307495981455
1772644018250328000,9.024328125,0.0009240349172614515,-0.0007967919809743762,0.000253231730312109
1772644018260369200,9.034369140625,0.0006523925112560391,-0.00004844367504119873,-0.0009555770084261894
1772644018270409200,9.0444091796875,-0.00021987967193126678,-0.0004304561298340559,-0.00005568633787333965
1772644018280450000,9.054449951171875,-0.00047900527715682983,-0.0008435123600065708,0.0009371400810778141
1772644018290491100,9.0644912109375,0.0009751463658176363,0.0005466870497912169,0.0008756513707339764
1772644018300532200,9.0745322265625,-0.0005660249153152108,0.0009509549126960337,-0.0008269075769931078
1772644018310572000,9.084572021484375,0.0007331021479330957,0.0013132340973243117,-0.00010707485489547253
1772644018320613000,9.094613037109376,-0.0003521359758451581,-0.00011129071936011314,0.00024073407985270023
1772644018330654200,9.104654296875,-0.0012502595782279968,0.000397286843508482,-0.0005802398081868887
1772644018340695000,9.114695068359374,0.0003015642869286239,-0.0005196395795792341,-0.0004896924365311861
1772644018350736100,9.124736083984375,-0.00045148038771003485,-0.0001755080884322524,0.00027793855406343937
1772644018360776200,9.134776123046874,-0.0000597294420003891,-0.0011310502886772156,0.0001327961217612028
1772644018370817300,9.1448173828125,-0.001335670705884695,0.0003504668129608035,0.00007406924851238728
1772644018380858000,9.154858154296875,0.000434532412327826,-0.00005539890844374895,0.0002972420770674944
1772644018390899200,9.164899169921876,0.00046528829261660576,-0.00018216820899397135,-0.0009419168345630169
1772644018400940300,9.174940185546875,0.00015636160969734192,0.00022449652897194028,0.0006927313515916467
1772644018410980400,9.18498046875,0.0011692506959661841,0.000846021284814924,0.000766686862334609
1772644018421021200,9.195021240234375,-0.0004946922417730093,0.0007235158700495958,-0.0004871294368058443
1772644018431062300,9.205062255859374,-0.0008414345793426037,-0.0008634726982563734,-0.000996206421405077
1772644018441103000,9.21510302734375,0.0008270358666777611,0.0018023515585809946,-0.00014745700173079967
1772644018451144200,9.225144287109375,-0.00018076272681355476,0.00014638423454016447,-0.00003327522426843643
1772644018461184300,9.235184326171876,0.0012986232759431005,0.0004284129827283323,-0.00021277228370308876
1772644018471225300,9.245225341796875,0.0009197891340591013,0.0006395276868715882,0.0008994619129225612
1772644018481266200,9.25526611328125,0.0013490907149389386,0.0000046300701797008514,-0.0002241258043795824
1772644018491307300,9.265307373046875,0.000030703493393957615,-0.000014496734365820885,-0.0011788152623921633
1772644018501347000,9.27534716796875,0.0003156617749482393,0.00026966253062710166,0.0001399819739162922
1772644018511388200,9.28538818359375,0.00032916932832449675,0.0008503166027367115,0.00007579219527542591
1772644018521429000,9.295428955078124,-0.00042929896153509617,0.0011549822520464659,0.0013647620799019933
1772644018531470000,9.305469970703125,-0.0003388341283425689,0.0003636032924987376,0.00015213526785373688
1772644018541511200,9.31551123046875,0.0008252335246652365,0.0009542924235574901,-0.00048489286564290524
1772644018560337200,9.334337158203125,-0.0011960853589698672,-0.0004815387073904276,0.0001790223177522421
1772644018570378000,9.3443779296875,0.0019523038063198328,-0.00043866189662367105,0.00010445364750921726
1772644018580418000,9.35441796875,0.0004116466734558344,0.0019689807668328285,-0.0003282018005847931
1772644018590459100,9.364459228515624,0.0021256571635603905,0.000259231252130121,-0.00034471345134079456
1772644018600500200,9.374500244140625,-0.0005731065757572651,-0.0013093099696561694,-0.00027729314751923084
1772644018610541000,9.384541015625,0.0009904352482408285,0.00016182014951482415,-0.0006567935924977064
1772644018620582100,9.39458203125,0.00013223057612776756,-0.000057042110711336136,-0.0005748274270445108
1772644018630622200,9.404622314453125,0.0001468779519200325,-0.0012722425162792206,0.00010720803402364254
1772644018640663000,9.4146630859375,0.0005279422621242702,-0.0006140356417745352,0.00044864113442599773
1772644018650704100,9.4247041015625,-0.00048006419092416763,0.000686652201693505,0.0004987085703760386
1772644018660745200,9.4347451171875,-0.000242497306317091,-0.00018016260582953691,-0.0003794881049543619
1772644018670786000,9.4447861328125,0.0007487311959266663,-0.00006404879968613386,0.0002796442713588476
1772644018680826000,9.454826171875,0.00023182888980954885,0.00015661842189729214,0.00005710311233997345
1772644018690867200,9.4648671875,0.0007785758934915066,-0.0006002519512549043,-0.00041427649557590485
1772644018700908300,9.474908203125,0.0008765115635469556,0.0005607460625469685,0.0004946893313899636
1772644018710949000,9.48494921875,-0.00004440953489392996,-0.0002986559411510825,0.000450747087597847
1772644018720989200,9.4949892578125,-0.0005278061144053936,0.00009274139301851392,-0.00015680864453315735
1772644018731030300,9.5050302734375,0.00019417691510170698,0.006063015665858984,0.0014751763083040714
1772644018741071000,9.515071044921875,0.00036549835931509733,0.001663103001192212,0.002329328330233693
1772644018751112200,9.5251123046875,0.001200399361550808,0.0011198181891813874,0.0008273054845631123
1772644018761153300,9.5351533203125,-0.00021028215996921062,0.0005344326491467655,-0.0002671070396900177
1772644018771193300,9.545193359375,-0.0005314594600349665,0.0003978124586865306,0.0007366384379565716
1772644018781234200,9.555234130859375,-0.00043953314889222383,-0.002652614377439022,-0.00014611007645726204
1772644018791275300,9.565275146484375,0.00011653488036245108,-0.0026587394531816244,-0.0002129552885890007
1772644018801316400,9.57531640625,0.0010557521600276232,-0.0003979197354055941,-0.00032070023007690907
1772644018811357200,9.585357177734375,0.0006576095474883914,0.0005195392295718193,-0.0000029851216822862625
1772644018821397000,9.59539697265625,0.0015635916497558355,-0.00032429053680971265,-0.0003516911529004574
