time,seconds_elapsed,z,y,x
1772651406162517200,0.339517333984375,0.02950763702392578,-0.007395446300506592,0.02881401777267456
1772651406182521300,0.359521240234375,0.05406761169433594,-0.009667187929153442,0.03150567412376404
1772651406202525700,0.379525634765625,0.04778003692626953,-0.02166774868965149,0.026672661304473877
1772651406222529800,0.39952978515625,0.046280860900878906,-0.019349098205566406,0.012255728244781494
1772651406242534000,0.419533935546875,0.02920055389404297,0.0014515817165374756,-0.025964707136154175
1772651406262539800,0.439539794921875,0.013041496276855469,0.016029059886932373,0.007573813199996948
1772651406282546700,0.459546630859375,0.010359764099121094,-0.002930968999862671,-0.009246736764907837
1772651406302553600,0.4795537109375,-0.00400543212890625,0.0019070804119110107,-0.024126887321472168
1772651406322560300,0.499560302734375,0.045996665954589844,0.004190891981124878,-0.03406119346618652
1772651406342567200,0.519567138671875,0.017261505126953125,0.028298676013946533,-0.024577319622039795
1772651406362574000,0.539573974609375,0.012478828430175781,0.002204030752182007,0.012056708335876465
1772651406382580700,0.559580810546875,0.029252052307128906,0.002249002456665039,-0.01255086064338684
1772651406402587600,0.579587646484375,0.024454116821289062,0.009373575448989868,-0.03879842162132263
1772651406422594600,0.599594482421875,0.038826942443847656,-0.0002675056457519531,-0.014897137880325317
1772651406442601200,0.619601318359375,0.005886077880859375,0.006309002637863159,0.00011873245239257812
1772651406462608100,0.639608154296875,0.03463459014892578,0.006245672702789307,-0.01202160120010376
1772651406482615000,0.659614990234375,0.013077735900878906,-0.008028864860534668,-0.023946642875671387
1772651406502621700,0.67962158203125,0.02745532989501953,0.0016033053398132324,-0.014410287141799927
1772651406522628600,0.699628662109375,0.017867088317871094,0.011126309633255005,-0.004723697900772095
1772651406542635300,0.71963525390625,0.020265579223632812,-0.00793546438217163,-0.01424911618232727
1772651406562642200,0.73964208984375,0.03224468231201172,-0.0005994141101837158,-0.0045127272605896
1772651406582649000,0.759649169921875,0.02506256103515625,-0.0004932284355163574,-0.01168757677078247
1772651406602655700,0.77965576171875,0.034651756286621094,0.0067822933197021484,-0.0213528573513031
1772651406622662700,0.79966259765625,0.04422569274902344,-0.019766151905059814,-0.014176607131958008
1772651406642669600,0.819669677734375,0.013088226318359375,-0.00539746880531311,-0.016673654317855835
1772651406662676200,0.83967626953125,0.020280838012695312,-0.0005075037479400635,-0.031144917011260986
1772651406682683100,0.85968310546875,0.005913734436035156,0.0019885599613189697,-0.016766488552093506
1772651406702690000,0.87968994140625,0.015482902526855469,0.011303722858428955,-0.004486531019210815
1772651406722696700,0.89969677734375,0.02267169952392578,-0.0030164718627929688,-0.021594464778900146
1772651406742703600,0.91970361328125,0.029863357543945312,-0.01972636580467224,-0.00696292519569397
1772651406762710500,0.93971044921875,0.017892837524414062,-0.012382149696350098,-0.016536235809326172
1772651406782717700,0.9597177734375,0.022690773010253906,0.01880130171775818,-0.006810128688812256
1772651406802724900,0.979724853515625,0.027482032775878906,-0.0004183948040008545,-0.031457751989364624
1772651406822732000,0.99973193359375,0.013133049011230469,-0.0025035738945007324,-0.019135236740112305
1772651406842739200,1.0197392578125,0.015230178833007812,0.014845579862594604,-0.024583518505096436
1772651406862746400,1.039746337890625,0.02931976318359375,0.005418449640274048,-0.012856155633926392
1772651406882753300,1.059753173828125,0.02213573455810547,0.005564451217651367,-0.01754295825958252
1772651406902760400,1.079760498046875,0.012569427490234375,-0.0015153288841247559,-0.015394121408462524
1772651406922767600,1.099767578125,0.038916587829589844,-0.011146336793899536,-0.005802899599075317
1772651406942774800,1.11977490234375,0.022139549255371094,-0.006390810012817383,-0.020301222801208496
1772651406962782000,1.139781982421875,0.029329299926757812,0.012740254402160645,-0.015937447547912598
1772651406982788900,1.159788818359375,0.03172111511230469,0.01973336935043335,-0.035277217626571655
1772651407002796000,1.179796142578125,0.00296783447265625,0.0005411803722381592,-0.027901411056518555
1772651407022803200,1.19980322265625,0.0077457427978515625,-0.00931975245475769,-0.03269970417022705
1772651407042810400,1.219810302734375,0.015526771545410156,0.002078324556350708,-0.01515209674835205
1772651407062817500,1.239817626953125,0.029603004455566406,0.0019913911819458008,-0.02018037438392639
1772651407082824700,1.25982470703125,0.017930030822753906,0.014091670513153076,-0.0297277569770813
1772651407102831600,1.27983154296875,0.037102699279785156,0.002134978771209717,-0.02037772536277771
1772651407122838800,1.2998388671875,0.013138771057128906,-0.00033932924270629883,-0.022634118795394897
1772651407142846000,1.319845947265625,0.008358001708984375,0.01639065146446228,-0.02536642551422119
1772651407162853000,1.33985302734375,0.022721290588378906,0.013858497142791748,-0.020488828420639038
1772651407182860300,1.3598603515625,0.025109291076660156,0.0162619948387146,-0.029838770627975464
1772651407202867500,1.379867431640625,0.013147354125976562,-0.00032588839530944824,-0.015644580125808716
1772651407222874600,1.39987451171875,0.013155937194824219,0.021244704723358154,-0.006302297115325928
1772651407242881500,1.419881591796875,0.020325660705566406,0.002495318651199341,-0.01808914542198181
1772651407262887700,1.4398876953125,0.024809837341308594,0.007144749164581299,-0.008487284183502197
1772651407282893000,1.45989306640625,0.020009994506835938,0.00945177674293518,-0.03230470418930054
1772651407302898700,1.479898681640625,0.015511512756347656,-0.009795427322387695,-0.00822824239730835
1772651407322904300,1.499904296875,0.024782180786132812,-0.0004490315914154053,-0.005855828523635864
1772651407342909700,1.51990966796875,0.02478313446044922,-0.010056734085083008,-0.020302295684814453
1772651407362915300,1.539915283203125,0.046044349670410156,-0.0053446292877197266,-0.030002355575561523
1772651407382920700,1.559920654296875,0.022095680236816406,0.002123326063156128,-0.02981013059616089
1772651407402926300,1.57992626953125,-0.001270294189453125,0.004535257816314697,-0.010312318801879883
1772651407422932000,1.599931884765625,0.005924224853515625,0.004601955413818359,-0.02242162823677063
1772651407442937300,1.619937255859375,0.026877403259277344,-0.0073465704917907715,-0.0197809636592865
1772651407462943000,1.63994287109375,0.00560760498046875,-0.0027408599853515625,-0.024538278579711914
1772651407482948400,1.6599482421875,0.022382736206054688,-0.00511014461517334,-0.015133291482925415
1772651407502954000,1.6799541015625,0.0059108734130859375,0.00449487566947937,-0.0054180920124053955
1772651407522959400,1.69995947265625,0.010699272155761719,-0.005166590213775635,-0.017417103052139282
1772651407542965000,1.719965087890625,0.010384559631347656,0.0019311308860778809,0.0020722150802612305
1772651407562970400,1.739970458984375,0.007989883422851562,0.018707603216171265,-0.02430078387260437
1772651407582976000,1.75997607421875,0.04122447967529297,0.016216427087783813,-0.012352049350738525
1772651407602981600,1.779981689453125,0.012776374816894531,0.011390388011932373,-0.014767616987228394
1772651407622987000,1.799987060546875,0.03402519226074219,-0.005516916513442993,-0.02421969175338745
1772651407642992600,1.81999267578125,0.025045394897460938,-0.006040394306182861,-0.009874343872070312
1772651407662998300,1.839998291015625,-0.0013189315795898438,0.0010093748569488525,-0.01682370901107788
1772651407683003600,1.860003662109375,0.039404869079589844,0.017786473035812378,-0.016794472932815552
1772651407703009300,1.88000927734375,0.027419090270996094,-0.0062995851039886475,-0.007186681032180786
1772651407723014700,1.9000146484375,0.017838478088378906,0.0010139048099517822,-0.019024193286895752
1772651407743020300,1.920020263671875,0.02262592315673828,-0.010989189147949219,0.00021070241928100586
1772651407763026700,1.940026611328125,0.02263355255126953,0.015378177165985107,-0.019172996282577515
1772651407783033300,1.960033447265625,0.015437126159667969,-0.00871121883392334,-0.031012505292892456
1772651407803040300,1.980040283203125,0.034587860107421875,-0.006293892860412598,0.0005624294281005859
1772651407823047200,2.000047119140625,0.015430450439453125,-0.013289958238601685,-0.00893518328666687
1772651407843053800,2.0200537109375,0.015424728393554688,-0.0032365918159484863,-0.020922094583511353
1772651407863060700,2.040060791015625,0.010639190673828125,0.00866621732711792,-0.027964383363723755
1772651407883067600,2.060067626953125,0.04147815704345703,-0.0005446970462799072,-0.01101270318031311
1772651407903074300,2.08007421875,0.010630607604980469,-0.012648195028305054,-0.011036098003387451
1772651407923081200,2.100081298828125,0.008219718933105469,0.001432657241821289,0.0010139644145965576
1772651407943087900,2.120087890625,0.038756370544433594,0.02055796980857849,-0.010871827602386475
1772651407963094800,2.1400947265625,0.005827903747558594,-0.000825732946395874,-0.01568782329559326
1772651407983101700,2.160101806640625,0.0106201171875,0.008777022361755371,0.0011085867881774902
1772651408003108400,2.1801083984375,-0.0013742446899414062,-0.0010375678539276123,-0.015515714883804321
1772651408023115300,2.200115234375,0.017493247985839844,0.010849207639694214,-0.015743792057037354
1772651408043122200,2.2201220703125,0.010003089904785156,0.010764002799987793,-0.004034101963043213
1772651408063128800,2.24012890625,0.021979331970214844,-0.003588348627090454,-0.011494934558868408
1772651408083135700,2.2601357421875,0.017175674438476562,-0.0038769543170928955,-0.023485541343688965
1772651408103142400,2.280142333984375,0.017181396484375,0.02023908495903015,-0.02105534076690674
1772651408123149300,2.3001494140625,0.0195770263671875,0.005935311317443848,-0.011339038610458374
1772651408143156200,2.32015625,0.017168045043945312,0.0008001327514648438,-0.018646329641342163
1772651408163163000,2.340162841796875,0.021966934204101562,0.00575566291809082,-0.023462116718292236
1772651408183169800,2.360169677734375,0.0099945068359375,-0.013426154851913452,-0.01639556884765625
1772651408203176700,2.3801767578125,0.017179489135742188,0.01766863465309143,0.00033926963806152344
1772651408223183400,2.400183349609375,0.03155040740966797,-0.003971010446548462,-0.023679107427597046
1772651408243190300,2.420190185546875,0.01958179473876953,-0.018258988857269287,-0.026245683431625366
1772651408263196700,2.44019677734375,0.017179489135742188,-0.0015236139297485352,-0.006903290748596191
1772651408283202800,2.460202880859375,0.0028009414672851562,0.010413289070129395,-0.006774872541427612
1772651408303209000,2.480208984375,0.02435779571533203,0.0031983554363250732,-0.021153122186660767
1772651408323215000,2.500215087890625,0.009980201721191406,0.005501419305801392,-0.006708681583404541
1772651408343221500,2.520221435546875,0.04831409454345703,-0.01124417781829834,-0.014079749584197998
1772651408363227600,2.5402275390625,0.009983062744140625,-0.0017416775226593018,-0.01409614086151123
1772651408383233800,2.56023388671875,0.033942222595214844,-0.011247962713241577,-0.014124363660812378
1772651408403240000,2.580239990234375,0.019568443298339844,0.005582153797149658,-0.021176695823669434
1772651408423246000,2.60024609375,0.0027904510498046875,0.022144556045532227,-0.009222447872161865
1772651408443252500,2.62025244140625,0.033934593200683594,0.0029935240745544434,-0.013791769742965698
1772651408463258600,2.640258544921875,0.00518798828125,-0.008901655673980713,-0.03788688778877258
1772651408483264800,2.6602646484375,0.026742935180664062,-0.013661175966262817,-0.018283605575561523
1772651408503271000,2.68027099609375,0.02674102783203125,0.0077972412109375,-0.022852152585983276
1772651408523277000,2.700277099609375,0.048297882080078125,0.014891326427459717,-0.01811927556991577
1772651408543283200,2.720283203125,0.036319732666015625,0.01728975772857666,-0.025562137365341187
1772651408563289600,2.74028955078125,0.012661933898925781,-0.023447424173355103,-0.013207107782363892
1772651408583295700,2.760295654296875,0.015063285827636719,-0.0042563676834106445,-0.018165886402130127
1772651408603302000,2.780302001953125,0.027052879333496094,-0.008758991956710815,-0.010949879884719849
1772651408623308000,2.80030810546875,0.03154468536376953,0.0031302273273468018,-0.011076539754867554
1772651408643314200,2.820314208984375,0.048305511474609375,-0.008971601724624634,-0.018218278884887695
1772651408663320300,2.8403203125,0.005488395690917969,0.02206781506538391,-0.018385738134384155
1772651408683326700,2.86032666015625,0.017472267150878906,-0.008824348449707031,-0.018239855766296387
1772651408703332900,2.880332763671875,0.015084266662597656,-0.0016409456729888916,-0.030440151691436768
1772651408723339000,2.900339111328125,0.024370193481445312,-0.008978575468063354,-0.016405344009399414
1772651408743345200,2.92034521484375,0.017482757568359375,0.0030451416969299316,-0.01871931552886963
1772651408763351600,2.9403515625,0.029462814331054688,0.01016572117805481,-0.01889786124229431
1772651408783358200,2.960358154296875,0.019867897033691406,0.002813279628753662,-0.004358142614364624
1772651408803364600,2.980364501953125,0.017477989196777344,0.0027517974376678467,-0.0070015788078308105
1772651408823371000,3.00037109375,0.033962249755859375,-0.006670534610748291,-0.004850566387176514
1772651408843377700,3.020377685546875,0.02736949920654297,-0.00970911979675293,-0.028710097074508667
1772651408863384000,3.040384033203125,0.02017688751220703,0.006951689720153809,-0.006823241710662842
1772651408883390700,3.060390625,0.020165443420410156,-0.012251347303390503,-0.02094966173171997
1772651408903397000,3.080397216796875,0.027359962463378906,0.007006019353866577,-0.01623484492301941
1772651408923403500,3.100403564453125,0.034549713134765625,-0.009603172540664673,-0.020593881607055664
1772651408943410200,3.12041015625,0.005810737609863281,-0.0024130046367645264,-0.013586252927780151
1772651408963416600,3.14041650390625,0.012999534606933594,0.014542251825332642,-0.018195539712905884
1772651408983423000,3.160423095703125,0.01777935028076172,0.002454698085784912,-0.0012583434581756592
1772651409003429600,3.1804296875,-0.006168365478515625,0.002554476261138916,-0.02049422264099121
1772651409023436000,3.20043603515625,0.03695201873779297,-0.002232849597930908,-0.01811206340789795
1772651409043442700,3.220442626953125,0.0246734619140625,-0.01109766960144043,-0.013729661703109741
1772651409063449000,3.240448974609375,0.015088081359863281,0.0008741319179534912,-0.030404120683670044
1772651409083455500,3.26045556640625,0.010291099548339844,0.007845699787139893,-0.0329015851020813
1772651409103462100,3.280462158203125,0.0007076263427734375,-0.008857667446136475,-0.015993177890777588
1772651409123468500,3.300468505859375,0.02674102783203125,0.0076847076416015625,-0.0038512051105499268
1772651409143475200,3.32047509765625,0.005499839782714844,0.0005959868431091309,-0.026092469692230225
1772651409163481600,3.340481689453125,0.026757240295410156,0.005378931760787964,-0.016478121280670166
1772651409183488000,3.360488037109375,0.04832172393798828,0.014992982149124146,-0.012114733457565308
1772651409203494700,3.38049462890625,0.03154277801513672,-0.009103059768676758,-0.026329010725021362
1772651409223501000,3.4005009765625,0.01717090606689453,0.00520855188369751,-0.004909694194793701
1772651409243507500,3.420507568359375,0.014788627624511719,0.0028572678565979004,-0.019616633653640747
1772651409263515000,3.440514892578125,0.024370193481445312,0.002694040536880493,-0.01745051145553589
1772651409283522800,3.460522705078125,0.03635406494140625,-0.004444479942321777,-0.010352075099945068
1772651409303530800,3.48053076171875,0.017192840576171875,0.0028919875621795654,-0.010224670171737671
1772651409323538700,3.50053857421875,0.02916431427001953,-0.013967901468276978,-0.01498645544052124
1772651409343546600,3.520546630859375,0.012388229370117188,-0.006779700517654419,-0.027016550302505493
1772651409363554300,3.54055419921875,0.005217552185058594,-0.011305689811706543,-0.019910067319869995
1772651409383562200,3.560562255859375,0.01718902587890625,-0.0017751753330230713,-0.024904757738113403
1772651409403570200,3.580570068359375,0.01960277557373047,-0.0014705359935760498,-0.025029897689819336
1772651409423578000,3.600578125,0.009724617004394531,-0.015774667263031006,-0.020203620195388794
1772651409443586000,3.6205859375,0.0034341812133789062,0.022030919790267944,-0.02843567728996277
1772651409463593700,3.64059375,0.0034265518188476562,0.01481524109840393,-0.021068841218948364
1772651409483601700,3.6606015625,0.029770851135253906,0.007561683654785156,-0.013804256916046143
1772651409503609600,3.680609619140625,0.010614395141601562,0.007603466510772705,-0.02110767364501953
1772651409523617500,3.700617431640625,0.029786109924316406,0.0077481865882873535,-0.01160159707069397
1772651409543625500,3.72062548828125,0.027388572692871094,0.010123670101165771,-0.02832794189453125
1772651409563633200,3.740633056640625,0.029770851135253906,0.009945482015609741,-0.018315047025680542
1772651409583641000,3.76064111328125,0.029767990112304688,-0.02127721905708313,-0.00846359133720398
1772651409603649000,3.78064892578125,0.022592544555664062,-0.009282737970352173,-0.023447394371032715
1772651409623657000,3.800656982421875,0.015414237976074219,-0.006777256727218628,-0.011249572038650513
1772651409643665000,3.820664794921875,0.033985137939453125,-0.001386404037475586,-0.019800126552581787
1772651409663672600,3.840672607421875,0.0052471160888671875,0.013067841529846191,-0.003126591444015503
1772651409683680500,3.860680419921875,0.02202320098876953,0.0036899149417877197,-0.017460376024246216
1772651409703688400,3.8806884765625,0.014845848083496094,0.0013436377048492432,-0.0056708455085754395
1772651409723696400,3.9006962890625,0.024440765380859375,-0.00557476282119751,-0.015268474817276001
1772651409743704300,3.920704345703125,0.012472152709960938,0.006490170955657959,-0.02497062087059021
1772651409763711200,3.940711181640625,0.01727008819580078,-0.002938002347946167,-0.010577678680419922
1772651409783717600,3.960717529296875,0.03136157989501953,0.002103477716445923,-0.008373022079467773
1772651409803724000,3.98072412109375,-0.009065628051757812,-0.00518190860748291,-0.023407787084579468
1772651409823730700,4.000730712890625,0.02657318115234375,-0.002736330032348633,-0.025915920734405518
1772651409843737000,4.020737060546875,0.00531005859375,0.001941770315170288,-0.02293720841407776
1772651409863743700,4.04074365234375,0.0052967071533203125,-0.0007718503475189209,-0.02539697289466858
1772651409883750100,4.060750244140625,0.012487411499023438,0.011284440755844116,-0.0011403858661651611
1772651409903756800,4.0807568359375,0.03644847869873047,-0.005539983510971069,-0.01610177755355835
1772651409923763200,4.10076318359375,0.010112762451171875,0.009028047323226929,-0.013232409954071045
1772651409943769600,4.12076953125,0.02449321746826172,0.0019377470016479492,-0.021136075258255005
1772651409963776300,4.1407763671875,0.02688312530517578,0.006767481565475464,-0.01077219843864441
1772651409983782700,4.16078271484375,0.01969623565673828,0.009200692176818848,-0.0059070885181427
1772651410003789300,4.180789306640625,0.026885032653808594,0.011631637811660767,-0.025370478630065918
1772651410023795700,4.200795654296875,0.012525558471679688,0.004644483327865601,-0.003600090742111206
1772651410043802000,4.220802001953125,0.01971912384033203,0.0023449361324310303,-0.01864108443260193
1772651410063808800,4.240808837890625,0.024507522583007812,-0.00249326229095459,-0.011471539735794067
1772651410083815200,4.260815185546875,0.012514114379882812,0.004473328590393066,-0.0184667706489563
1772651410103821800,4.28082177734375,-0.0018634796142578125,0.011581987142562866,-0.011264115571975708
1772651410123828200,4.300828125,0.03166770935058594,0.004332810640335083,-0.0016157925128936768
1772651410143834600,4.320834716796875,0.012500762939453125,0.006611436605453491,-0.025627046823501587
1772651410163841300,4.34084130859375,0.014899253845214844,0.018560558557510376,-0.021299928426742554
1772651410183847700,4.36084765625,0.01729583740234375,0.016247868537902832,-0.013723194599151611
1772651410203854300,4.380854248046875,0.017290115356445312,-0.005359232425689697,-0.025898873805999756
1772651410223860700,4.40086083984375,0.045436859130859375,0.0017724335193634033,-0.004417359828948975
1772651410243867100,4.4208671875,0.02507495880126953,0.015471011400222778,0.0011824071407318115
1772651410263874000,4.4408740234375,0.03466796875,0.013111025094985962,-0.018245607614517212
1772651410283880700,4.460880615234375,0.01790904998779297,-0.0012060701847076416,-0.018161356449127197
1772651410303887600,4.4808876953125,0.029891014099121094,-0.008283823728561401,-0.015436738729476929
1772651410323894300,4.500894287109375,0.032280921936035156,-0.010667741298675537,-0.029649078845977783
1772651410343901200,4.520901123046875,0.02987384796142578,0.010813623666763306,-0.015040665864944458
1772651410363907800,4.540907958984375,0.017896652221679688,-0.0035608112812042236,-0.0006606876850128174
1772651410383914800,4.560914794921875,0.020300865173339844,0.022958189249038696,-0.012662291526794434
1772651410403921400,4.58092138671875,0.008318901062011719,-0.005883932113647461,0.0017212629318237305
1772651410423928300,4.60092822265625,0.013416290283203125,-0.005567312240600586,-0.019591033458709717
1772651410443935000,4.62093505859375,0.0196990966796875,0.0021356940269470215,-0.011156141757965088
1772651410463942000,4.64094189453125,0.007725715637207031,0.013955652713775635,-0.02107912302017212
1772651410483948500,4.660948486328125,0.007729530334472656,-0.007614761590957642,-0.006847947835922241
1772651410503955500,4.68095556640625,-0.004253387451171875,-0.012569934129714966,-0.018904179334640503
1772651410523962000,4.700962158203125,0.029280662536621094,-0.007789641618728638,-0.0020724833011627197
1772651410543969000,4.720968994140625,0.022092819213867188,0.018603414297103882,-0.009147852659225464
1772651410563975700,4.7409755859375,0.02448558807373047,-0.012543976306915283,0.002879887819290161
1772651410583982600,4.760982666015625,0.04095268249511719,-0.0028210878372192383,-0.00641748309135437
1772651410603989500,4.780989501953125,0.005312919616699219,-0.002842724323272705,-0.01372605562210083
1772651410623996200,4.80099609375,0.012196540832519531,0.01164349913597107,-0.025751590728759766
1772651410644002800,4.8210029296875,0.022068023681640625,0.004422694444656372,-0.032131731510162354
1772651410664009700,4.841009765625,0.002899169921875,0.014007002115249634,-0.024752944707870483
1772651410684016600,4.8610166015625,0.036437034606933594,-0.005067616701126099,-0.005519777536392212
1772651410704023300,4.881023193359375,0.02205944061279297,-0.00965842604637146,-0.012264013290405273
1772651410724030200,4.9010302734375,0.014849662780761719,0.014039993286132812,-0.016712874174118042
1772651410744036900,4.921036865234375,0.017230987548828125,-0.0028516054153442383,-0.038049519062042236
1772651410764043500,4.94104345703125,0.02200031280517578,0.008927494287490845,-0.013707190752029419
1772651410784050000,4.9610498046875,0.022004127502441406,-0.0029699206352233887,-0.020914286375045776
1772651410804056600,4.981056640625,0.017205238342285156,0.004189610481262207,-0.008756309747695923
1772651410824063000,5.00106298828125,0.022012710571289062,0.009094923734664917,-0.023456037044525146
1772651410844069400,5.0210693359375,0.014830589294433594,-0.007526189088821411,-0.008710026741027832
1772651410864076000,5.041075927734375,0.02439594268798828,-0.002652585506439209,-0.01798507571220398
1772651410884082400,5.06108251953125,0.0007352828979492188,-0.009845137596130371,-0.010321557521820068
1772651410904089000,5.081089111328125,0.010028839111328125,0.01161453127861023,-0.008086025714874268
1772651410924095500,5.101095458984375,-0.004039764404296875,0.004497796297073364,-0.027910500764846802
1772651410944102000,5.121101806640625,0.01959705352783203,-0.0004761219024658203,-0.025212228298187256
1772651410964108500,5.141108642578125,0.021996498107910156,-0.0004557967185974121,-0.008242487907409668
1772651410984115000,5.161114990234375,0.0124053955078125,0.004301309585571289,-0.017586737871170044
1772651411004121600,5.18112158203125,0.019578933715820312,0.03770393133163452,-0.00991511344909668
1772651411024128000,5.2011279296875,0.0007152557373046875,-0.0005389153957366943,-0.019704580307006836
1772651411044134400,5.221134521484375,0.017189979553222656,-0.007586538791656494,-0.014893591403961182
1772651411064141000,5.24114111328125,0.02198505401611328,-0.012382179498672485,-0.01980489492416382
1772651411084147500,5.2611474609375,0.0291748046875,0.0021694302558898926,-0.02713736891746521
1772651411104153900,5.28115380859375,0.021981239318847656,0.01638069748878479,-0.017580002546310425
1772651411124160500,5.301160400390625,0.019578933715820312,-0.005191773176193237,-0.024612367153167725
1772651411144167000,5.3211669921875,0.041131019592285156,-0.005474060773849487,-0.007390409708023071
1772651411164173600,5.341173583984375,0.03154945373535156,0.008855283260345459,-0.024818629026412964
1772651411184180000,5.361179931640625,0.03395843505859375,0.018745094537734985,-0.015204697847366333
1772651411204186400,5.381186279296875,-0.001678466796875,0.006834805011749268,-0.022197335958480835
1772651411224193000,5.401193115234375,0.026772499084472656,-0.0003249943256378174,-0.007613271474838257
1772651411244199400,5.421199462890625,0.02437591552734375,-0.024265378713607788,-0.017463862895965576
1772651411264206300,5.441206298828125,0.0004329681396484375,-0.002520442008972168,-0.02710634469985962
1772651411284213500,5.461213623046875,0.007615089416503906,0.01415163278579712,-0.02710169553756714
1772651411304220400,5.481220458984375,0.03156566619873047,-0.009866386651992798,-0.012705832719802856
1772651411324227600,5.5012275390625,0.017187118530273438,-0.0003059208393096924,-0.019745618104934692
1772651411344234500,5.521234375,0.005200386047363281,0.018795043230056763,-0.02195170521736145
1772651411364241700,5.54124169921875,0.002803802490234375,0.013950079679489136,-0.010014742612838745
1772651411384248800,5.561248779296875,0.002803802490234375,0.0044439733028411865,-0.02428576350212097
1772651411404255700,5.581255859375,0.024356842041015625,0.014030605554580688,-0.0073400139808654785
1772651411424263000,5.601262939453125,0.017162322998046875,-0.012425482273101807,0.00025475025177001953
1772651411444269800,5.621269775390625,0.024347305297851562,-0.010093659162521362,-0.01898166537284851
1772651411464277000,5.641277099609375,0.024344444274902344,0.011473000049591064,-0.021281540393829346
1772651411484284000,5.661283935546875,0.029123306274414062,0.006541192531585693,-0.0064355432987213135
1772651411504291000,5.681291015625,0.04350471496582031,-0.012427806854248047,-0.02317070960998535
1772651411524298000,5.701298095703125,0.01715087890625,-0.01726016402244568,-0.015945404767990112
1772651411544305200,5.72130517578125,-0.0041141510009765625,-0.0006203949451446533,-0.01836112141609192
1772651411564312300,5.741312255859375,0.010254859924316406,0.006579607725143433,-0.01344183087348938
1772651411584319200,5.7613193359375,0.015046119689941406,0.0019199550151824951,-0.013253748416900635
1772651411604326400,5.781326416015625,0.007853507995605469,0.008962690830230713,-0.001269608736038208
1772651411624333300,5.801333251953125,0.02192401885986328,0.001745462417602539,-0.01322263479232788
1772651411644340500,5.821340576171875,0.007549285888671875,-0.012681037187576294,0.007725536823272705
1772651411664347400,5.841347412109375,0.014738082885742188,0.018656253814697266,-0.020830601453781128
1772651411684354600,5.8613544921875,0.036293983459472656,0.009077519178390503,-0.003954589366912842
1772651411704361500,5.881361572265625,0.007541656494140625,0.006542563438415527,0.0008391737937927246
1772651411724368600,5.90136865234375,0.02191162109375,-0.01012498140335083,-0.023506611585617065
1772651411744375800,5.921375732421875,0.026703834533691406,0.013882249593734741,-0.030633270740509033
1772651411764382000,5.9413818359375,0.016817092895507812,-0.0005202889442443848,-0.0041758716106414795
1772651411784388000,5.96138818359375,0.021309852600097656,-0.010114461183547974,-0.006615966558456421
1772651411804394500,5.98139453125,0.026105880737304688,0.009110420942306519,-0.01148688793182373
1772651411824400600,6.001400634765625,0.006938934326171875,0.004286766052246094,-0.028200358152389526
1772651411844406800,6.02140673828125,0.024311065673828125,-0.0029272735118865967,-0.01102834939956665
1772651411864413000,6.041412841796875,0.0051422119140625,0.01134595274925232,-0.005628734827041626
1772651411884419000,6.061419189453125,0.03148365020751953,0.004019021987915039,-0.015427887439727783
1772651411904425200,6.08142529296875,0.012300491333007812,0.0014393627643585205,-0.017228275537490845
1772651411924431400,6.101431396484375,0.029068946838378906,0.013314425945281982,-0.007782399654388428
1772651411944437800,6.121437744140625,0.019776344299316406,0.008321940898895264,-0.0005972087383270264
1772651411964444000,6.14144384765625,0.010508537292480469,0.0084913969039917,-0.01514539122581482
1772651411984450000,6.161449951171875,-0.013449668884277344,-0.0058441162109375,-0.024580299854278564
1772651412004456200,6.181456298828125,0.02248096466064453,0.005981117486953735,-0.01758122444152832
1772651412024462300,6.20146240234375,0.015295028686523438,0.003304898738861084,-0.015156656503677368
1772651412044468700,6.22146875,0.04584026336669922,0.003623068332672119,-0.005661338567733765
1772651412064475000,6.241474853515625,0.017388343811035156,-0.008360177278518677,-0.01505020260810852
1772651412084481000,6.26148095703125,0.017663955688476562,-0.003794550895690918,-0.0170423686504364
1772651412104487200,6.281487060546875,0.02933979034423828,0.0033015012741088867,-0.012336194515228271
1772651412124493300,6.301493408203125,0.017647743225097656,0.010084301233291626,-0.012059420347213745
1772651412144499500,6.32149951171875,0.022434234619140625,-0.006690114736557007,-0.007137298583984375
1772651412164505900,6.341505859375,0.03170013427734375,0.0024528801441192627,-0.02120956778526306
1772651412184512000,6.361511962890625,0.03199577331542969,0.002318829298019409,-0.011718988418579102
1772651412204518100,6.38151806640625,0.017620086669921875,0.007191747426986694,0.00048273801803588867
1772651412224524300,6.401524169921875,0.022406578063964844,0.011835962533950806,-0.009183645248413086
1772651412244530400,6.421530517578125,0.017617225646972656,-0.021070629358291626,-0.006812751293182373
1772651412264536800,6.441536865234375,0.03378105163574219,-0.006647557020187378,-0.0161440372467041
1772651412284543200,6.461543212890625,0.02420330047607422,-0.001761406660079956,-0.016152381896972656
1772651412304550000,6.4815498046875,0.029006004333496094,0.010292410850524902,-0.009188830852508545
1772651412324556300,6.501556396484375,0.019708633422851562,-0.025807619094848633,-0.0017758011817932129
1772651412344563000,6.52156298828125,0.012814521789550781,0.0028687715530395508,0.0030724704265594482
1772651412364569300,6.5415693359375,0.022116661071777344,0.005402982234954834,-0.028462320566177368
1772651412384575700,6.56157568359375,0.010450363159179688,0.005434960126876831,-0.01914164423942566
1772651412404582400,6.58158251953125,0.024507522583007812,-0.006541907787322998,0.005284219980239868
1772651412424588800,6.6015888671875,0.019715309143066406,-0.01849263906478882,-0.01861894130706787
1772651412444595200,6.62159521484375,0.033783912658691406,-0.016135811805725098,-0.00950726866722107
1772651412464601900,6.641601806640625,0.017026901245117188,-0.00869131088256836,-0.014270514249801636
1772651412484608300,6.661608154296875,0.009851455688476562,0.010598212480545044,-0.007212430238723755
1772651412504614700,6.68161474609375,0.024225234985351562,-0.0035747289657592773,-0.014154553413391113
1772651412524621300,6.701621337890625,0.014662742614746094,-0.005709171295166016,-0.011984169483184814
1772651412544627700,6.721627685546875,0.03143787384033203,-0.003167450428009033,-0.016733676195144653
1772651412564634000,6.741634033203125,0.029035568237304688,0.03268548846244812,-0.004682332277297974
1772651412584640800,6.761640869140625,-0.0021142959594726562,-0.0032969415187835693,-0.016750603914260864
1772651412604647200,6.781647216796875,0.026642799377441406,-0.014995723962783813,-0.017003118991851807
1772651412624653600,6.801653564453125,0.02184295654296875,-0.005416661500930786,-0.014360249042510986
1772651412644660200,6.82166015625,0.0074596405029296875,0.004041612148284912,-0.020789921283721924
1772651412664666600,6.84166650390625,0.02662372589111328,-0.003048717975616455,-0.006290078163146973
1772651412684673000,6.861673095703125,0.03622722625732422,-0.017083793878555298,-0.008858174085617065
1772651412704679700,6.8816796875,0.05029869079589844,-0.009793192148208618,-0.011016011238098145
1772651412724686000,6.90168603515625,0.02663707733154297,-0.002718329429626465,-0.0038094520568847656
1772651412744692700,6.921692626953125,0.026633262634277344,0.004394054412841797,-0.008921384811401367
1772651412764698400,6.941698486328125,0.028725624084472656,-0.0050373077392578125,-0.005893886089324951
1772651412784704000,6.9617041015625,0.03352165222167969,-0.004832059144973755,-0.020705580711364746
1772651412804709600,6.981709716796875,0.04041004180908203,0.002387404441833496,-0.008697062730789185
1772651412824715300,7.00171533203125,0.011971473693847656,-0.00709041953086853,-0.003995835781097412
1772651412844721000,7.021720947265625,0.017364501953125,0.011981099843978882,-0.02700313925743103
1772651412864726500,7.0417265625,0.0389251708984375,0.018517911434173584,-0.01513528823852539
1772651412884732200,7.061732177734375,0.027240753173828125,0.013791382312774658,-0.010047584772109985
1772651412904737800,7.08173779296875,0.02723979949951172,-0.007714450359344482,-0.01713612675666809
1772651412924743400,7.101743408203125,0.022441864013671875,-0.012649387121200562,-0.014752388000488281
1772651412944749000,7.1217490234375,0.041584014892578125,0.008621692657470703,-0.009711503982543945
1772651412964754700,7.141754638671875,0.027219772338867188,-0.01276901364326477,-0.007044076919555664
1772651412984760300,7.16176025390625,0.024827957153320312,-0.00319477915763855,-0.006877034902572632
1772651413004766000,7.181765869140625,0.02003765106201172,0.008847534656524658,-0.009201616048812866
1772651413024771600,7.201771484375,0.01762104034423828,-0.01285657286643982,-0.01353985071182251
1772651413044777200,7.221777099609375,0.026907920837402344,0.0045906901359558105,0.002581775188446045
1772651413064782800,7.241782958984375,0.022116661071777344,-0.0002608001232147217,0.00009867548942565918
1772651413084788500,7.26178857421875,0.022406578063964844,0.0040461719036102295,-0.007018715143203735
1772651413104794000,7.281794189453125,0.0220947265625,0.0015777349472045898,-0.018743067979812622
1772651413124799700,7.3017998046875,0.0128173828125,-0.0029292702674865723,-0.014082342386245728
1772651413144805400,7.321805419921875,0.019995689392089844,-0.000894010066986084,-0.006762772798538208
1772651413164811000,7.34181103515625,0.04574012756347656,0.01553034782409668,-0.009016066789627075
1772651413184816600,7.361816650390625,0.01039886474609375,0.005820274353027344,-0.004152864217758179
1772651413204822300,7.381822265625,0.012785911560058594,0.00578954815864563,-0.0015440583229064941
1772651413224828000,7.401827880859375,0.02237415313720703,0.005908966064453125,-0.023163527250289917
1772651413244833500,7.42183349609375,0.02896881103515625,-0.0053179264068603516,-0.016585081815719604
1772651413264840400,7.44184033203125,0.017000198364257812,-0.017169415950775146,-0.014256536960601807
1772651413284847600,7.46184765625,0.021798133850097656,-0.000464707612991333,-0.007355332374572754
1772651413304855000,7.48185498046875,0.017011642456054688,-0.005100071430206299,-0.012056320905685425
1772651413324862200,7.5018623046875,0.03857898712158203,-0.012169986963272095,-0.00973096489906311
1772651413344869400,7.521869384765625,0.0026559829711914062,-0.00738215446472168,-0.01958531141281128
1772651413364876800,7.541876708984375,0.02421283721923828,0.007018446922302246,-0.002741694450378418
1772651413384884000,7.561884033203125,0.02660846710205078,-0.007400035858154297,-0.009993314743041992
1772651413404891400,7.581891357421875,0.03619098663330078,-0.024181991815567017,-0.014791160821914673
1772651413424898600,7.601898681640625,0.02182292938232422,-0.00003263354301452637,-0.002694070339202881
1772651413444905700,7.62190576171875,0.007758140563964844,0.009625077247619629,-0.01423412561416626
1772651413464913200,7.6419130859375,0.0074710845947265625,0.0145263671875,0.0023262500762939453
1772651413484920300,7.66192041015625,0.012560844421386719,0.00018873810768127441,-0.02187630534172058
1772651413504927500,7.681927490234375,0.012270927429199219,0.005163788795471191,-0.0071794092655181885
1772651413524935000,7.701934814453125,0.024239540100097656,0.007372260093688965,-0.0218982994556427
1772651413544942000,7.721942138671875,0.0005960464477539062,0.009838521480560303,-0.009852677583694458
1772651413564949200,7.74194921875,0.01945781707763672,0.00024041533470153809,-0.01938498020172119
1772651413584956700,7.761956787109375,0.02425384521484375,0.019610822200775146,-0.007272511720657349
1772651413604963800,7.7819638671875,0.0029964447021484375,-0.004190295934677124,0.002468705177307129
1772651413624971000,7.801970947265625,0.005394935607910156,-0.011362254619598389,-0.019440382719039917
1772651413644978400,7.821978515625,0.022164344787597656,0.0030503273010253906,-0.009515851736068726
1772651413664985600,7.841985595703125,0.02455425262451172,0.002977132797241211,-0.02865847945213318
1772651413684992800,7.86199267578125,0.026956558227539062,0.021472901105880737,-0.0026157498359680176
1772651413705000200,7.882000244140625,0.02007579803466797,-0.013734519481658936,-0.0025928914546966553
1772651413725007400,7.90200732421875,0.008101463317871094,0.00038611888885498047,-0.017011046409606934
1772651413745014800,7.922014892578125,0.02725696563720703,0.016750812530517578,-0.03369435667991638
1772651413765021400,7.942021484375,0.041617393493652344,-0.002529740333557129,-0.026284366846084595
1772651413785028400,7.9620283203125,0.0128631591796875,0.009404987096786499,-0.009342402219772339
1772651413805035000,7.982034912109375,0.012872695922851562,-0.012083441019058228,-0.002342790365219116
1772651413825042000,8.0020419921875,0.008091926574707031,0.019163906574249268,-0.012038230895996094
1772651413845048600,8.022048583984375,0.02426624298095703,0.03171524405479431,-0.012249410152435303
1772651413865055200,8.04205517578125,0.022172927856445312,0.002999037504196167,-0.009876817464828491
1772651413885062100,8.062062255859376,0.012292861938476562,-0.006635218858718872,0.0019460320472717285
1772651413905068800,8.08206884765625,0.008097648620605469,0.017217665910720825,-0.012439906597137451
1772651413925075700,8.10207568359375,0.031452178955078125,0.012442260980606079,-0.0052213966846466064
1772651413945082400,8.122082275390625,0.005396842956542969,0.014733046293258667,-0.02197122573852539
1772651413965089300,8.14208935546875,0.0077991485595703125,-0.004410415887832642,-0.007778525352478027
1772651413985096000,8.162095947265625,0.05060100555419922,-0.006988197565078735,-0.007530957460403442
1772651414005102800,8.182102783203124,0.02903270721435547,-0.0045639872550964355,-0.007225930690765381
1772651414025109500,8.202109619140625,0.017057418823242188,0.0002440810203552246,-0.0048472583293914795
1772651414045116400,8.222116455078124,0.012271881103515625,0.01459205150604248,-0.0152454674243927
1772651414065123000,8.242123046875,0.021859169006347656,0.002822190523147583,-0.007929563522338867
1772651414085130000,8.2621298828125,0.026655197143554688,-0.009280592203140259,-0.017821133136749268
1772651414105136600,8.28213671875,0.05061531066894531,0.005086362361907959,-0.013194680213928223
1772651414125143300,8.302143310546874,0.00031375885009765625,-0.011647433042526245,-0.008483260869979858
1772651414145150200,8.322150146484375,0.03863811492919922,-0.009324699640274048,-0.020447641611099243
1772651414165156900,8.342156982421875,0.0074939727783203125,-0.009390324354171753,-0.0132618248462677
1772651414185163800,8.362163818359376,0.0003032684326171875,-0.016522616147994995,-0.003497183322906494
1772651414205170400,8.38217041015625,0.0218658447265625,-0.0021864473819732666,-0.010852724313735962
1772651414225177300,8.40217724609375,0.021857261657714844,0.01439589262008667,-0.008433371782302856
1772651414245184000,8.42218408203125,-0.0017957687377929688,0.00014346837997436523,-0.012526452541351318
1772651414265191200,8.442191162109374,0.04581928253173828,-0.0189150869846344,-0.01760953664779663
1772651414285198300,8.4621982421875,0.02426624298095703,-0.023695021867752075,-0.01781696081161499
1772651414305205500,8.48220556640625,0.014695167541503906,0.024270743131637573,-0.005726754665374756
1772651414325212400,8.50221240234375,0.017078399658203125,0.012114644050598145,-0.02512514591217041
1772651414345219600,8.522219482421875,0.014689445495605469,-0.016577988862991333,-0.010565727949142456
1772651414365226800,8.542226806640626,0.02665233612060547,-0.026242315769195557,0.0017408132553100586
1772651414385234000,8.56223388671875,0.03862476348876953,0.016847580671310425,-0.0053105950355529785
1772651414405241000,8.582240966796874,0.017055511474609375,0.014380931854248047,0.0068266987800598145
1772651414425248300,8.602248291015625,0.01495361328125,0.014254659414291382,-0.012346476316452026
1772651414445255400,8.62225537109375,0.019451141357421875,-0.02155926823616028,-0.01772516965866089
1772651414465262600,8.6422626953125,0.021851539611816406,0.016842305660247803,-0.00582653284072876
1772651414485269800,8.662269775390625,0.03143310546875,0.009545505046844482,-0.0035538971424102783
1772651414505277000,8.68227685546875,0.017065048217773438,-0.0023129284381866455,-0.006222546100616455
1772651414525284000,8.7022841796875,0.023956298828125,-0.028686970472335815,-0.02347630262374878
1772651414545291000,8.722291015625,0.016763687133789062,-0.002320200204849243,-0.006469905376434326
1772651414565298200,8.742298095703125,0.030829429626464844,0.011983513832092285,-0.003943026065826416
1772651414585305300,8.762305419921875,0.026024818420410156,0.009213000535964966,-0.020853757858276367
1772651414605312500,8.7823125,-0.0027112960815429688,0.006819933652877808,-0.023538917303085327
1772651414625319700,8.802319580078125,0.01646137237548828,-0.017034977674484253,-0.01168125867843628
1772651414645326800,8.822326904296874,0.03381538391113281,0.001978456974029541,-0.0031151175498962402
1772651414665334000,8.842333984375,0.024518966674804688,0.010973840951919556,-0.017499208450317383
1772651414685341200,8.862341064453124,0.026917457580566406,-0.0013471245765686035,-0.02482837438583374
1772651414705348400,8.882348388671875,0.029607772827148438,-0.008715569972991943,-0.01535654067993164
1772651414725355500,8.90235546875,0.012834548950195312,-0.008786261081695557,0.008646488189697266
1772651414745362700,8.92236279296875,0.010433197021484375,0.012707889080047607,-0.005639702081680298
1772651414765369300,8.942369384765625,0.020012855529785156,-0.0039310455322265625,-0.017397254705429077
1772651414785376000,8.9623759765625,0.04397869110107422,0.008085668087005615,-0.01496616005897522
1772651414805382700,8.982382568359375,0.027212142944335938,0.0009641349315643311,-0.0026603639125823975
1772651414825389600,9.0023896484375,0.02002239227294922,-0.011077404022216797,-0.0002446472644805908
1772651414845396200,9.022396240234375,0.015223503112792969,0.0008100569248199463,-0.005495399236679077
1772651414865403000,9.04240283203125,0.019983291625976562,-0.0017741024494171143,-0.024006009101867676
1772651414885409500,9.062409423828125,0.015201568603515625,-0.003992289304733276,-0.002478867769241333
1772651414905416200,9.082416259765624,0.015215873718261719,0.0031907260417938232,-0.01249644160270691
1772651414925422800,9.1024228515625,0.008026123046875,-0.0016901791095733643,-0.0029486417770385742
