time,seconds_elapsed,z,y,x
1772651406019987000,0.196987060546875,0.003994738217443228,0.00026631588116288185,-0.0013315794058144093
1772651406039991000,0.216990966796875,0.00026631588116288185,0.00026631588116288185,-0.0007989476434886456
1772651406049993200,0.2269931640625,0.001864211168140173,-0.00026631588116288185,-0.0007989476434886456
1772651406059995400,0.236995361328125,-0.0013315794058144093,-0.0013315794058144093,0.0013315794058144093
1772651406069997300,0.246997314453125,0.0007989476434886456,-0.00026631588116288185,0.0007989476434886456
1772651406079999500,0.25699951171875,0.0009321055840700865,0.0007989476434886456,-0.0007989476434886456
1772651406090001400,0.26700146484375,0.0003994738217443228,0.001864211168140173,-0.0007989476434886456
1772651406100003600,0.277003662109375,0.0009321055840700865,0.00026631588116288185,0.0007989476434886456
1772651406110005800,0.287005859375,0.0014647373463958502,-0.0023968429304659367,0.00026631588116288185
1772651406120008000,0.297008056640625,0.0009321055840700865,0.0007989476434886456,0.001864211168140173
1772651406130009900,0.307009765625,0.0009321055840700865,0.0013315794058144093,-0.001731053227558732
1772651406140012000,0.317011962890625,-0.0005326317623257637,-0.0013315794058144093,0.0009321055840700865
1772651406150014200,0.32701416015625,0.0005326317623257637,0.0013315794058144093,-0.0006657897029072046
1772651406160016100,0.33701611328125,-0.0005326317623257637,-0.001864211168140173,0.0009321055840700865
1772651406170018300,0.347018310546875,-0.001597895286977291,-0.00026631588116288185,-0.001731053227558732
1772651406180020200,0.357020263671875,0,0.00026631588116288185,-0.00013315794058144093
1772651406190022400,0.3670224609375,0.0010652635246515274,-0.00026631588116288185,0.0003994738217443228
1772651406200024600,0.377024658203125,0.0011984214652329683,-0.00026631588116288185,-0.00013315794058144093
1772651406210026800,0.38702685546875,0.0006657897029072046,-0.0007989476434886456,-0.0006657897029072046
1772651406220028700,0.397028564453125,0.0006657897029072046,0.00026631588116288185,0.0014647373463958502
1772651406230030800,0.40703076171875,0.0009321055840700865,0.00026631588116288185,-0.00013315794058144093
1772651406240032800,0.41703271484375,-0.00026631588116288185,-0.00026631588116288185,0.0007989476434886456
1772651406250035000,0.427034912109375,0.0007989476434886456,0.0007989476434886456,0.0013315794058144093
1772651406260038100,0.4370380859375,0.0007989476434886456,-0.0007989476434886456,-0.0013315794058144093
1772651406270041600,0.44704150390625,-0.0007989476434886456,0.0013315794058144093,-0.0013315794058144093
1772651406280045000,0.457045166015625,0.00026631588116288185,-0.0013315794058144093,-0.0007989476434886456
1772651406290048500,0.467048583984375,-0.00026631588116288185,0.00026631588116288185,-0.0013315794058144093
1772651406300051700,0.4770517578125,0.0007989476434886456,-0.001864211168140173,-0.0007989476434886456
1772651406310055200,0.48705517578125,-0.0007989476434886456,-0.00026631588116288185,0.0007989476434886456
1772651406320058600,0.49705859375,0.00026631588116288185,-0.00026631588116288185,0.0007989476434886456
1772651406330062000,0.50706201171875,-0.0007989476434886456,-0.0007989476434886456,-0.00026631588116288185
1772651406340065500,0.5170654296875,0.0013315794058144093,-0.0007989476434886456,-0.00026631588116288185
1772651406350069000,0.527069091796875,0.00026631588116288185,0.0007989476434886456,-0.001864211168140173
1772651406360072200,0.537072265625,-0.00026631588116288185,0.0013315794058144093,-0.0013315794058144093
1772651406370075600,0.54707568359375,0.00026631588116288185,-0.0007989476434886456,-0.0013315794058144093
1772651406380079000,0.5570791015625,-0.00026631588116288185,-0.0007989476434886456,0.00026631588116288185
1772651406390082600,0.56708251953125,-0.0007989476434886456,0.001864211168140173,0.0007989476434886456
1772651406400086000,0.5770859375,-0.0007989476434886456,-0.00026631588116288185,-0.0007989476434886456
1772651406410089500,0.58708935546875,0.00026631588116288185,-0.0007989476434886456,0.00026631588116288185
1772651406420092700,0.5970927734375,-0.0013315794058144093,0.00026631588116288185,0.0007989476434886456
1772651406430096100,0.60709619140625,0.00026631588116288185,0.00026631588116288185,-0.00026631588116288185
1772651406440099600,0.617099609375,-0.0013315794058144093,-0.0007989476434886456,-0.0007989476434886456
1772651406450103000,0.62710302734375,0.00026631588116288185,0.0013315794058144093,0.001864211168140173
1772651406460106500,0.6371064453125,-0.001864211168140173,-0.0029294746927917004,-0.0007989476434886456
1772651406470109700,0.647109619140625,-0.00026631588116288185,0.0007989476434886456,0.0007989476434886456
1772651406480113200,0.657113037109375,0.00026631588116288185,0.00026631588116288185,-0.0013315794058144093
1772651406490116600,0.66711669921875,0.00026631588116288185,0.00026631588116288185,-0.00026631588116288185
1772651406500120000,0.6771201171875,0.0007989476434886456,-0.00026631588116288185,0.00026631588116288185
1772651406510123500,0.68712353515625,-0.0007989476434886456,-0.00026631588116288185,-0.00026631588116288185
1772651406520126700,0.697126708984375,0.00026631588116288185,-0.00026631588116288185,0.00026631588116288185
1772651406530130200,0.707130126953125,0.0007989476434886456,0.0023968429304659367,-0.00026631588116288185
1772651406540133600,0.717133544921875,-0.00026631588116288185,-0.0007989476434886456,-0.0007989476434886456
1772651406550137000,0.72713720703125,0.00026631588116288185,0.0007989476434886456,-0.0007989476434886456
1772651406560140500,0.737140625,-0.00026631588116288185,0.00026631588116288185,-0.00026631588116288185
1772651406570144000,0.74714404296875,0.00026631588116288185,0.0013315794058144093,-0.0013315794058144093
1772651406580147200,0.757147216796875,-0.00026631588116288185,0.00026631588116288185,-0.00026631588116288185
1772651406590150700,0.767150634765625,0.0023968429304659367,-0.0013315794058144093,-0.00026631588116288185
1772651406600154000,0.777154052734375,0.00026631588116288185,-0.00026631588116288185,-0.0007989476434886456
1772651406610157600,0.787157470703125,-0.0007989476434886456,0.00026631588116288185,0.0007989476434886456
1772651406620161000,0.7971611328125,0.0007989476434886456,-0.0007989476434886456,0.00026631588116288185
1772651406630164500,0.80716455078125,0.00026631588116288185,0.00026631588116288185,0.0013315794058144093
1772651406640167700,0.817167724609375,-0.00026631588116288185,-0.0013315794058144093,-0.00026631588116288185
1772651406650171100,0.827171142578125,-0.00026631588116288185,0.00026631588116288185,-0.0007989476434886456
1772651406660174600,0.837174560546875,0.00026631588116288185,-0.00026631588116288185,0.00026631588116288185
1772651406670178000,0.847177978515625,-0.00026631588116288185,-0.0013315794058144093,-0.0007989476434886456
1772651406680181500,0.857181396484375,0.0007989476434886456,0.00026631588116288185,-0.00026631588116288185
1772651406690185000,0.86718505859375,0.00026631588116288185,0.0007989476434886456,0.00026631588116288185
1772651406700188200,0.877188232421875,-0.0007989476434886456,-0.00026631588116288185,0.00026631588116288185
1772651406710191600,0.887191650390625,0.0023968429304659367,0.00026631588116288185,0.001864211168140173
1772651406720195000,0.897195068359375,0.00026631588116288185,-0.00026631588116288185,-0.0007989476434886456
1772651406730198500,0.907198486328125,0.00026631588116288185,-0.00026631588116288185,0.00026631588116288185
1772651406740202000,0.917201904296875,0.0013315794058144093,-0.00026631588116288185,-0.0007989476434886456
1772651406750205400,0.927205322265625,0.001864211168140173,-0.001864211168140173,-0.0013315794058144093
1772651406760209000,0.937208984375,-0.0007989476434886456,0.0013315794058144093,-0.0007989476434886456
1772651406770212400,0.94721240234375,0.0007989476434886456,-0.0013315794058144093,0.0007989476434886456
1772651406780216000,0.957216064453125,0.00026631588116288185,-0.0007989476434886456,-0.0007989476434886456
1772651406790219500,0.967219482421875,-0.0007989476434886456,0.0007989476434886456,0.0013315794058144093
1772651406800223000,0.977222900390625,0.00026631588116288185,-0.0007989476434886456,-0.00026631588116288185
1772651406810226700,0.987226806640625,0.0013315794058144093,-0.0013315794058144093,-0.0007989476434886456
1772651406820230100,0.997230224609375,-0.00026631588116288185,-0.00026631588116288185,-0.0023968429304659367
1772651406830233900,1.00723388671875,-0.00026631588116288185,-0.0023968429304659367,-0.0007989476434886456
1772651406840237300,1.0172373046875,-0.0023968429304659367,0.0007989476434886456,-0.00026631588116288185
1772651406850241000,1.027240966796875,0.00026631588116288185,-0.001864211168140173,-0.00026631588116288185
1772651406860244500,1.037244384765625,0.0007989476434886456,-0.0007989476434886456,-0.0013315794058144093
1772651406870248000,1.047248046875,0.0007989476434886456,-0.0007989476434886456,0.00026631588116288185
1772651406880251600,1.057251708984375,-0.0007989476434886456,0.001864211168140173,-0.0007989476434886456
1772651406890255000,1.067255126953125,0.00026631588116288185,-0.0007989476434886456,-0.001864211168140173
1772651406900258800,1.0772587890625,0.0013315794058144093,-0.0007989476434886456,-0.0007989476434886456
1772651406910262300,1.08726220703125,-0.00026631588116288185,-0.003462106455117464,0.001864211168140173
1772651406920265700,1.097265625,0.0013315794058144093,0.0023968429304659367,0.00026631588116288185
1772651406930269400,1.10726953125,0,-0.00013315794058144093,-0.0011984214652329683
1772651406940273000,1.11727294921875,-0.0010652635246515274,0.0014647373463958502,0.0009321055840700865
1772651406950276600,1.127276611328125,0.0005326317623257637,0.0009321055840700865,0.0003994738217443228
1772651406960280000,1.137280029296875,0,-0.0022636849898844957,-0.00013315794058144093
1772651406970283800,1.14728369140625,-0.0005326317623257637,-0.0006657897029072046,-0.00013315794058144093
1772651406980287200,1.157287353515625,0.0005326317623257637,-0.0006657897029072046,0.0014647373463958502
1772651406990290700,1.167290771484375,0.0005326317623257637,-0.00013315794058144093,0.0009321055840700865
1772651407000294400,1.17729443359375,0,0.0003994738217443228,0.0003994738217443228
1772651407010297900,1.1872978515625,0,0.0003994738217443228,0.0003994738217443228
1772651407020301600,1.197301513671875,0.002130527049303055,-0.0006657897029072046,0.0014647373463958502
1772651407030305000,1.207304931640625,-0.0005326317623257637,0.0009321055840700865,-0.00013315794058144093
1772651407040308700,1.217308837890625,-0.0010652635246515274,0.0003994738217443228,-0.0006657897029072046
1772651407050312200,1.227312255859375,0.001597895286977291,0.0009321055840700865,0.0009321055840700865
1772651407060315600,1.237315673828125,-0.0010652635246515274,-0.0022636849898844957,0.0003994738217443228
1772651407070319400,1.2473193359375,-0.0010652635246515274,0.0014647373463958502,0.0003994738217443228
1772651407080322800,1.25732275390625,0.0005326317623257637,-0.00013315794058144093,-0.0006657897029072046
1772651407090326500,1.267326416015625,0.0005326317623257637,-0.001731053227558732,-0.001731053227558732
1772651407100330000,1.277330078125,0,-0.0011984214652329683,-0.00013315794058144093
1772651407110333400,1.28733349609375,0.0005326317623257637,-0.00013315794058144093,0.0014647373463958502
1772651407120337200,1.297337158203125,0.0005326317623257637,0.0014647373463958502,-0.00013315794058144093
1772651407130340600,1.307340576171875,-0.0005326317623257637,-0.00013315794058144093,0.0003994738217443228
1772651407140344300,1.31734423828125,0,-0.001731053227558732,-0.00013315794058144093
1772651407150347800,1.32734765625,0,-0.0011984214652329683,0.0003994738217443228
1772651407160351200,1.337351318359375,0.0005326317623257637,0.0003994738217443228,0.0009321055840700865
1772651407170355000,1.34735498046875,0.0005326317623257637,0.0003994738217443228,-0.00013315794058144093
1772651407180358400,1.3573583984375,-0.0010652635246515274,0.0009321055840700865,-0.00013315794058144093
1772651407190362000,1.367362060546875,-0.0010652635246515274,0.0014647373463958502,-0.00013315794058144093
1772651407200365600,1.377365478515625,0,-0.001731053227558732,-0.0006657897029072046
1772651407210369000,1.387369140625,0.0005326317623257637,-0.001731053227558732,-0.0006657897029072046
1772651407220372700,1.397372802734375,-0.0005326317623257637,-0.0011984214652329683,0.0003994738217443228
1772651407230376200,1.407376220703125,0.0005326317623257637,0.0009321055840700865,0.0003994738217443228
1772651407240380000,1.4173798828125,0.0005326317623257637,-0.0006657897029072046,0.0003994738217443228
1772651407250383400,1.42738330078125,0,0.0030626326333731413,0.0009321055840700865
1772651407260386300,1.43738623046875,-0.0010652635246515274,-0.00013315794058144093,0.0003994738217443228
1772651407270389000,1.447388916015625,0,-0.0011984214652329683,0.0009321055840700865
1772651407280391700,1.4573916015625,0,0.0009321055840700865,0.0009321055840700865
1772651407290394600,1.46739453125,-0.0005326317623257637,0.0009321055840700865,-0.00013315794058144093
1772651407300397300,1.477397216796875,-0.001597895286977291,0.0009321055840700865,-0.0006657897029072046
1772651407310400000,1.48739990234375,0.0005326317623257637,-0.0011984214652329683,0.0009321055840700865
1772651407320403000,1.49740283203125,0.0010652635246515274,0.001997369108721614,0.001997369108721614
1772651407330405600,1.507405517578125,-0.0010652635246515274,-0.001731053227558732,0.0009321055840700865
1772651407340408300,1.517408203125,0.0010652635246515274,-0.00013315794058144093,0.0003994738217443228
1772651407350411000,1.527410888671875,-0.0005326317623257637,-0.00013315794058144093,-0.0006657897029072046
1772651407360414000,1.5374140625,0.0005326317623257637,-0.001731053227558732,0.0014647373463958502
1772651407370416600,1.547416748046875,0.0005326317623257637,-0.00013315794058144093,-0.0011984214652329683
1772651407380419300,1.55741943359375,0,0.001997369108721614,-0.0022636849898844957
1772651407390422300,1.56742236328125,-0.0010652635246515274,0.0025300008710473776,-0.00013315794058144093
1772651407400425000,1.577425048828125,-0.0005326317623257637,0.0009321055840700865,0.0003994738217443228
1772651407410427600,1.587427734375,-0.0005326317623257637,0.0014647373463958502,-0.001731053227558732
1772651407420430300,1.597430419921875,-0.0010652635246515274,-0.0022636849898844957,0.0003994738217443228
1772651407430433300,1.607433349609375,0.0010652635246515274,0.0009321055840700865,-0.00013315794058144093
1772651407440436000,1.61743603515625,0.0005326317623257637,-0.00013315794058144093,-0.00013315794058144093
1772651407450438700,1.627438720703125,0,0.0030626326333731413,0.0009321055840700865
1772651407460441600,1.637441650390625,-0.0005326317623257637,-0.0011984214652329683,0.0009321055840700865
1772651407470444300,1.6474443359375,0.0005326317623257637,0.0003994738217443228,-0.00013315794058144093
1772651407480447000,1.657447021484375,-0.0005326317623257637,-0.0011984214652329683,0.0003994738217443228
1772651407490450000,1.667449951171875,0.0010652635246515274,-0.001731053227558732,-0.0011984214652329683
1772651407500452600,1.67745263671875,0.0010652635246515274,0.0014647373463958502,0.0003994738217443228
1772651407510455300,1.687455322265625,-0.0010652635246515274,0.0014647373463958502,0.0003994738217443228
1772651407520458000,1.6974580078125,0.0010652635246515274,-0.00013315794058144093,-0.00013315794058144093
1772651407530461000,1.7074609375,-0.002130527049303055,-0.0011984214652329683,0.0014647373463958502
1772651407540463600,1.717463623046875,0,0.0030626326333731413,-0.0006657897029072046
1772651407550466300,1.72746630859375,-0.0010652635246515274,0.0003994738217443228,0.0003994738217443228
1772651407560469200,1.73746923828125,-0.0005326317623257637,0.0009321055840700865,-0.00013315794058144093
1772651407570472000,1.747471923828125,0.0005326317623257637,-0.0022636849898844957,0.0003994738217443228
1772651407580474600,1.757474609375,-0.0005326317623257637,-0.00013315794058144093,0.0003994738217443228
1772651407590477300,1.767477294921875,-0.0010652635246515274,0.001997369108721614,-0.00013315794058144093
1772651407600480300,1.777480224609375,0.0005326317623257637,-0.0011984214652329683,0.0003994738217443228
1772651407610483000,1.78748291015625,-0.0005326317623257637,0.0003994738217443228,0.0009321055840700865
1772651407620485600,1.797485595703125,0,0.0003994738217443228,-0.00013315794058144093
1772651407630488600,1.807488525390625,-0.001597895286977291,-0.00013315794058144093,0.0003994738217443228
1772651407640491300,1.8174912109375,0,0.0003994738217443228,-0.0006657897029072046
1772651407650494000,1.827493896484375,0.0005326317623257637,0.0014647373463958502,-0.00013315794058144093
1772651407660496600,1.83749658203125,-0.0010652635246515274,-0.00013315794058144093,0.0014647373463958502
1772651407670499600,1.84749951171875,0,0.0014647373463958502,-0.0006657897029072046
1772651407680502300,1.857502197265625,0,-0.0006657897029072046,-0.00013315794058144093
1772651407690505000,1.8675048828125,-0.0010652635246515274,0.0003994738217443228,0.0003994738217443228
1772651407700508000,1.8775078125,0.0005326317623257637,0.0003994738217443228,0.0009321055840700865
1772651407710510600,1.887510498046875,0,-0.00013315794058144093,-0.00013315794058144093
1772651407720513300,1.89751318359375,0,0.0003994738217443228,-0.0006657897029072046
1772651407730516000,1.907515869140625,0,0.0009321055840700865,-0.00013315794058144093
1772651407740519000,1.917518798828125,0,0.0009321055840700865,0.0003994738217443228
1772651407750521600,1.927521484375,0,-0.0006657897029072046,-0.00013315794058144093
1772651407760524800,1.93752490234375,0.0010652635246515274,-0.0022636849898844957,-0.0006657897029072046
1772651407770528300,1.9475283203125,0.0005326317623257637,0.0014647373463958502,0.0003994738217443228
1772651407780531700,1.95753173828125,-0.0005326317623257637,-0.00013315794058144093,0.0009321055840700865
1772651407790535200,1.96753515625,-0.002130527049303055,0.001997369108721614,0.0003994738217443228
1772651407800538600,1.97753857421875,0,0.001997369108721614,0.0003994738217443228
1772651407810541800,1.987541748046875,0.0005326317623257637,0.001997369108721614,-0.0011984214652329683
1772651407820545300,1.997545166015625,0.0005326317623257637,-0.0006657897029072046,-0.0011984214652329683
1772651407830548700,2.007548828125,0,-0.00013315794058144093,-0.00013315794058144093
1772651407840552200,2.01755224609375,0.001597895286977291,-0.0006657897029072046,0.0009321055840700865
1772651407850555600,2.0275556640625,-0.0005326317623257637,0.0014647373463958502,-0.00013315794058144093
1772651407860559000,2.03755908203125,0,0.0009321055840700865,-0.001731053227558732
1772651407870562300,2.047562255859375,0.0005326317623257637,-0.00013315794058144093,-0.0006657897029072046
1772651407880565800,2.057565673828125,-0.0010652635246515274,0.0009321055840700865,0.0009321055840700865
1772651407890569200,2.0675693359375,0.0005326317623257637,0.0009321055840700865,-0.0011984214652329683
1772651407900572700,2.07757275390625,-0.0005326317623257637,-0.0006657897029072046,0.0009321055840700865
1772651407910576000,2.087576171875,0.0005326317623257637,0.0003994738217443228,0.0014647373463958502
1772651407920579300,2.097579345703125,-0.0005326317623257637,0.0009321055840700865,0.0009321055840700865
1772651407930582800,2.107582763671875,0.0010652635246515274,0.0009321055840700865,0.0009321055840700865
1772651407940586200,2.117586181640625,0.0005326317623257637,0.0003994738217443228,-0.0006657897029072046
1772651407950589700,2.127589599609375,0.001597895286977291,-0.0011984214652329683,0.0009321055840700865
1772651407960593200,2.13759326171875,0,-0.00013315794058144093,-0.0022636849898844957
1772651407970596400,2.147596435546875,-0.002130527049303055,0.0009321055840700865,0.0009321055840700865
1772651407980599800,2.157599853515625,0.001597895286977291,0.0003994738217443228,-0.00013315794058144093
1772651407990603300,2.167603271484375,0.0010652635246515274,-0.00013315794058144093,-0.0006657897029072046
1772651408000606700,2.177606689453125,0.0005326317623257637,0.0003994738217443228,0.0025300008710473776
1772651408010610200,2.187610107421875,0.0010652635246515274,-0.0006657897029072046,0.0003994738217443228
1772651408020613600,2.197613525390625,0,-0.0011984214652329683,-0.00013315794058144093
1772651408030616800,2.207616943359375,-0.0005326317623257637,0.0009321055840700865,0.0009321055840700865
1772651408040620300,2.217620361328125,0.0010652635246515274,-0.0006657897029072046,-0.00013315794058144093
1772651408050623700,2.227623779296875,0.0005326317623257637,0.0003994738217443228,0.0003994738217443228
1772651408060627200,2.237627197265625,-0.0010652635246515274,-0.00013315794058144093,-0.00013315794058144093
1772651408070630700,2.247630615234375,0.0005326317623257637,-0.0006657897029072046,0.0009321055840700865
1772651408080633900,2.2576337890625,-0.0005326317623257637,0.0003994738217443228,0.001997369108721614
1772651408090637300,2.26763720703125,0,0.0003994738217443228,-0.00013315794058144093
1772651408100640800,2.277640869140625,-0.0005326317623257637,-0.00013315794058144093,-0.0011984214652329683
1772651408110644200,2.287644287109375,0,0.0009321055840700865,-0.0006657897029072046
1772651408120647700,2.297647705078125,0,-0.00013315794058144093,-0.00013315794058144093
1772651408130651100,2.307651123046875,0,-0.00013315794058144093,-0.00013315794058144093
1772651408140654300,2.317654296875,0,-0.00013315794058144093,0.001997369108721614
1772651408150657800,2.32765771484375,-0.0005326317623257637,-0.0006657897029072046,0.0009321055840700865
1772651408160661200,2.3376611328125,-0.001597895286977291,-0.0006657897029072046,-0.001731053227558732
1772651408170664700,2.347664794921875,-0.0005326317623257637,0.0009321055840700865,0.0009321055840700865
1772651408180668200,2.357668212890625,0,-0.001731053227558732,-0.00013315794058144093
1772651408190671600,2.367671630859375,0,-0.0011984214652329683,-0.0011984214652329683
1772651408200674800,2.3776748046875,-0.0005326317623257637,0.0003994738217443228,0.0009321055840700865
1772651408210678300,2.38767822265625,0.0005326317623257637,0.0009321055840700865,0.0003994738217443228
1772651408220681700,2.397681640625,0,-0.0011984214652329683,0.0003994738217443228
1772651408230685200,2.407685302734375,-0.0005326317623257637,-0.0011984214652329683,-0.00013315794058144093
1772651408240688600,2.417688720703125,0,-0.0006657897029072046,-0.0006657897029072046
1772651408250691800,2.42769189453125,-0.0010652635246515274,0.0003994738217443228,0.0003994738217443228
1772651408260695000,2.437695068359375,0,0.0009321055840700865,-0.00013315794058144093
1772651408270698200,2.4476982421875,-0.0005326317623257637,0.001997369108721614,0.0003994738217443228
1772651408280701200,2.457701171875,-0.0005326317623257637,-0.00013315794058144093,-0.00013315794058144093
1772651408290704400,2.467704345703125,0,-0.00013315794058144093,-0.00013315794058144093
1772651408300707600,2.47770751953125,0.0010652635246515274,-0.00013315794058144093,-0.00013315794058144093
1772651408310710500,2.48771044921875,0.0005326317623257637,-0.00013315794058144093,0.0009321055840700865
1772651408320713700,2.497713623046875,-0.0010652635246515274,0.0009321055840700865,0.0009321055840700865
1772651408330716700,2.507716552734375,-0.0005326317623257637,-0.00013315794058144093,-0.0011984214652329683
1772651408340719900,2.517719970703125,-0.0010652635246515274,-0.0011984214652329683,0.0003994738217443228
1772651408350722800,2.527722900390625,-0.0010652635246515274,-0.0006657897029072046,-0.00013315794058144093
1772651408360726000,2.53772607421875,0.0005326317623257637,0.0003994738217443228,0.0014647373463958502
1772651408370729200,2.547729248046875,-0.0010652635246515274,-0.0011984214652329683,-0.0011984214652329683
1772651408380732200,2.557732177734375,-0.0005326317623257637,0.0009321055840700865,-0.0006657897029072046
1772651408390735400,2.5677353515625,-0.0005326317623257637,-0.0006657897029072046,0.0003994738217443228
1772651408400738300,2.57773828125,-0.0010652635246515274,0.0009321055840700865,-0.00013315794058144093
1772651408410741500,2.587741455078125,-0.001597895286977291,0.0003994738217443228,-0.00013315794058144093
1772651408420744700,2.59774462890625,0,-0.0006657897029072046,0.001997369108721614
1772651408430747600,2.60774755859375,0.0010652635246515274,0.0003994738217443228,-0.0006657897029072046
1772651408440750800,2.617750732421875,-0.001597895286977291,-0.00013315794058144093,0.0009321055840700865
1772651408450753800,2.62775390625,-0.0005326317623257637,-0.0006657897029072046,-0.0011984214652329683
1772651408460757000,2.637757080078125,0,0.0014647373463958502,-0.0006657897029072046
1772651408470760200,2.64776025390625,0,-0.00013315794058144093,-0.00013315794058144093
1772651408480763100,2.65776318359375,-0.0005326317623257637,0.0003994738217443228,0.0003994738217443228
1772651408490766300,2.667766357421875,0,0.0009321055840700865,-0.00013315794058144093
1772651408500769300,2.677769287109375,-0.001597895286977291,-0.001731053227558732,-0.00013315794058144093
1772651408510772500,2.6877724609375,-0.0010652635246515274,0.0003994738217443228,0.0003994738217443228
1772651408520775400,2.697775390625,0.0005326317623257637,-0.00013315794058144093,0.0003994738217443228
1772651408530778600,2.707778564453125,0.0010652635246515274,-0.00013315794058144093,0.0003994738217443228
1772651408540781800,2.71778173828125,-0.0010652635246515274,-0.00013315794058144093,-0.0006657897029072046
1772651408550784800,2.72778466796875,-0.0010652635246515274,0.0003994738217443228,-0.00013315794058144093
1772651408560788000,2.7377880859375,-0.0010652635246515274,0.0014647373463958502,-0.00013315794058144093
1772651408570791200,2.747791259765625,0.001597895286977291,-0.0011984214652329683,0.0003994738217443228
1772651408580794000,2.757794189453125,-0.0005326317623257637,-0.00013315794058144093,0.0003994738217443228
1772651408590797300,2.76779736328125,0,-0.001731053227558732,0.0003994738217443228
1772651408600800300,2.77780029296875,0.0005326317623257637,-0.0011984214652329683,-0.001731053227558732
1772651408610803500,2.787803466796875,-0.0010652635246515274,0.0014647373463958502,-0.001731053227558732
1772651408620806700,2.797806640625,-0.0005326317623257637,-0.00013315794058144093,0.0003994738217443228
1772651408630809600,2.8078095703125,0,0.0003994738217443228,0.0009321055840700865
1772651408640812800,2.817812744140625,0,-0.00013315794058144093,0.0003994738217443228
1772651408650815700,2.827815673828125,0.0010652635246515274,-0.001731053227558732,0.0014647373463958502
1772651408660819000,2.83781884765625,-0.0005326317623257637,-0.0006657897029072046,-0.00013315794058144093
1772651408670822000,2.84782177734375,0.002130527049303055,-0.00013315794058144093,-0.0006657897029072046
1772651408680825000,2.8578251953125,-0.0005326317623257637,0.0009321055840700865,-0.0006657897029072046
1772651408690828300,2.867828369140625,0.0006657897029072046,-0.0007989476434886456,-0.0007989476434886456
1772651408700831200,2.877831298828125,-0.0009321055840700865,-0.001864211168140173,-0.00026631588116288185
1772651408710834400,2.88783447265625,0.0022636849898844957,-0.00026631588116288185,0.00026631588116288185
1772651408720837400,2.89783740234375,-0.0003994738217443228,-0.0029294746927917004,0.0007989476434886456
1772651408730840600,2.907840576171875,-0.001997369108721614,-0.0007989476434886456,0.0007989476434886456
1772651408740843800,2.91784375,0.0011984214652329683,0.0007989476434886456,0.00026631588116288185
1772651408750846700,2.9278466796875,0.00013315794058144093,0.00026631588116288185,-0.0013315794058144093
1772651408760850000,2.937849853515625,0.00013315794058144093,-0.0023968429304659367,-0.00026631588116288185
1772651408770853000,2.94785302734375,-0.0003994738217443228,0.001864211168140173,0.001864211168140173
1772651408780856300,2.957856201171875,-0.0003994738217443228,-0.0007989476434886456,-0.00026631588116288185
1772651408790859800,2.96785986328125,0.00013315794058144093,-0.00026631588116288185,0.0013315794058144093
1772651408800863000,2.977863037109375,-0.0003994738217443228,-0.0007989476434886456,-0.00026631588116288185
1772651408810866200,2.9878662109375,-0.0009321055840700865,-0.0013315794058144093,-0.00026631588116288185
1772651408820869400,2.997869384765625,0.0011984214652329683,-0.001864211168140173,-0.00026631588116288185
1772651408830872600,3.00787255859375,-0.0009321055840700865,0.00026631588116288185,-0.0007989476434886456
1772651408840876000,3.0178759765625,0.0011984214652329683,0.00026631588116288185,0.0007989476434886456
1772651408850879200,3.027879150390625,0.0011984214652329683,-0.0007989476434886456,-0.00026631588116288185
1772651408860882400,3.03788232421875,0.00013315794058144093,0.00026631588116288185,0.0007989476434886456
1772651408870885600,3.0478857421875,0.0011984214652329683,0.00026631588116288185,-0.00026631588116288185
1772651408880888800,3.057888916015625,0.00013315794058144093,0.0023968429304659367,0.00026631588116288185
1772651408890892300,3.067892333984375,0.0011984214652329683,-0.00026631588116288185,0.0013315794058144093
1772651408900895500,3.0778955078125,-0.0003994738217443228,0.00026631588116288185,-0.0007989476434886456
1772651408910898700,3.087898681640625,-0.0003994738217443228,-0.0007989476434886456,0.00026631588116288185
1772651408920902000,3.09790185546875,0.00013315794058144093,0.0013315794058144093,-0.0023968429304659367
1772651408930905000,3.107905029296875,0.00013315794058144093,-0.001864211168140173,-0.00026631588116288185
1772651408940908500,3.117908447265625,0.0006657897029072046,-0.001864211168140173,-0.00026631588116288185
1772651408950911700,3.127911865234375,0.0006657897029072046,0.001864211168140173,-0.00026631588116288185
1772651408960915000,3.1379150390625,-0.0009321055840700865,0.0007989476434886456,-0.0013315794058144093
1772651408970918100,3.147918212890625,0.00013315794058144093,-0.0007989476434886456,0.00026631588116288185
1772651408980921300,3.15792138671875,0.00013315794058144093,0.0023968429304659367,0.0007989476434886456
1772651408990924800,3.1679248046875,0.00013315794058144093,-0.0013315794058144093,-0.0007989476434886456
1772651409000928000,3.177927978515625,0.00013315794058144093,0.0013315794058144093,-0.0007989476434886456
1772651409010931200,3.18793115234375,0.00013315794058144093,-0.0013315794058144093,0.0013315794058144093
1772651409020934400,3.197934326171875,0.0011984214652329683,-0.0007989476434886456,-0.00026631588116288185
1772651409030937600,3.2079375,0.001731053227558732,0.00026631588116288185,-0.00026631588116288185
1772651409040941000,3.217941162109375,0.0006657897029072046,0.0007989476434886456,-0.0007989476434886456
1772651409050944300,3.2279443359375,0.00013315794058144093,0.0013315794058144093,-0.0013315794058144093
1772651409060947500,3.237947509765625,-0.0009321055840700865,0.0007989476434886456,0.00026631588116288185
1772651409070950700,3.24795068359375,0.0006657897029072046,-0.0013315794058144093,0.0007989476434886456
1772651409080953900,3.257953857421875,0.0011984214652329683,-0.0007989476434886456,0.0013315794058144093
1772651409090957300,3.267957275390625,0.001731053227558732,-0.0013315794058144093,0.0007989476434886456
1772651409100960500,3.27796044921875,0.00013315794058144093,0.0023968429304659367,-0.0013315794058144093
1772651409110963700,3.287963623046875,0.00013315794058144093,0.00026631588116288185,0.0013315794058144093
1772651409120967000,3.297966796875,0.00013315794058144093,0.0023968429304659367,0.0013315794058144093
1772651409130970000,3.30797021484375,-0.0014647373463958502,-0.0029294746927917004,-0.0013315794058144093
1772651409140973600,3.3179736328125,0.00013315794058144093,-0.0023968429304659367,-0.00026631588116288185
1772651409150976800,3.327976806640625,-0.0009321055840700865,-0.00026631588116288185,0.00026631588116288185
1772651409160980000,3.33797998046875,0.0011984214652329683,0.00026631588116288185,-0.00026631588116288185
1772651409170983200,3.347983154296875,0.00013315794058144093,-0.0007989476434886456,0.0007989476434886456
1772651409180986400,3.357986328125,0.0006657897029072046,0.00026631588116288185,-0.0007989476434886456
1772651409190989800,3.36798974609375,0.0011984214652329683,-0.0013315794058144093,0.00026631588116288185
1772651409200993000,3.377992919921875,0.0006657897029072046,0.0007989476434886456,0.0007989476434886456
1772651409210996200,3.387996337890625,0.001731053227558732,0.00026631588116288185,0.0007989476434886456
1772651409220999400,3.39799951171875,0.00013315794058144093,-0.0007989476434886456,0.00026631588116288185
1772651409231002600,3.408002685546875,-0.0014647373463958502,0.00026631588116288185,-0.00026631588116288185
1772651409241005800,3.418005859375,0.00013315794058144093,-0.0023968429304659367,-0.0007989476434886456
1772651409251009300,3.42800927734375,0.001731053227558732,-0.003462106455117464,0.00026631588116288185
1772651409261013000,3.438012939453125,-0.0003994738217443228,-0.0023968429304659367,0.0007989476434886456
1772651409271017000,3.448016845703125,-0.0003994738217443228,0.0007989476434886456,0.0007989476434886456
1772651409281021000,3.45802099609375,-0.0003994738217443228,-0.0007989476434886456,-0.0007989476434886456
1772651409291025000,3.46802490234375,-0.0009321055840700865,-0.00026631588116288185,0.00026631588116288185
1772651409301028900,3.47802880859375,-0.0003994738217443228,0.0013315794058144093,-0.0013315794058144093
1772651409311032800,3.48803271484375,0.0006657897029072046,0.00026631588116288185,0.00026631588116288185
1772651409321036500,3.49803662109375,0.0006657897029072046,0.00026631588116288185,0.0007989476434886456
1772651409331040500,3.50804052734375,-0.0009321055840700865,-0.0013315794058144093,-0.00026631588116288185
1772651409341044500,3.51804443359375,-0.0009321055840700865,0.001864211168140173,0.00026631588116288185
1772651409351048400,3.52804833984375,0.0006657897029072046,0.0007989476434886456,-0.0007989476434886456
1772651409361052400,3.538052490234375,-0.0009321055840700865,-0.0013315794058144093,-0.0007989476434886456
1772651409371056400,3.548056396484375,-0.0009321055840700865,0.0007989476434886456,-0.0007989476434886456
1772651409381060400,3.558060302734375,0.00013315794058144093,0.00026631588116288185,0.0007989476434886456
1772651409391064300,3.568064208984375,0.0006657897029072046,-0.00026631588116288185,-0.001864211168140173
1772651409401068300,3.578068359375,-0.0009321055840700865,-0.00026631588116288185,-0.00026631588116288185
1772651409411072300,3.588072265625,-0.0009321055840700865,-0.001864211168140173,-0.0023968429304659367
1772651409421076000,3.598075927734375,0.0006657897029072046,0.00026631588116288185,-0.00026631588116288185
1772651409431080000,3.608079833984375,0.00013315794058144093,0.0007989476434886456,0.0007989476434886456
1772651409441084000,3.618083984375,0.0006657897029072046,0.00026631588116288185,-0.0013315794058144093
1772651409451088000,3.628087890625,-0.0009321055840700865,0.0007989476434886456,-0.0007989476434886456
1772651409461091800,3.638091796875,-0.0003994738217443228,0.0007989476434886456,-0.00026631588116288185
1772651409471095800,3.648095703125,-0.001997369108721614,0.0007989476434886456,0.001864211168140173
1772651409481099800,3.658099853515625,0.0006657897029072046,0.00026631588116288185,-0.00026631588116288185
1772651409491103700,3.668103759765625,-0.0009321055840700865,0.00026631588116288185,-0.0007989476434886456
1772651409501107700,3.678107666015625,0.0011984214652329683,-0.001864211168140173,-0.00026631588116288185
1772651409511111700,3.688111572265625,0.00013315794058144093,0.0007989476434886456,0.0007989476434886456
1772651409521115400,3.698115478515625,0.0011984214652329683,-0.0013315794058144093,-0.001864211168140173
1772651409531119400,3.708119384765625,-0.0009321055840700865,-0.0007989476434886456,-0.00026631588116288185
1772651409541123300,3.718123291015625,0.00013315794058144093,0.0007989476434886456,0.0007989476434886456
1772651409551127300,3.728127197265625,-0.0009321055840700865,0.00026631588116288185,-0.00026631588116288185
1772651409561131300,3.73813134765625,-0.0003994738217443228,0.0007989476434886456,0.00026631588116288185
1772651409571135200,3.74813525390625,-0.0014647373463958502,-0.0013315794058144093,0.0013315794058144093
1772651409581139200,3.75813916015625,0.00013315794058144093,-0.00026631588116288185,0.00026631588116288185
1772651409591143200,3.76814306640625,0.0022636849898844957,-0.0013315794058144093,0.0007989476434886456
1772651409601147100,3.778147216796875,0.001731053227558732,-0.0007989476434886456,-0.0007989476434886456
1772651409611151000,3.788151123046875,-0.0003994738217443228,-0.0013315794058144093,0.00026631588116288185
1772651409621155000,3.798155029296875,0.00013315794058144093,-0.0013315794058144093,-0.00026631588116288185
1772651409631158800,3.80815869140625,0.0006657897029072046,0.0023968429304659367,-0.0007989476434886456
1772651409641162800,3.818162841796875,0.0011984214652329683,-0.0029294746927917004,0.00026631588116288185
1772651409651166700,3.828166748046875,0.00013315794058144093,-0.0013315794058144093,0.00026631588116288185
1772651409661170700,3.838170654296875,-0.0014647373463958502,-0.0007989476434886456,-0.00026631588116288185
1772651409671174700,3.848174560546875,0.0006657897029072046,-0.00026631588116288185,-0.001864211168140173
1772651409681178600,3.8581787109375,0.0006657897029072046,-0.00026631588116288185,-0.001864211168140173
1772651409691182600,3.8681826171875,0.0006657897029072046,0.00026631588116288185,0.0007989476434886456
1772651409701186600,3.8781865234375,0.00013315794058144093,-0.0013315794058144093,-0.0007989476434886456
1772651409711190500,3.8881904296875,0.0011984214652329683,-0.00026631588116288185,-0.0007989476434886456
1772651409721194500,3.898194580078125,0.0006657897029072046,-0.001864211168140173,-0.0013315794058144093
1772651409731198200,3.9081982421875,-0.0009321055840700865,0.0013315794058144093,-0.0013315794058144093
1772651409741202200,3.9182021484375,-0.0003994738217443228,-0.0013315794058144093,-0.00026631588116288185
1772651409751206100,3.9282060546875,0.0006657897029072046,-0.0007989476434886456,-0.0007989476434886456
1772651409761209600,3.938209716796875,-0.0025300008710473776,-0.00026631588116288185,-0.0007989476434886456
1772651409771212800,3.948212890625,0.0011984214652329683,0.00026631588116288185,-0.0007989476434886456
1772651409781216000,3.958216064453125,0.00013315794058144093,-0.001864211168140173,-0.0013315794058144093
1772651409791219200,3.96821923828125,-0.0009321055840700865,-0.00026631588116288185,-0.00026631588116288185
1772651409801222400,3.978222412109375,0.00013315794058144093,-0.0007989476434886456,0.0007989476434886456
1772651409811225900,3.988225830078125,0.00013315794058144093,-0.00026631588116288185,-0.00026631588116288185
1772651409821229000,3.99822900390625,0.00013315794058144093,-0.0007989476434886456,0.00026631588116288185
1772651409831232300,4.008232177734375,-0.0014647373463958502,-0.0007989476434886456,-0.00026631588116288185
1772651409841235500,4.0182353515625,-0.0003994738217443228,-0.00026631588116288185,0.0007989476434886456
1772651409851238700,4.02823876953125,0.0006657897029072046,0.00026631588116288185,0.00026631588116288185
1772651409861242000,4.0382421875,-0.0003994738217443228,-0.0013315794058144093,0.001864211168140173
1772651409871245300,4.048245361328125,-0.0003994738217443228,-0.00026631588116288185,0.0013315794058144093
1772651409881248500,4.05824853515625,-0.0014647373463958502,-0.0007989476434886456,-0.0013315794058144093
1772651409891251700,4.068251708984375,-0.0009321055840700865,0.00026631588116288185,0.00026631588116288185
1772651409901255200,4.078255126953125,-0.0009321055840700865,-0.0023968429304659367,0.0007989476434886456
1772651409911258400,4.08825830078125,-0.0003994738217443228,-0.00026631588116288185,-0.0013315794058144093
1772651409921261600,4.098261474609375,0.0011984214652329683,-0.0013315794058144093,-0.0007989476434886456
1772651409931264800,4.1082646484375,-0.0009321055840700865,-0.00026631588116288185,-0.001864211168140173
1772651409941268000,4.11826806640625,-0.0003994738217443228,-0.00026631588116288185,0.00026631588116288185
1772651409951271400,4.128271484375,0.0006657897029072046,0.00026631588116288185,-0.0007989476434886456
1772651409961274600,4.138274658203125,0.0006657897029072046,-0.00026631588116288185,0.00026631588116288185
1772651409971277800,4.14827783203125,0.00013315794058144093,0.00026631588116288185,-0.0007989476434886456
1772651409981281000,4.158281005859375,0.00013315794058144093,0.0007989476434886456,-0.00026631588116288185
1772651409991284200,4.1682841796875,0.00013315794058144093,0.00026631588116288185,0.00026631588116288185
1772651410001287700,4.17828759765625,0.0006657897029072046,-0.00026631588116288185,0.00026631588116288185
1772651410011291000,4.188290771484375,0.0011984214652329683,-0.0013315794058144093,-0.0007989476434886456
1772651410021294000,4.198294189453125,-0.0003994738217443228,-0.00026631588116288185,-0.0013315794058144093
1772651410031297300,4.20829736328125,0.00013315794058144093,-0.00026631588116288185,-0.0007989476434886456
1772651410041300500,4.218300537109375,-0.0009321055840700865,-0.00026631588116288185,-0.0007989476434886456
1772651410051304000,4.228303955078125,0.001731053227558732,-0.0007989476434886456,-0.00026631588116288185
1772651410061307100,4.23830712890625,0.0006657897029072046,0.00026631588116288185,0.0007989476434886456
1772651410071310300,4.248310302734375,0.0006657897029072046,-0.0007989476434886456,0.0007989476434886456
1772651410081313500,4.2583134765625,-0.0009321055840700865,0.001864211168140173,0.0013315794058144093
1772651410091316700,4.268316650390625,-0.0003994738217443228,0.00026631588116288185,-0.00026631588116288185
1772651410101320200,4.2783203125,-0.0014647373463958502,-0.00026631588116288185,0.0007989476434886456
1772651410111323400,4.288323486328125,-0.0003994738217443228,0.00026631588116288185,-0.00026631588116288185
1772651410121326600,4.29832666015625,0.00013315794058144093,0.00026631588116288185,0.00026631588116288185
1772651410131329800,4.308329833984375,0.00013315794058144093,-0.00026631588116288185,0.0013315794058144093
1772651410141333000,4.3183330078125,0.0006657897029072046,0.0007989476434886456,-0.00026631588116288185
1772651410151336400,4.32833642578125,-0.0003994738217443228,-0.0029294746927917004,0.00026631588116288185
1772651410161339600,4.338339599609375,0.001731053227558732,-0.0007989476434886456,-0.00026631588116288185
1772651410171342800,4.3483427734375,-0.0003994738217443228,-0.00026631588116288185,-0.00026631588116288185
1772651410181346000,4.358345947265625,0.0011984214652329683,0.00026631588116288185,-0.0013315794058144093
1772651410191349200,4.368349365234375,0.0006657897029072046,0.00026631588116288185,0.001864211168140173
1772651410201352700,4.378352783203125,0.00013315794058144093,0.0007989476434886456,-0.00026631588116288185
1772651410211356000,4.38835595703125,0.0011984214652329683,-0.00026631588116288185,0.00026631588116288185
1772651410221359000,4.398359130859375,0.0006657897029072046,0.00026631588116288185,-0.00026631588116288185
1772651410231362300,4.4083623046875,0.0006657897029072046,-0.001864211168140173,-0.00026631588116288185
1772651410241365800,4.41836572265625,0.0006657897029072046,0.00026631588116288185,0.00026631588116288185
1772651410251369000,4.428368896484375,0.001731053227558732,-0.0013315794058144093,0.0013315794058144093
1772651410261372200,4.4383720703125,0.0011984214652329683,-0.001864211168140173,-0.00026631588116288185
1772651410271375600,4.448375732421875,-0.0003994738217443228,-0.00026631588116288185,-0.0007989476434886456
1772651410281379000,4.458379150390625,0.001731053227558732,-0.0023968429304659367,0.0007989476434886456
1772651410291382500,4.468382568359375,0.00013315794058144093,-0.00026631588116288185,-0.0013315794058144093
1772651410301385700,4.4783857421875,-0.0003994738217443228,0.00026631588116288185,-0.0013315794058144093
1772651410311389200,4.48838916015625,-0.0003994738217443228,-0.00026631588116288185,0.0007989476434886456
1772651410321392600,4.498392578125,0.00013315794058144093,0.0007989476434886456,-0.0007989476434886456
1772651410331396000,4.50839599609375,-0.0003994738217443228,0.0007989476434886456,0.00026631588116288185
1772651410351402800,4.52840283203125,-0.0009321055840700865,-0.00026631588116288185,-0.00026631588116288185
1772651410361406200,4.53840625,-0.0009321055840700865,0.0007989476434886456,-0.0007989476434886456
1772651410371409700,4.54840966796875,0.0011984214652329683,-0.001864211168140173,0.00026631588116288185
1772651410381412900,4.558412841796875,-0.0009321055840700865,0.00026631588116288185,-0.00026631588116288185
1772651410391416300,4.568416259765625,0.0006657897029072046,0.00026631588116288185,-0.0013315794058144093
1772651410401419800,4.578419677734375,0.00013315794058144093,0.00026631588116288185,0.0007989476434886456
1772651410411423200,4.58842333984375,-0.0003994738217443228,-0.0007989476434886456,-0.0007989476434886456
1772651410421426700,4.5984267578125,0.0006657897029072046,0.001864211168140173,-0.001864211168140173
1772651410431430000,4.608429931640625,0.00013315794058144093,0.00026631588116288185,-0.0007989476434886456
1772651410441433300,4.618433349609375,-0.0010652635246515274,0.0010652635246515274,0.0009321055840700865
1772651410451436800,4.628436767578125,-0.0026631588116288185,-0.0010652635246515274,0.0003994738217443228
1772651410461440300,4.638440185546875,-0.0010652635246515274,-0.002130527049303055,0.0009321055840700865
1772651410471443500,4.648443359375,0,-0.0005326317623257637,-0.0011984214652329683
1772651410481447000,4.658447021484375,0.0005326317623257637,-0.0005326317623257637,0.0009321055840700865
1772651410491450400,4.668450439453125,-0.0005326317623257637,-0.001597895286977291,0.0009321055840700865
1772651410501453800,4.678453857421875,-0.0005326317623257637,-0.0005326317623257637,0.0003994738217443228
1772651410511457000,4.68845703125,0.0005326317623257637,0,0.001997369108721614
1772651410521460500,4.69846044921875,0.0010652635246515274,0,-0.0006657897029072046
1772651410531464000,4.7084638671875,-0.0010652635246515274,0.0005326317623257637,0.0003994738217443228
1772651410541467400,4.71846728515625,-0.0005326317623257637,0.0005326317623257637,-0.0011984214652329683
1772651410551470600,4.728470703125,-0.0010652635246515274,0.0005326317623257637,0.0003994738217443228
1772651410561474000,4.73847412109375,0,0.0010652635246515274,-0.00013315794058144093
1772651410571477500,4.7484775390625,0.0005326317623257637,0,-0.00013315794058144093
1772651410581481000,4.75848095703125,0.0010652635246515274,0.001597895286977291,-0.0011984214652329683
1772651410591484400,4.768484375,0,0.0010652635246515274,-0.0006657897029072046
1772651410601487600,4.778487548828125,-0.0005326317623257637,0.002130527049303055,0.0003994738217443228
1772651410611491000,4.788490966796875,0,0,-0.00013315794058144093
1772651410621494500,4.79849462890625,0.0005326317623257637,0.0005326317623257637,-0.0006657897029072046
1772651410631498000,4.808498046875,0.0005326317623257637,0.0005326317623257637,-0.00013315794058144093
1772651410641501200,4.818501220703125,-0.0005326317623257637,0.0005326317623257637,0.0003994738217443228
1772651410651504600,4.828504638671875,-0.0005326317623257637,0.002130527049303055,-0.0006657897029072046
1772651410661508000,4.838508056640625,-0.0005326317623257637,0.001597895286977291,0.0003994738217443228
1772651410671511600,4.848511474609375,0,-0.0010652635246515274,-0.0006657897029072046
1772651410681514800,4.8585146484375,0,0.0010652635246515274,-0.00013315794058144093
1772651410691518200,4.868518310546875,0.0005326317623257637,0.001597895286977291,-0.0006657897029072046
1772651410701521700,4.878521728515625,0.0005326317623257637,0.0010652635246515274,-0.0006657897029072046
1772651410711525000,4.888525146484375,-0.0005326317623257637,0.003728422336280346,0.0003994738217443228
1772651410721528300,4.8985283203125,0,0.0005326317623257637,0.0003994738217443228
1772651410731531800,4.90853173828125,0,0,0.001997369108721614
1772651410741535200,4.91853515625,0.0010652635246515274,0,0.0003994738217443228
1772651410751538700,4.92853857421875,0,0.002130527049303055,0.0003994738217443228
1772651410761542000,4.9385419921875,-0.0005326317623257637,0.002130527049303055,0.001997369108721614
1772651410771545000,4.948545166015625,-0.001597895286977291,0.001597895286977291,-0.0006657897029072046
1772651410781548300,4.95854833984375,0.0005326317623257637,-0.0005326317623257637,-0.0006657897029072046
1772651410791551500,4.968551513671875,0.0005326317623257637,-0.0005326317623257637,0.0003994738217443228
1772651410801555000,4.978554931640625,0.0005326317623257637,0.002130527049303055,-0.00013315794058144093
1772651410811558100,4.98855810546875,0,-0.0026631588116288185,0.0003994738217443228
1772651410821561300,4.998561279296875,0.0005326317623257637,-0.0010652635246515274,-0.0011984214652329683
1772651410831564500,5.008564453125,-0.0005326317623257637,0,-0.001731053227558732
1772651410841567700,5.018567626953125,0.0010652635246515274,0.0005326317623257637,-0.00013315794058144093
1772651410851571200,5.0285712890625,0.0005326317623257637,0.0010652635246515274,-0.0006657897029072046
1772651410861574400,5.038574462890625,-0.0010652635246515274,0.003195790573954582,-0.00013315794058144093
1772651410871577600,5.04857763671875,0.0010652635246515274,0.001597895286977291,-0.00013315794058144093
1772651410881580800,5.058580810546875,0,0,0.0003994738217443228
1772651410891584000,5.068583984375,-0.0005326317623257637,-0.0005326317623257637,0.0009321055840700865
1772651410901587500,5.07858740234375,-0.0010652635246515274,-0.001597895286977291,-0.0006657897029072046
1772651410911590700,5.088590576171875,0.0005326317623257637,-0.002130527049303055,-0.00013315794058144093
1772651410921593900,5.09859375,-0.001597895286977291,0,-0.00013315794058144093
1772651410931597000,5.10859716796875,0.001597895286977291,0.0010652635246515274,0.0009321055840700865
1772651410941600300,5.118600341796875,-0.0010652635246515274,0.0010652635246515274,0.0003994738217443228
1772651410951603700,5.128603759765625,-0.0010652635246515274,0.0005326317623257637,0.0003994738217443228
1772651410961607000,5.13860693359375,-0.0005326317623257637,-0.0010652635246515274,-0.00013315794058144093
1772651410971610000,5.148610107421875,-0.0010652635246515274,0,-0.00013315794058144093
1772651410981613300,5.15861328125,0,0.001597895286977291,-0.00013315794058144093
1772651410991616500,5.168616455078125,-0.0005326317623257637,0.001597895286977291,0.0003994738217443228
1772651411001620000,5.178619873046875,0.0010652635246515274,-0.0005326317623257637,0.0003994738217443228
1772651411011623200,5.188623046875,0.002130527049303055,0.0010652635246515274,-0.00013315794058144093
1772651411021626400,5.19862646484375,0,0.001597895286977291,-0.00013315794058144093
1772651411031629600,5.208629638671875,0,-0.002130527049303055,-0.00013315794058144093
1772651411041632800,5.2186328125,-0.001597895286977291,0.0005326317623257637,-0.0011984214652329683
1772651411051636200,5.22863623046875,0,-0.0010652635246515274,0.0003994738217443228
1772651411061639400,5.238639404296875,0,0,-0.00013315794058144093
1772651411071642600,5.248642578125,0.0005326317623257637,0,-0.00013315794058144093
1772651411081645800,5.258645751953125,-0.0005326317623257637,0,-0.001731053227558732
1772651411091649000,5.26864892578125,-0.0005326317623257637,-0.0005326317623257637,0.0003994738217443228
1772651411101652500,5.278652587890625,-0.0005326317623257637,-0.0005326317623257637,0.0003994738217443228
1772651411111655700,5.28865576171875,-0.0005326317623257637,0.0010652635246515274,0.0003994738217443228
1772651411121659000,5.298658935546875,0.0010652635246515274,0.001597895286977291,-0.00013315794058144093
1772651411131662000,5.308662109375,0.0005326317623257637,-0.0010652635246515274,0.0009321055840700865
1772651411141665300,5.318665283203125,0,-0.0010652635246515274,0.0014647373463958502
1772651411151668700,5.328668701171875,-0.0010652635246515274,0,0.0009321055840700865
1772651411161672000,5.338671875,-0.0005326317623257637,-0.0005326317623257637,0.0003994738217443228
1772651411171675100,5.348675048828125,0.0005326317623257637,0.0005326317623257637,0.0003994738217443228
1772651411181678300,5.35867822265625,0.0005326317623257637,-0.0005326317623257637,-0.003328948514536023
1772651411191681500,5.368681640625,-0.0010652635246515274,0,-0.0006657897029072046
1772651411201685000,5.37868505859375,0,0.001597895286977291,-0.0006657897029072046
1772651411211688200,5.388688232421875,-0.0005326317623257637,-0.0010652635246515274,-0.00013315794058144093
1772651411221691400,5.39869140625,0,-0.0005326317623257637,-0.0006657897029072046
1772651411231694600,5.408694580078125,0.0010652635246515274,-0.0005326317623257637,0.0009321055840700865
1772651411241697800,5.41869775390625,-0.001597895286977291,0.0005326317623257637,0.0003994738217443228
1772651411251701000,5.428700927734375,0,0.0005326317623257637,-0.00013315794058144093
1772651411261704700,5.43870458984375,-0.0005326317623257637,-0.001597895286977291,-0.0022636849898844957
1772651411271708200,5.448708251953125,0,0.0005326317623257637,-0.00013315794058144093
1772651411281711600,5.458711669921875,0.001597895286977291,-0.001597895286977291,0.0003994738217443228
1772651411291715000,5.468715087890625,0.0005326317623257637,0.0010652635246515274,0.0014647373463958502
1772651411301718800,5.47871875,-0.0010652635246515274,0,0.0009321055840700865
1772651411311722200,5.48872216796875,0.0005326317623257637,-0.0005326317623257637,-0.001731053227558732
1772651411321725700,5.4987255859375,0,0,0.0003994738217443228
1772651411331729400,5.5087294921875,0.0005326317623257637,0.002130527049303055,0.0009321055840700865
1772651411341732900,5.51873291015625,-0.0010652635246515274,0,-0.00013315794058144093
1772651411351736300,5.528736328125,-0.0010652635246515274,-0.0005326317623257637,0.0003994738217443228
1772651411361739800,5.53873974609375,-0.001597895286977291,0.0005326317623257637,-0.00013315794058144093
1772651411371743500,5.548743408203125,0.0010652635246515274,0.0005326317623257637,-0.00013315794058144093
1772651411381747000,5.558746826171875,0.0005326317623257637,-0.0005326317623257637,-0.0006657897029072046
1772651411391750400,5.56875048828125,0.0005326317623257637,0.0010652635246515274,0.0003994738217443228
1772651411401753900,5.57875390625,0.0005326317623257637,0.0005326317623257637,-0.0006657897029072046
1772651411411757600,5.588757568359375,0.0005326317623257637,0.001597895286977291,0.0003994738217443228
1772651411421761000,5.598760986328125,0.0005326317623257637,0.0005326317623257637,-0.0006657897029072046
1772651411431764500,5.608764404296875,-0.0005326317623257637,-0.0010652635246515274,0.001997369108721614
1772651411441768200,5.618768310546875,-0.0005326317623257637,0.0005326317623257637,0.0003994738217443228
1772651411451771600,5.628771728515625,-0.0005326317623257637,-0.001597895286977291,-0.00013315794058144093
1772651411461775000,5.638775146484375,-0.0005326317623257637,0,-0.00013315794058144093
1772651411471778600,5.648778564453125,0.002130527049303055,0.002130527049303055,0.0009321055840700865
1772651411481782300,5.6587822265625,0,0.0010652635246515274,0.0003994738217443228
1772651411491785700,5.66878564453125,-0.001597895286977291,0,-0.001731053227558732
1772651411501789200,5.6787890625,-0.0005326317623257637,-0.0010652635246515274,0.0003994738217443228
1772651411511793000,5.68879296875,-0.0005326317623257637,0.0005326317623257637,-0.0011984214652329683
1772651411521796400,5.69879638671875,0.0010652635246515274,-0.0005326317623257637,0.0014647373463958502
1772651411531799800,5.7087998046875,-0.0005326317623257637,0,-0.00013315794058144093
1772651411541803300,5.71880322265625,0,0,0.0003994738217443228
1772651411551807000,5.728806884765625,0,0,0.0014647373463958502
1772651411561810400,5.738810546875,0,0.0005326317623257637,-0.0011984214652329683
1772651411571814000,5.74881396484375,-0.0010652635246515274,0.0005326317623257637,0.0009321055840700865
1772651411581817300,5.7588173828125,0.0005326317623257637,0.0010652635246515274,-0.0006657897029072046
1772651411591821000,5.768821044921875,0.001597895286977291,0.0010652635246515274,-0.0011984214652329683
1772651411601824500,5.778824462890625,0,-0.0010652635246515274,0.0009321055840700865
1772651411611828000,5.788827880859375,-0.001597895286977291,0,0.0009321055840700865
1772651411621831700,5.798831787109375,0.0005326317623257637,0,-0.00013315794058144093
1772651411631835100,5.808835205078125,0,0.0005326317623257637,-0.00013315794058144093
1772651411641838600,5.818838623046875,0.0005326317623257637,-0.0005326317623257637,0.0014647373463958502
1772651411651842000,5.828842041015625,0,0.0005326317623257637,-0.001731053227558732
1772651411661845800,5.838845703125,-0.0010652635246515274,0.0010652635246515274,-0.0006657897029072046
1772651411671849200,5.84884912109375,-0.0010652635246515274,0,-0.0006657897029072046
1772651411681852700,5.858852783203125,-0.0010652635246515274,0.0005326317623257637,-0.00013315794058144093
1772651411691856400,5.8688564453125,0.0005326317623257637,0.0026631588116288185,-0.00013315794058144093
1772651411701859800,5.87885986328125,0.0005326317623257637,-0.0010652635246515274,0.0009321055840700865
1772651411711863300,5.88886328125,0,-0.0010652635246515274,-0.00013315794058144093
1772651411721866800,5.89886669921875,0.0010652635246515274,0.0010652635246515274,0.0003994738217443228
1772651411731870500,5.908870361328125,-0.0005326317623257637,0.0005326317623257637,-0.001731053227558732
1772651411741874000,5.9188740234375,0,0,-0.0006657897029072046
1772651411751877400,5.92887744140625,-0.0005326317623257637,0.002130527049303055,0.0014647373463958502
1772651411761880600,5.938880615234375,-0.0005326317623257637,-0.0010652635246515274,-0.00013315794058144093
1772651411771883500,5.948883544921875,-0.001597895286977291,0,-0.00013315794058144093
1772651411781886700,5.95888671875,0,0.0010652635246515274,0.0003994738217443228
1772651411791889700,5.9688896484375,0,-0.001597895286977291,-0.00013315794058144093
1772651411801892900,5.978892822265625,-0.0005326317623257637,-0.001597895286977291,0.0003994738217443228
1772651411811896000,5.98889599609375,-0.0005326317623257637,0.002130527049303055,-0.0011984214652329683
1772651411821899000,5.99889892578125,0.0005326317623257637,-0.0005326317623257637,0.0003994738217443228
1772651411831902200,6.008902099609375,-0.0005326317623257637,-0.0010652635246515274,0.0003994738217443228
1772651411841905200,6.0189052734375,-0.0010652635246515274,-0.001597895286977291,-0.00013315794058144093
1772651411851908400,6.028908447265625,-0.0005326317623257637,0.0005326317623257637,-0.00013315794058144093
1772651411861911600,6.03891162109375,-0.0005326317623257637,-0.0005326317623257637,0.0009321055840700865
1772651411871914500,6.04891455078125,-0.0005326317623257637,0.0005326317623257637,-0.00013315794058144093
1772651411881917700,6.058917724609375,0,0,0.0003994738217443228
1772651411891920600,6.068920654296875,0,0.0010652635246515274,0.0014647373463958502
1772651411901923800,6.078923828125,-0.0010652635246515274,0,0.0009321055840700865
1772651411911926800,6.0889267578125,0.001597895286977291,0.001597895286977291,0.0014647373463958502
1772651411921930000,6.098929931640625,0.0005326317623257637,-0.0005326317623257637,-0.00013315794058144093
1772651411931933000,6.108932861328125,-0.0010652635246515274,-0.001597895286977291,-0.00013315794058144093
1772651411941936000,6.11893603515625,-0.0005326317623257637,0.001597895286977291,0.0014647373463958502
1772651411951939300,6.128939208984375,0,-0.002130527049303055,-0.0006657897029072046
1772651411961942300,6.1389423828125,0.0005326317623257637,-0.0010652635246515274,-0.0006657897029072046
1772651411971945500,6.148945556640625,0,-0.0005326317623257637,-0.0006657897029072046
1772651411981948400,6.158948486328125,-0.0005326317623257637,0.001597895286977291,-0.00013315794058144093
1772651411991951600,6.16895166015625,-0.001597895286977291,0,0.0014647373463958502
1772651412001954800,6.178954833984375,-0.0010652635246515274,-0.0010652635246515274,0.0003994738217443228
1772651412011957800,6.188957763671875,-0.001597895286977291,-0.0005326317623257637,-0.0006657897029072046
1772651412021961000,6.1989609375,0,0,0.0009321055840700865
1772651412031964000,6.2089638671875,-0.0005326317623257637,-0.001597895286977291,-0.0006657897029072046
1772651412041967000,6.218967041015625,0.0010652635246515274,0.0005326317623257637,-0.0011984214652329683
1772651412051970300,6.22897021484375,-0.0005326317623257637,0,0.0009321055840700865
1772651412061973200,6.23897314453125,0.0005326317623257637,0,0.0009321055840700865
1772651412071976400,6.2489765625,0.001597895286977291,0.001597895286977291,-0.00013315794058144093
1772651412081979400,6.2589794921875,0.0005326317623257637,0.003195790573954582,0.0014647373463958502
1772651412091982600,6.268982666015625,-0.001597895286977291,0.0005326317623257637,0.0003994738217443228
1772651412101985500,6.278985595703125,0,-0.0010652635246515274,0.0009321055840700865
1772651412111988700,6.28898876953125,-0.0005326317623257637,-0.0005326317623257637,0.0009321055840700865
1772651412121991700,6.29899169921875,-0.001597895286977291,0.001597895286977291,-0.00013315794058144093
1772651412131995000,6.308994873046875,0,0.0010652635246515274,-0.0006657897029072046
1772651412141998000,6.318998046875,0.0005326317623257637,0.001597895286977291,0.0009321055840700865
1772651412152001000,6.3290009765625,0.0005326317623257637,0,-0.00013315794058144093
1772651412162004200,6.339004150390625,-0.0005326317623257637,0.001597895286977291,0.0009321055840700865
1772651412172007200,6.349007080078125,0,0,-0.00013315794058144093
1772651412182010400,6.35901025390625,0.0005326317623257637,-0.0005326317623257637,0.0014647373463958502
1772651412192013600,6.369013671875,-0.0014647373463958502,0.0007989476434886456,0.00026631588116288185
1772651412202016500,6.3790166015625,0.0011984214652329683,0.0023968429304659367,-0.00026631588116288185
1772651412212019700,6.389019775390625,0.00013315794058144093,-0.001864211168140173,-0.00026631588116288185
1772651412222022700,6.399022705078125,-0.0009321055840700865,-0.0007989476434886456,-0.00026631588116288185
1772651412232025900,6.40902587890625,-0.0009321055840700865,0.00026631588116288185,0.0007989476434886456
1772651412242028800,6.41902880859375,0.0011984214652329683,-0.0007989476434886456,-0.00026631588116288185
1772651412252032000,6.429031982421875,0.00013315794058144093,0.0007989476434886456,0.00026631588116288185
1772651412262035200,6.43903515625,-0.0003994738217443228,0.00026631588116288185,-0.00026631588116288185
1772651412272038400,6.449038330078125,-0.0003994738217443228,0.0013315794058144093,-0.00026631588116288185
1772651412282041900,6.459041748046875,0.0011984214652329683,-0.00026631588116288185,-0.0007989476434886456
1772651412292045000,6.469045166015625,-0.0003994738217443228,-0.0013315794058144093,-0.0007989476434886456
1772651412302048300,6.47904833984375,0.001731053227558732,-0.00026631588116288185,-0.00026631588116288185
1772651412312051500,6.489051513671875,0.00013315794058144093,-0.0013315794058144093,-0.00026631588116288185
1772651412322054700,6.4990546875,0.0006657897029072046,0.001864211168140173,0.0013315794058144093
1772651412332058000,6.50905810546875,0.0006657897029072046,-0.00026631588116288185,0.0007989476434886456
1772651412342061300,6.519061279296875,-0.0009321055840700865,0.0007989476434886456,0.0007989476434886456
1772651412352064500,6.529064453125,0.00013315794058144093,-0.00026631588116288185,-0.0007989476434886456
1772651412362067700,6.539067626953125,0.001731053227558732,-0.003462106455117464,-0.00026631588116288185
1772651412372071000,6.54907080078125,0.001731053227558732,-0.001864211168140173,-0.0013315794058144093
1772651412382074000,6.55907421875,0.00013315794058144093,-0.0013315794058144093,0.00026631588116288185
1772651412392077300,6.569077392578125,-0.0009321055840700865,0.0007989476434886456,-0.00026631588116288185
1772651412402080800,6.579080810546875,0.0006657897029072046,0.001864211168140173,0.00026631588116288185
1772651412412084000,6.589083984375,0.0006657897029072046,0.001864211168140173,-0.00026631588116288185
1772651412422087200,6.599087158203125,0.00013315794058144093,-0.00026631588116288185,0.00026631588116288185
1772651412432090400,6.60909033203125,-0.0003994738217443228,0.00026631588116288185,0.00026631588116288185
1772651412442093600,6.619093505859375,-0.0003994738217443228,0.0007989476434886456,0.00026631588116288185
1772651412452097000,6.629096923828125,-0.0003994738217443228,0.00026631588116288185,-0.0007989476434886456
1772651412462100200,6.639100341796875,-0.001997369108721614,-0.00026631588116288185,-0.001864211168140173
1772651412472103400,6.649103515625,-0.0003994738217443228,-0.0007989476434886456,0.00026631588116288185
1772651412482106600,6.659106689453125,0.00013315794058144093,0.00026631588116288185,-0.001864211168140173
1772651412492109800,6.66910986328125,0.0006657897029072046,-0.00026631588116288185,-0.0007989476434886456
1772651412502113000,6.679113037109375,-0.0009321055840700865,0.0007989476434886456,-0.0013315794058144093
1772651412512116500,6.689116455078125,0.00013315794058144093,0.00026631588116288185,-0.00026631588116288185
1772651412522119700,6.69911962890625,0.00013315794058144093,-0.0023968429304659367,-0.001864211168140173
1772651412532123000,6.709122802734375,-0.0009321055840700865,0.0007989476434886456,-0.0007989476434886456
1772651412542126000,6.7191259765625,0.00013315794058144093,-0.0007989476434886456,-0.0007989476434886456
1772651412552129300,6.72912939453125,-0.0009321055840700865,-0.00026631588116288185,-0.0013315794058144093
1772651412562132500,6.739132568359375,0.00013315794058144093,0.0007989476434886456,-0.0007989476434886456
1772651412572136000,6.749135986328125,0.001731053227558732,0.00026631588116288185,0.0013315794058144093
1772651412582139100,6.75913916015625,0.0011984214652329683,0.001864211168140173,0.0013315794058144093
1772651412592142300,6.769142333984375,0.00013315794058144093,-0.0007989476434886456,-0.001864211168140173
1772651412602145500,6.7791455078125,0.00013315794058144093,-0.00026631588116288185,-0.0007989476434886456
1772651412612148700,6.789148681640625,0.0006657897029072046,0.0023968429304659367,-0.0007989476434886456
1772651412622152000,6.79915185546875,-0.0009321055840700865,0.00026631588116288185,-0.0007989476434886456
1772651412632155400,6.8091552734375,0.00013315794058144093,0.00026631588116288185,0.0013315794058144093
1772651412642158600,6.81915869140625,0.0006657897029072046,0.0013315794058144093,0.0007989476434886456
1772651412652161800,6.829161865234375,-0.0003994738217443228,-0.0007989476434886456,-0.0007989476434886456
1772651412662165000,6.8391650390625,0.00013315794058144093,0.00026631588116288185,-0.00026631588116288185
1772651412672168200,6.849168212890625,-0.0009321055840700865,0.0013315794058144093,-0.0013315794058144093
1772651412682171600,6.859171630859375,0.0011984214652329683,-0.001864211168140173,-0.0013315794058144093
1772651412692174800,6.8691748046875,-0.0003994738217443228,-0.0007989476434886456,-0.0013315794058144093
1772651412702178000,6.879177978515625,-0.0003994738217443228,0.001864211168140173,-0.0007989476434886456
1772651412712181200,6.88918115234375,0.00013315794058144093,0.00026631588116288185,0.00026631588116288185
1772651412722184400,6.899184326171875,0.0011984214652329683,0.00026631588116288185,0.0007989476434886456
1772651412732187600,6.909187744140625,-0.0014647373463958502,-0.001864211168140173,0.0007989476434886456
1772651412742191000,6.919191162109375,0.0006657897029072046,0.0013315794058144093,-0.0007989476434886456
1772651412752194300,6.9291943359375,-0.0003994738217443228,0.00026631588116288185,0.0007989476434886456
1772651412762197000,6.939197021484375,-0.0003994738217443228,0.003994738217443228,-0.001864211168140173
1772651412772200000,6.949199951171875,0.0006657897029072046,-0.0007989476434886456,-0.00026631588116288185
1772651412782202600,6.95920263671875,-0.0003994738217443228,0.00026631588116288185,-0.00026631588116288185
1772651412792205300,6.969205322265625,0.0011984214652329683,-0.00026631588116288185,-0.0013315794058144093
1772651412802208300,6.979208251953125,-0.0003994738217443228,0.0007989476434886456,-0.0007989476434886456
1772651412812211000,6.9892109375,-0.0003994738217443228,-0.00026631588116288185,0.0007989476434886456
1772651412822214000,6.9992138671875,-0.0003994738217443228,-0.001864211168140173,-0.0013315794058144093
1772651412832216600,7.009216552734375,-0.0009321055840700865,0.00026631588116288185,-0.00026631588116288185
1772651412842219500,7.019219482421875,0.00013315794058144093,-0.0013315794058144093,0.0013315794058144093
1772651412852222500,7.029222412109375,-0.0009321055840700865,-0.0007989476434886456,-0.00026631588116288185
1772651412862225200,7.03922509765625,0.0011984214652329683,-0.0023968429304659367,-0.00026631588116288185
1772651412872228000,7.04922802734375,0.00013315794058144093,0.0013315794058144093,-0.00026631588116288185
1772651412882230800,7.059230712890625,0.001731053227558732,0.001864211168140173,0.00026631588116288185
1772651412892233700,7.069233642578125,-0.0014647373463958502,0.00026631588116288185,-0.001864211168140173
1772651412902236400,7.079236328125,0.0006657897029072046,-0.0007989476434886456,-0.00026631588116288185
1772651412912239400,7.0892392578125,-0.0009321055840700865,0.0013315794058144093,0.0007989476434886456
1772651412922242000,7.099241943359375,0.00013315794058144093,-0.00026631588116288185,0.0007989476434886456
1772651412932245000,7.109244873046875,0.0006657897029072046,-0.0007989476434886456,0.0013315794058144093
1772651412942247700,7.11924755859375,0.0006657897029072046,0.0029294746927917004,0.0007989476434886456
1772651412952250400,7.12925048828125,0.0006657897029072046,-0.0007989476434886456,0.0007989476434886456
1772651412962253300,7.13925341796875,0.00013315794058144093,0.0007989476434886456,-0.0013315794058144093
1772651412972256000,7.149256103515625,-0.0009321055840700865,-0.0013315794058144093,-0.00026631588116288185
1772651412982259000,7.159259033203125,0.00013315794058144093,-0.0007989476434886456,-0.00026631588116288185
1772651412992261600,7.16926171875,0.00013315794058144093,-0.0013315794058144093,-0.00026631588116288185
1772651413002264600,7.1792646484375,-0.0009321055840700865,0.00026631588116288185,0.0007989476434886456
1772651413012267300,7.189267333984375,-0.0014647373463958502,0.0023968429304659367,-0.0007989476434886456
1772651413022270200,7.199270263671875,-0.0003994738217443228,0.0023968429304659367,0.00026631588116288185
1772651413032273000,7.20927294921875,-0.0009321055840700865,0.0013315794058144093,0.0013315794058144093
1772651413042275800,7.21927587890625,-0.0003994738217443228,-0.001864211168140173,-0.0013315794058144093
1772651413052278500,7.229278564453125,0.001731053227558732,0.0007989476434886456,0.00026631588116288185
1772651413062281500,7.239281494140625,0.00013315794058144093,-0.001864211168140173,0.0007989476434886456
1772651413072284400,7.249284423828125,-0.0003994738217443228,0.0007989476434886456,-0.00026631588116288185
1772651413082287000,7.259287109375,0.00013315794058144093,0.0007989476434886456,0.00026631588116288185
1772651413092289800,7.269289794921875,-0.001997369108721614,-0.00026631588116288185,0.0013315794058144093
1772651413102292700,7.279292724609375,0.00013315794058144093,0.0007989476434886456,0.00026631588116288185
1772651413112295400,7.28929541015625,-0.001997369108721614,0.00026631588116288185,-0.0007989476434886456
1772651413122298400,7.29929833984375,-0.0009321055840700865,-0.0007989476434886456,0.0013315794058144093
1772651413132301000,7.309301025390625,-0.0009321055840700865,0.00026631588116288185,-0.0007989476434886456
1772651413142304000,7.319303955078125,0.0006657897029072046,0.00026631588116288185,0.00026631588116288185
1772651413152306700,7.329306640625,0.0006657897029072046,0.0007989476434886456,0.0007989476434886456
1772651413162309600,7.3393095703125,0.0011984214652329683,-0.00026631588116288185,-0.00026631588116288185
1772651413172312300,7.349312255859375,-0.0009321055840700865,0.0007989476434886456,-0.00026631588116288185
1772651413182315300,7.359315185546875,0.00013315794058144093,-0.00026631588116288185,0.0007989476434886456
1772651413192318000,7.36931787109375,0.0006657897029072046,0.0013315794058144093,0.001864211168140173
1772651413202321000,7.37932080078125,-0.0014647373463958502,0.001864211168140173,-0.0023968429304659367
1772651413212323600,7.389323486328125,-0.0014647373463958502,0.0007989476434886456,0.0007989476434886456
1772651413222326500,7.399326416015625,-0.0014647373463958502,-0.001864211168140173,-0.00026631588116288185
1772651413232329200,7.4093291015625,-0.0009321055840700865,-0.00026631588116288185,-0.001864211168140173
1772651413242332200,7.419332275390625,-0.0009321055840700865,-0.00026631588116288185,-0.00026631588116288185
1772651413252334800,7.4293349609375,0.0006657897029072046,0.00026631588116288185,-0.0013315794058144093
1772651413262338600,7.439338623046875,-0.0009321055840700865,-0.001864211168140173,0.00026631588116288185
1772651413272342300,7.44934228515625,-0.0003994738217443228,-0.0007989476434886456,-0.0007989476434886456
1772651413282345700,7.459345703125,0.0006657897029072046,-0.001864211168140173,0.00026631588116288185
1772651413292349400,7.469349365234375,0.00013315794058144093,-0.00026631588116288185,0.00026631588116288185
1772651413302353200,7.479353271484375,0.00013315794058144093,0.0013315794058144093,-0.00026631588116288185
1772651413312356900,7.48935693359375,-0.0009321055840700865,-0.0007989476434886456,-0.0013315794058144093
1772651413322360300,7.4993603515625,0.0006657897029072046,-0.00026631588116288185,-0.00026631588116288185
1772651413332364000,7.509364013671875,-0.0009321055840700865,-0.001864211168140173,-0.0013315794058144093
1772651413342367700,7.51936767578125,-0.0009321055840700865,-0.001864211168140173,0.0007989476434886456
1772651413352371200,7.52937109375,-0.0003994738217443228,0.00026631588116288185,-0.00026631588116288185
1772651413362375000,7.539375,0.001731053227558732,-0.00026631588116288185,-0.0007989476434886456
1772651413372378600,7.549378662109375,-0.0003994738217443228,0.00026631588116288185,0.0007989476434886456
1772651413382382000,7.559382080078125,0.0006657897029072046,-0.0007989476434886456,0.00026631588116288185
1772651413392385800,7.5693857421875,0.00013315794058144093,-0.0007989476434886456,-0.00026631588116288185
1772651413402389500,7.579389404296875,0.0006657897029072046,-0.00026631588116288185,0.0007989476434886456
1772651413412393000,7.58939306640625,-0.0003994738217443228,0.00026631588116288185,0.00026631588116288185
1772651413422396700,7.599396728515625,-0.0009321055840700865,0.0013315794058144093,-0.001864211168140173
1772651413432400400,7.609400390625,0.0011984214652329683,-0.00026631588116288185,-0.0013315794058144093
1772651413442403800,7.61940380859375,0.0011984214652329683,-0.0013315794058144093,-0.0007989476434886456
1772651413452407600,7.629407470703125,-0.0003994738217443228,-0.001864211168140173,0.00026631588116288185
1772651413462411300,7.639411376953125,0.00013315794058144093,-0.0013315794058144093,-0.0007989476434886456
1772651413472414700,7.649414794921875,-0.0009321055840700865,0.0007989476434886456,-0.0013315794058144093
1772651413482418400,7.65941845703125,0.00013315794058144093,-0.0007989476434886456,0.0007989476434886456
1772651413492422100,7.669422119140625,-0.0014647373463958502,-0.0007989476434886456,-0.0007989476434886456
1772651413502425900,7.67942578125,0.0006657897029072046,0.00026631588116288185,-0.001864211168140173
1772651413512429300,7.68942919921875,-0.0009321055840700865,0.00026631588116288185,0.00026631588116288185
1772651413522433000,7.69943310546875,0.00013315794058144093,-0.00026631588116288185,0.00026631588116288185
1772651413532436700,7.709436767578125,0.00013315794058144093,-0.0007989476434886456,0.0013315794058144093
1772651413542440200,7.719440185546875,0.00013315794058144093,-0.0007989476434886456,0.00026631588116288185
1772651413552444000,7.72944384765625,-0.0009321055840700865,-0.0013315794058144093,-0.0013315794058144093
1772651413562447600,7.739447509765625,0.00013315794058144093,-0.00026631588116288185,-0.00026631588116288185
1772651413572451000,7.749451171875,-0.0003994738217443228,0.00026631588116288185,-0.00026631588116288185
1772651413582454800,7.759454833984375,0.00013315794058144093,0.0013315794058144093,-0.001864211168140173
1772651413592458500,7.76945849609375,0.00013315794058144093,0.0007989476434886456,-0.0007989476434886456
1772651413602462000,7.7794619140625,0.00013315794058144093,0.001864211168140173,-0.0007989476434886456
1772651413612465700,7.789465576171875,0.00013315794058144093,-0.001864211168140173,-0.00026631588116288185
1772651413622469400,7.799469482421875,0.00013315794058144093,-0.00026631588116288185,0.00026631588116288185
1772651413632472800,7.809472900390625,0.0006657897029072046,-0.00026631588116288185,-0.0013315794058144093
1772651413642476500,7.8194765625,0.0011984214652329683,-0.00026631588116288185,-0.00026631588116288185
1772651413652480300,7.829480224609375,0.0006657897029072046,0.00026631588116288185,0.0007989476434886456
1772651413662483700,7.839483642578125,0.0006657897029072046,-0.00026631588116288185,0.0007989476434886456
1772651413672487400,7.8494873046875,-0.001997369108721614,-0.0007989476434886456,-0.0007989476434886456
1772651413682491100,7.8594912109375,-0.0003994738217443228,-0.0013315794058144093,0.00026631588116288185
1772651413692494600,7.86949462890625,-0.0003994738217443228,-0.0007989476434886456,-0.0013315794058144093
1772651413702498300,7.879498291015625,0.0006657897029072046,-0.0007989476434886456,-0.00026631588116288185
1772651413712502000,7.889501953125,0.00013315794058144093,0.0007989476434886456,0.0007989476434886456
1772651413722505500,7.89950537109375,0.001731053227558732,-0.0007989476434886456,-0.0007989476434886456
1772651413732509200,7.90950927734375,0.0006657897029072046,-0.0007989476434886456,0.0007989476434886456
1772651413742513000,7.919512939453125,-0.0003994738217443228,-0.00026631588116288185,0.00026631588116288185
1772651413752516400,7.929516357421875,-0.0003994738217443228,0.0013315794058144093,-0.00026631588116288185
1772651413762519800,7.939519775390625,0.00013315794058144093,0.00026631588116288185,0.00026631588116288185
1772651413772523300,7.949523193359375,-0.0003994738217443228,0.00026631588116288185,0.0007989476434886456
1772651413782526500,7.9595263671875,-0.001997369108721614,0.0013315794058144093,-0.0007989476434886456
1772651413792530000,7.969530029296875,-0.0009321055840700865,0.00026631588116288185,0.0007989476434886456
1772651413802533400,7.979533447265625,0.0006657897029072046,-0.0013315794058144093,-0.0013315794058144093
1772651413812536800,7.989536865234375,0.0006657897029072046,-0.00026631588116288185,0.00026631588116288185
1772651413822540000,7.9995400390625,0.00013315794058144093,-0.0013315794058144093,-0.001864211168140173
1772651413832543500,8.00954345703125,0.001731053227558732,-0.0007989476434886456,0.00026631588116288185
1772651413842547000,8.019546875,0.0006657897029072046,-0.001864211168140173,-0.00026631588116288185
1772651413852550400,8.02955029296875,0.0006657897029072046,-0.0007989476434886456,0.00026631588116288185
1772651413862553600,8.0395537109375,-0.0003994738217443228,-0.0007989476434886456,-0.0013315794058144093
1772651413872557000,8.04955712890625,0.00013315794058144093,0.0007989476434886456,0.00026631588116288185
1772651413882560500,8.059560546875,-0.0003994738217443228,-0.001864211168140173,0.0007989476434886456
1772651413892563700,8.069563720703124,-0.0003994738217443228,-0.0007989476434886456,-0.00026631588116288185
1772651413902567200,8.079567138671875,-0.0003994738217443228,-0.00026631588116288185,0.00026631588116288185
1772651413912570600,8.089570556640625,0.001731053227558732,-0.00026631588116288185,0.0013315794058144093
1772651413922574000,8.099573974609376,0.0006657897029072046,-0.00026631588116288185,-0.0013315794058144093
1772651413932577300,8.109577392578124,0.00013315794058144093,0.0007989476434886456,0.0007989476434886456
1772651413942580700,8.119580810546875,0.001731053227558732,0.00026631588116288185,0.00026631588116288185
1772651413952584200,8.129584228515625,0.00013315794058144093,-0.0006657897029072046,-0.0006657897029072046
1772651413962587600,8.139587646484374,0.00013315794058144093,-0.0006657897029072046,0.0003994738217443228
1772651413972590800,8.1495908203125,-0.0003994738217443228,-0.001731053227558732,-0.00013315794058144093
1772651413982594300,8.15959423828125,0.00013315794058144093,0.001997369108721614,0.0014647373463958502
1772651413992597800,8.16959765625,0.00013315794058144093,0.0025300008710473776,0.0003994738217443228
1772651414002601000,8.17960107421875,0.0011984214652329683,0.0003994738217443228,-0.0006657897029072046
1772651414012604400,8.1896044921875,0.0011984214652329683,0.0014647373463958502,-0.00013315794058144093
1772651414022608000,8.19960791015625,0.0011984214652329683,-0.0006657897029072046,-0.00013315794058144093
1772651414032611300,8.209611328125,-0.0003994738217443228,-0.0022636849898844957,0.0003994738217443228
1772651414042614500,8.219614501953124,-0.0009321055840700865,-0.00013315794058144093,-0.00013315794058144093
1772651414052618000,8.229617919921875,0.00013315794058144093,-0.00013315794058144093,-0.0011984214652329683
1772651414062621400,8.239621337890625,-0.0014647373463958502,0.0009321055840700865,-0.0006657897029072046
1772651414072625000,8.249625,0.0006657897029072046,0.0009321055840700865,-0.0011984214652329683
1772651414082628000,8.259628173828125,-0.0003994738217443228,-0.003328948514536023,0.0003994738217443228
1772651414092631600,8.269631591796875,-0.0003994738217443228,-0.0006657897029072046,0.0003994738217443228
1772651414102635000,8.279635009765625,-0.0009321055840700865,-0.0022636849898844957,0.0014647373463958502
1772651414112638500,8.289638427734374,0.00013315794058144093,0.0009321055840700865,-0.0011984214652329683
1772651414122641700,8.2996416015625,-0.0014647373463958502,-0.00013315794058144093,0.0003994738217443228
1772651414132645000,8.30964501953125,0.00013315794058144093,-0.0006657897029072046,-0.0006657897029072046
1772651414142648600,8.319648681640626,-0.0003994738217443228,0.0003994738217443228,0.0009321055840700865
1772651414152651800,8.32965185546875,0.00013315794058144093,-0.0011984214652329683,-0.00013315794058144093
1772651414162655200,8.3396552734375,0.0011984214652329683,-0.00013315794058144093,0.0014647373463958502
1772651414172658700,8.34965869140625,0.00013315794058144093,0.0003994738217443228,-0.0006657897029072046
1772651414182662100,8.359662109375,0.0006657897029072046,0.0009321055840700865,-0.00013315794058144093
1772651414192665300,8.369665283203124,-0.0003994738217443228,-0.00013315794058144093,-0.0006657897029072046
1772651414202668800,8.379668701171875,0.0011984214652329683,-0.0006657897029072046,0.0009321055840700865
1772651414212672300,8.38967236328125,-0.001997369108721614,-0.00013315794058144093,-0.00013315794058144093
1772651414222675700,8.39967578125,-0.0009321055840700865,0.0003994738217443228,0.0014647373463958502
1772651414232679000,8.409678955078125,-0.0009321055840700865,-0.0006657897029072046,-0.0006657897029072046
1772651414242682400,8.419682373046875,0.0006657897029072046,0.0003994738217443228,-0.0006657897029072046
1772651414252685800,8.429685791015626,0.0006657897029072046,0.0003994738217443228,-0.00013315794058144093
1772651414262689300,8.439689208984374,0.0006657897029072046,-0.0006657897029072046,-0.00013315794058144093
1772651414272693000,8.44969287109375,-0.0009321055840700865,-0.00013315794058144093,-0.0006657897029072046
1772651414282696400,8.459696533203125,-0.0003994738217443228,-0.0011984214652329683,0.0003994738217443228
1772651414292700000,8.469699951171876,0.00013315794058144093,-0.0011984214652329683,-0.00013315794058144093
1772651414302703600,8.47970361328125,-0.0009321055840700865,-0.0011984214652329683,-0.0006657897029072046
1772651414312707000,8.48970703125,-0.0014647373463958502,-0.00013315794058144093,-0.0006657897029072046
1772651414322710800,8.499710693359376,-0.0009321055840700865,-0.00013315794058144093,0.0014647373463958502
1772651414332714200,8.50971435546875,0.0006657897029072046,-0.0006657897029072046,-0.00013315794058144093
1772651414342718000,8.519718017578125,0.0006657897029072046,0.0003994738217443228,-0.0006657897029072046
1772651414352721400,8.529721435546875,-0.0009321055840700865,0.0003994738217443228,0.0009321055840700865
1772651414362725000,8.53972509765625,0.00013315794058144093,0.0025300008710473776,0.0009321055840700865
1772651414372728600,8.549728515625,0.0006657897029072046,-0.00013315794058144093,-0.00013315794058144093
1772651414382732000,8.55973193359375,0.0006657897029072046,0.0003994738217443228,0.0003994738217443228
1772651414392735700,8.56973583984375,0.0006657897029072046,0.0014647373463958502,-0.0011984214652329683
1772651414402739500,8.579739501953124,0.0006657897029072046,-0.00013315794058144093,0.0009321055840700865
1772651414412743000,8.589742919921875,0.00013315794058144093,0.0025300008710473776,-0.00013315794058144093
1772651414422746400,8.599746337890625,-0.0003994738217443228,-0.00013315794058144093,0.0009321055840700865
1772651414432750000,8.60975,-0.0009321055840700865,-0.0011984214652329683,0.0003994738217443228
1772651414442753500,8.61975341796875,0.0011984214652329683,-0.00013315794058144093,-0.0011984214652329683
1772651414452757200,8.62975732421875,0.0006657897029072046,-0.00013315794058144093,-0.00013315794058144093
1772651414462760700,8.6397607421875,-0.0009321055840700865,0.0003994738217443228,-0.0006657897029072046
1772651414472764400,8.649764404296874,-0.0003994738217443228,-0.0011984214652329683,-0.0006657897029072046
1772651414482768000,8.659767822265625,0.001731053227558732,0.0003994738217443228,0.0003994738217443228
1772651414492771600,8.669771484375,0.0006657897029072046,-0.0027963167522102594,-0.00013315794058144093
1772651414502775000,8.679775146484374,-0.0014647373463958502,0.0014647373463958502,-0.0006657897029072046
1772651414512778500,8.689778564453125,0.0006657897029072046,-0.0011984214652329683,0.0003994738217443228
1772651414522782200,8.6997822265625,0.0006657897029072046,-0.001731053227558732,0.0009321055840700865
1772651414532785700,8.70978564453125,0.0006657897029072046,0.0014647373463958502,-0.0006657897029072046
1772651414542789400,8.719789306640624,-0.0003994738217443228,0.0014647373463958502,-0.00013315794058144093
1772651414552792800,8.729792724609375,0.0006657897029072046,-0.00013315794058144093,-0.00013315794058144093
1772651414562796500,8.739796630859376,0.00013315794058144093,0.0003994738217443228,0.0009321055840700865
1772651414572800000,8.749800048828124,-0.0009321055840700865,-0.00013315794058144093,0.0003994738217443228
1772651414582803700,8.7598037109375,0.00013315794058144093,-0.0006657897029072046,0.0014647373463958502
1772651414592807200,8.76980712890625,0.0011984214652329683,-0.0011984214652329683,0.0014647373463958502
1772651414602811000,8.779810791015626,0.00013315794058144093,-0.001731053227558732,-0.00013315794058144093
1772651414612814300,8.789814453125,-0.0009321055840700865,-0.0006657897029072046,-0.0006657897029072046
1772651414622818000,8.799818115234375,0.00013315794058144093,-0.0011984214652329683,-0.0006657897029072046
1772651414632821500,8.809821533203126,-0.0009321055840700865,-0.00013315794058144093,-0.00013315794058144093
1772651414642825000,8.819824951171874,0.00013315794058144093,0.0014647373463958502,0.0003994738217443228
1772651414652828700,8.82982861328125,0.00013315794058144093,0.0003994738217443228,0.001997369108721614
1772651414662832000,8.83983203125,-0.0025300008710473776,0.0009321055840700865,0.0014647373463958502
1772651414672835800,8.8498359375,-0.0009321055840700865,-0.0027963167522102594,0.0003994738217443228
1772651414682839300,8.85983935546875,-0.0003994738217443228,-0.0006657897029072046,-0.00013315794058144093
1772651414692843000,8.869843017578125,-0.0009321055840700865,0.0003994738217443228,0.0003994738217443228
1772651414702846500,8.879846435546876,-0.0014647373463958502,-0.001731053227558732,0.0014647373463958502
1772651414712850200,8.88985009765625,-0.0003994738217443228,0.0009321055840700865,-0.00013315794058144093
1772651414722853600,8.899853515625,0.001731053227558732,0.0009321055840700865,0.0003994738217443228
1772651414732857000,8.909857177734375,-0.0014647373463958502,-0.0011984214652329683,0.0003994738217443228
1772651414742860800,8.91986083984375,0.0011984214652329683,0.0009321055840700865,-0.00013315794058144093
1772651414752864300,8.9298642578125,0.0006657897029072046,0.0009321055840700865,0.0003994738217443228
1772651414762867700,8.93986767578125,0.0011984214652329683,0.0014647373463958502,-0.00013315794058144093
1772651414772871000,8.949870849609376,-0.0003994738217443228,-0.0011984214652329683,-0.0011984214652329683
1772651414782874400,8.959874267578124,0.00013315794058144093,-0.0006657897029072046,-0.00013315794058144093
1772651414792877800,8.9698779296875,0.00013315794058144093,-0.0011984214652329683,-0.0006657897029072046
1772651414802881000,8.979881103515625,0.00013315794058144093,-0.00013315794058144093,-0.0006657897029072046
1772651414812884500,8.989884521484376,0.0006657897029072046,0.0014647373463958502,-0.00013315794058144093
1772651414822887700,8.9998876953125,0.00013315794058144093,-0.00013315794058144093,0.0003994738217443228
1772651414832891100,9.00989111328125,0.0011984214652329683,-0.0006657897029072046,0.0009321055840700865
1772651414842894300,9.019894287109375,0.00013315794058144093,0.0003994738217443228,-0.0006657897029072046
1772651414852897800,9.029897705078126,0.0011984214652329683,0.004127896390855312,0.0014647373463958502
1772651414862901200,9.0399013671875,0.001731053227558732,0.001997369108721614,0.0014647373463958502
1772651414872904400,9.049904541015625,-0.0014647373463958502,0.001997369108721614,-0.00013315794058144093
1772651414882908000,9.059907958984375,0.0006657897029072046,-0.0006657897029072046,-0.0011984214652329683
1772651414892911000,9.0699111328125,-0.0009321055840700865,-0.0022636849898844957,-0.0006657897029072046
1772651414902914600,9.07991455078125,-0.0009321055840700865,-0.0022636849898844957,-0.00013315794058144093
1772651414912917800,9.089917724609375,-0.0009321055840700865,-0.0011984214652329683,-0.00013315794058144093
1772651414922921200,9.099921142578125,-0.0009321055840700865,-0.00013315794058144093,0.0003994738217443228
1772651414932924700,9.109924560546874,-0.0003994738217443228,0.0003994738217443228,-0.00013315794058144093
1772651414942928000,9.119927978515625,0.0011984214652329683,0.0009321055840700865,0.0003994738217443228
