time,seconds_elapsed,z,y,x
1772642846517748000,0.189748046875,0.00719052879139781,0.004793685860931873,-0.004660528153181076
1772642846527752700,0.199752685546875,0.0029294746927917004,0.006391581147909164,-0.006258423440158367
1772642846537757700,0.2097578125,0.005060001742094755,0.006924212910234928,-0.006258423440158367
1772642846547762400,0.219762451171875,0.0029294746927917004,0.004793685860931873,-0.004660528153181076
1772642846557767200,0.22976708984375,0.0029294746927917004,0.006391581147909164,-0.004127896390855312
1772642846567772200,0.239772216796875,0.0023968429304659367,0.006924212910234928,-0.003595264395698905
1772642846577777000,0.24977685546875,0.0007989476434886456,0.009054739959537983,-0.0030626326333731413
1772642846587781600,0.25978173828125,0.0013315794058144093,0.010652635246515274,-0.0030626326333731413
1772642846597786400,0.269786376953125,0.00026631588116288185,0.012783162295818329,-0.001997369108721614
1772642846607791000,0.279791015625,-0.0013315794058144093,0.01704421639442444,-0.0030626326333731413
1772642846617796000,0.289796142578125,-0.0013315794058144093,0.018109479919075966,0.0006657897029072046
1772642846627800800,0.29980078125,-0.003994738217443228,0.01651158556342125,0.0011984214652329683
1772642846637805600,0.3098056640625,-0.003994738217443228,0.01704421639442444,0.0006657897029072046
1772642846647810600,0.319810546875,-0.0029294746927917004,0.015446321107447147,-0.0025300008710473776
1772642846657815300,0.329815185546875,-0.00026631588116288185,0.01438105758279562,-0.0009321055840700865
1772642846667820000,0.339820068359375,0.0023968429304659367,0.01438105758279562,-0.0030626326333731413
1772642846677824800,0.34982470703125,0.005060001742094755,0.011717898771166801,-0.0073236869648098946
1772642846687829800,0.359829833984375,0.003994738217443228,0.010652635246515274,-0.0057257916778326035
1772642846697834500,0.36983447265625,0.003994738217443228,0.006924212910234928,-0.006258423440158367
1772642846707839200,0.379839111328125,0.0045273699797689915,0.004793685860931873,-0.003595264395698905
1772642846717844000,0.389843994140625,0.003462106455117464,0.005326317623257637,-0.001997369108721614
1772642846727849000,0.399848876953125,0.005060001742094755,0.00852210819721222,-0.003595264395698905
1772642846737853700,0.409853759765625,0.005592633504420519,0.005858949385583401,-0.004660528153181076
1772642846747858400,0.4198583984375,0.0045273699797689915,0.007989476434886456,-0.006258423440158367
1772642846757863400,0.429863525390625,0.003994738217443228,0.00852210819721222,-0.007856318727135658
1772642846767868200,0.4398681640625,0.003462106455117464,0.012783162295818329,-0.006791055202484131
1772642846777873000,0.449872802734375,0.0013315794058144093,0.009054739959537983,-0.006258423440158367
1772642846787877600,0.459877685546875,0.00026631588116288185,0.007456844672560692,-0.006258423440158367
1772642846797882600,0.469882568359375,-0.0007989476434886456,0.005326317623257637,-0.004127896390855312
1772642846807887400,0.479887451171875,0.00026631588116288185,0.005858949385583401,-0.0014647373463958502
1772642846817892000,0.48989208984375,0.0013315794058144093,0.006924212910234928,-0.001997369108721614
1772642846827896800,0.499896728515625,0.0007989476434886456,0.009587371721863747,-0.0030626326333731413
1772642846837901800,0.50990185546875,-0.0007989476434886456,0.010652635246515274,-0.004660528153181076
1772642846847906600,0.519906494140625,-0.0045273699797689915,0.007989476434886456,-0.0025300008710473776
1772642846857911300,0.529911376953125,-0.0045273699797689915,0.006924212910234928,-0.0030626326333731413
1772642846867916000,0.539916015625,-0.006125265266746283,0.003195790573954582,-0.0073236869648098946
1772642846877921000,0.549921142578125,-0.008788423612713814,0.0005326317623257637,-0.006791055202484131
1772642846887925800,0.55992578125,-0.006657897029072046,0.003195790573954582,-0.004660528153181076
1772642846897930500,0.569930419921875,-0.006657897029072046,0.0026631588116288185,-0.006258423440158367
1772642846907935200,0.579935302734375,-0.00719052879139781,0.006924212910234928,-0.004660528153181076
1772642846917940200,0.589940185546875,-0.005060001742094755,0.012250530533492565,-0.004660528153181076
1772642846927945000,0.599945068359375,-0.0045273699797689915,0.01438105758279562,-0.006258423440158367
1772642846937949700,0.60994970703125,-0.0045273699797689915,0.018109479919075966,-0.004660528153181076
1772642846947954400,0.619954345703125,-0.005060001742094755,0.01704421639442444,-0.004127896390855312
1772642846957959400,0.62995947265625,-0.005592633504420519,0.01597895286977291,-0.004127896390855312
1772642846967964200,0.639964111328125,-0.005060001742094755,0.01438105758279562,-0.001997369108721614
1772642846977969000,0.649968994140625,-0.005060001742094755,0.011717898771166801,0.00013315794058144093
1772642846987974000,0.659973876953125,-0.0045273699797689915,0.007989476434886456,0.0006657897029072046
1772642846997978600,0.669978515625,-0.0045273699797689915,0.006924212910234928,0.0022636849898844957
1772642847007983400,0.6799833984375,-0.005592633504420519,0.00426105409860611,-0.0014647373463958502
1772642847017988000,0.689988037109375,-0.005592633504420519,0.00426105409860611,-0.0009321055840700865
1772642847027993000,0.6999931640625,-0.0045273699797689915,0.00426105409860611,-0.0014647373463958502
1772642847037997800,0.709997802734375,-0.008255792781710625,0.003728422336280346,-0.003595264395698905
1772642847048002600,0.72000244140625,-0.007723160553723574,0.00426105409860611,-0.0030626326333731413
1772642847058007300,0.73000732421875,-0.010918950662016869,0.001597895286977291,0.00013315794058144093
1772642847068012000,0.740011962890625,-0.009853687137365341,-0.003195790573954582,-0.0030626326333731413
1772642847078016500,0.7500166015625,-0.011451583355665207,-0.007456844672560692,-0.0030626326333731413
1772642847088021200,0.760021240234375,-0.010918950662016869,-0.009587371721863747,-0.0030626326333731413
1772642847098025700,0.770025634765625,-0.009853687137365341,-0.00852210819721222,-0.0009321055840700865
1772642847108030500,0.780030517578125,-0.011451583355665207,-0.009587371721863747,-0.0025300008710473776
1772642847118035200,0.79003515625,-0.010918950662016869,-0.005326317623257637,-0.004127896390855312
1772642847128039700,0.800039794921875,-0.01038631983101368,-0.003728422336280346,-0.006258423440158367
1772642847138044400,0.81004443359375,-0.010918950662016869,-0.0005326317623257637,-0.0030626326333731413
1772642847148049000,0.820048828125,-0.010918950662016869,0.003728422336280346,-0.004127896390855312
1772642847158053600,0.8300537109375,-0.009321056306362152,0.003195790573954582,-0.0030626326333731413
1772642847168058400,0.840058349609375,-0.008788423612713814,0.0026631588116288185,-0.0025300008710473776
1772642847178062800,0.850062744140625,-0.009853687137365341,0.00426105409860611,-0.003595264395698905
1772642847188067600,0.860067626953125,-0.008788423612713814,0.006924212910234928,-0.0030626326333731413
1772642847198072000,0.870072021484375,-0.009853687137365341,0.007989476434886456,-0.0025300008710473776
1772642847208076800,0.880076904296875,-0.01038631983101368,0.01012000348418951,-0.0009321055840700865
1772642847218081300,0.890081298828125,-0.011984214186668396,0.009587371721863747,0.0011984214652329683
1772642847228086000,0.9000859375,-0.013582110404968262,0.007989476434886456,0.003328948514536023
1772642847238090800,0.9100908203125,-0.016245268285274506,0.01012000348418951,0.003328948514536023
1772642847248095200,0.92009521484375,-0.01411474123597145,0.009054739959537983,0.003328948514536023
1772642847258100000,0.930099853515625,-0.014647373929619789,0.009587371721863747,0.003328948514536023
1772642847268104400,0.9401044921875,-0.01411474123597145,0.01012000348418951,0.003861580276861787
1772642847278109200,0.950109130859375,-0.016245268285274506,0.011717898771166801,0.0027963167522102594
1772642847288113700,0.96011376953125,-0.013049477711319923,0.010652635246515274,0.00013315794058144093
1772642847298118400,0.970118408203125,-0.011451583355665207,0.012250530533492565,0.0006657897029072046
1772642847308123100,0.980123046875,-0.010918950662016869,0.011717898771166801,-0.0003994738217443228
1772642847328132400,1.00013232421875,-0.008255792781710625,0.0026631588116288185,0.004926843568682671
1772642847338136800,1.01013671875,-0.006657897029072046,-0.002130527049303055,0.007057370617985725
1772642847348141600,1.0201416015625,-0.005592633504420519,-0.006391581147909164,0.00918789766728878
1772642847358146000,1.03014599609375,-0.006657897029072046,-0.00426105409860611,0.008655265904963017
1772642847368150800,1.04015087890625,-0.0045273699797689915,-0.004793685860931873,0.0027963167522102594
1772642847378155500,1.050155517578125,-0.006125265266746283,-0.01012000348418951,0.00013315794058144093
1772642847388160000,1.060159912109375,-0.00719052879139781,-0.009587371721863747,-0.0009321055840700865
1772642847398164700,1.070164794921875,-0.00719052879139781,-0.01012000348418951,-0.0014647373463958502
1772642847408169200,1.080169189453125,-0.006657897029072046,-0.012783162295818329,-0.0014647373463958502
1772642847418174000,1.090174072265625,-0.006657897029072046,-0.013315794058144093,0.00013315794058144093
1772642847428178400,1.100178466796875,-0.008255792781710625,-0.012783162295818329,0.0011984214652329683
1772642847438183200,1.11018310546875,-0.007723160553723574,-0.011185267008841038,0.004394211806356907
1772642847448188000,1.12018798828125,-0.009853687137365341,-0.00852210819721222,0.004394211806356907
1772642847458192400,1.1301923828125,-0.010918950662016869,-0.00426105409860611,0.004926843568682671
1772642847468197000,1.140197021484375,-0.014647373929619789,-0.00426105409860611,0.005992107093334198
1772642847478201600,1.15020166015625,-0.015180004760622978,-0.005858949385583401,0.004926843568682671
1772642847488206300,1.160206298828125,-0.01837579533457756,-0.004793685860931873,0.005459475331008434
1772642847498211000,1.170211181640625,-0.01784316450357437,-0.00426105409860611,0.004394211806356907
1772642847508215600,1.180215576171875,-0.016245268285274506,-0.00426105409860611,0.001731053227558732
1772642847518220300,1.19022021484375,-0.014647373929619789,-0.0026631588116288185,0.004926843568682671
1772642847528224800,1.200224853515625,-0.013582110404968262,0.001597895286977291,0.003861580276861787
1772642847538229500,1.2102294921875,-0.013049477711319923,0.004793685860931873,0.006524738855659962
1772642847548234000,1.22023388671875,-0.013049477711319923,0.005858949385583401,0.003861580276861787
1772642847558238700,1.23023876953125,-0.012516846880316734,0.006924212910234928,0.0022636849898844957
1772642847568243200,1.2402431640625,-0.010918950662016869,0.005858949385583401,0.0022636849898844957
1772642847578248000,1.250248046875,-0.009321056306362152,0.003195790573954582,0.004926843568682671
1772642847588252400,1.26025244140625,-0.007723160553723574,0.005858949385583401,0.006524738855659962
1772642847598257200,1.270257080078125,-0.003462106455117464,0.00426105409860611,0.007057370617985725
1772642847608261600,1.28026171875,-0.0013315794058144093,0.0010652635246515274,0.004926843568682671
1772642847618266000,1.29026611328125,-0.0029294746927917004,-0.0010652635246515274,0.004394211806356907
1772642847628270800,1.300270751953125,-0.0007989476434886456,-0.003195790573954582,0.004394211806356907
1772642847638275300,1.310275390625,0.001864211168140173,-0.006391581147909164,0.004394211806356907
1772642847648280000,1.320280029296875,0.0023968429304659367,-0.007989476434886456,0.004394211806356907
1772642847658284500,1.330284423828125,0.0023968429304659367,-0.012783162295818329,0.0011984214652329683
1772642847668289300,1.340289306640625,0.0029294746927917004,-0.02024000696837902,0.001731053227558732
1772642847678293800,1.350293701171875,0.0013315794058144093,-0.027164220809936523,0.00013315794058144093
1772642847688298200,1.36029833984375,0.001864211168140173,-0.02876211516559124,0.00013315794058144093
1772642847698303000,1.370302978515625,-0.00026631588116288185,-0.03195790573954582,0.003328948514536023
1772642847708307500,1.380307373046875,-0.0023968429304659367,-0.030360009521245956,0.004394211806356907
1772642847718312200,1.390312255859375,-0.001864211168140173,-0.027696851640939713,-0.0009321055840700865
1772642847728316700,1.400316650390625,-0.0029294746927917004,-0.027164220809936523,-0.001997369108721614
1772642847738321200,1.410321044921875,0.00026631588116288185,-0.022903166711330414,-0.004127896390855312
1772642847758330400,1.430330322265625,-0.0045273699797689915,-0.015446321107447147,-0.00945421401411295
1772642847768335000,1.440335205078125,-0.00719052879139781,-0.012783162295818329,-0.009986845776438713
1772642847778339600,1.450339599609375,-0.005592633504420519,-0.01012000348418951,-0.00945421401411295
1772642847788344300,1.46034423828125,-0.00719052879139781,-0.006391581147909164,-0.004660528153181076
1772642847798348800,1.470348876953125,-0.0045273699797689915,-0.002130527049303055,-0.0030626326333731413
1772642847808353300,1.480353271484375,-0.005060001742094755,0.0010652635246515274,-0.0003994738217443228
1772642847818358000,1.49035791015625,-0.0029294746927917004,0.0010652635246515274,-0.0009321055840700865
1772642847828362500,1.500362548828125,-0.0029294746927917004,0.006391581147909164,-0.0009321055840700865
1772642847838367200,1.5103671875,-0.0029294746927917004,0.012783162295818329,-0.0003994738217443228
1772642847848371700,1.520371826171875,-0.0029294746927917004,0.018642112612724304,-0.0030626326333731413
1772642847858376200,1.530376220703125,-0.003462106455117464,0.02024000696837902,-0.004660528153181076
1772642847868381000,1.540380859375,-0.003462106455117464,0.019707374274730682,-0.0057257916778326035
1772642847878385400,1.550385498046875,-0.005060001742094755,0.01651158556342125,-0.007856318727135658
1772642847888390100,1.56039013671875,-0.006125265266746283,0.01438105758279562,-0.004660528153181076
1772642847898394600,1.57039453125,-0.005592633504420519,0.014913689345121384,-0.001997369108721614
1772642847908399400,1.5803994140625,-0.0045273699797689915,0.015446321107447147,-0.0009321055840700865
1772642847918403800,1.59040380859375,-0.006125265266746283,0.01597895286977291,-0.0009321055840700865
1772642847928408600,1.60040869140625,-0.0045273699797689915,0.01704421639442444,-0.0014647373463958502
1772642847938413000,1.6104130859375,-0.003994738217443228,0.013315794058144093,-0.003595264395698905
1772642847948417500,1.62041748046875,0.00026631588116288185,0.014913689345121384,-0.003595264395698905
1772642847958422300,1.63042236328125,0.00026631588116288185,0.013315794058144093,0.0011984214652329683
1772642847968426800,1.6404267578125,0.005060001742094755,0.013315794058144093,0.001731053227558732
1772642847978431500,1.650431396484375,0.003994738217443228,0.009054739959537983,0.003328948514536023
1772642847988436000,1.66043603515625,0.005592633504420519,0.003195790573954582,0.003328948514536023
1772642847998440400,1.6704404296875,0.007723160553723574,-0.0005326317623257637,0.003328948514536023
1772642848008445200,1.680445068359375,0.009321056306362152,-0.0026631588116288185,0.003328948514536023
1772642848018449700,1.69044970703125,0.00719052879139781,-0.0026631588116288185,0.0022636849898844957
1772642848028454400,1.700454345703125,0.009321056306362152,-0.004793685860931873,-0.0009321055840700865
1772642848038459000,1.710458984375,0.01038631983101368,-0.00426105409860611,-0.0009321055840700865
1772642848048463600,1.720463623046875,0.009853687137365341,-0.004793685860931873,0.00013315794058144093
1772642848058468000,1.730468017578125,0.009321056306362152,-0.00852210819721222,-0.0030626326333731413
1772642848068472800,1.740472900390625,0.007723160553723574,-0.01012000348418951,-0.0025300008710473776
1772642848078477600,1.7504775390625,0.008788423612713814,-0.006391581147909164,-0.0014647373463958502
1772642848088482000,1.76048193359375,0.006125265266746283,-0.006391581147909164,0.001731053227558732
1772642848098486800,1.77048681640625,0.00719052879139781,-0.004793685860931873,0.0022636849898844957
1772642848108491500,1.780491455078125,0.006657897029072046,-0.001597895286977291,0.003861580276861787
1772642848118496300,1.790496337890625,0.006125265266746283,0.003195790573954582,0.004394211806356907
1772642848128501000,1.8005009765625,0.006125265266746283,0.00852210819721222,0.0022636849898844957
1772642848138505500,1.81050537109375,0.005592633504420519,0.013848425820469856,0.0006657897029072046
1772642848148510200,1.82051025390625,0.003462106455117464,0.015446321107447147,0.00013315794058144093
1772642848158515000,1.830514892578125,0.001864211168140173,0.013848425820469856,0.0006657897029072046
1772642848168519700,1.840519775390625,-0.00026631588116288185,0.012250530533492565,0.004926843568682671
1772642848178524400,1.8505244140625,-0.0013315794058144093,0.01012000348418951,0.006524738855659962
1772642848188529200,1.860529052734375,0.001864211168140173,0.010652635246515274,0.008122634142637253
1772642848198533600,1.87053369140625,0.0029294746927917004,0.010652635246515274,0.004926843568682671
1772642848208538400,1.880538330078125,0.005592633504420519,0.013848425820469856,0.003861580276861787
1772642848218543000,1.890543212890625,0.0045273699797689915,0.012783162295818329,0.003328948514536023
1772642848228547800,1.9005478515625,0.003994738217443228,0.017576847225427628,0.0006657897029072046
1772642848238552300,1.91055224609375,0.0045273699797689915,0.01651158556342125,-0.006791055202484131
1772642848248557000,1.92055712890625,0.003994738217443228,0.014913689345121384,-0.008388950489461422
1772642848258561800,1.930561767578125,0.003994738217443228,0.006924212910234928,-0.006258423440158367
1772642848268566500,1.94056640625,0.003994738217443228,0.002130527049303055,-0.004127896390855312
1772642848278571300,1.9505712890625,0.005060001742094755,-0.002130527049303055,-0.0014647373463958502
1772642848288575700,1.96057568359375,0.00719052879139781,-0.00426105409860611,0.0022636849898844957
1772642848298580500,1.97058056640625,0.008255792781710625,-0.0026631588116288185,0.004926843568682671
1772642848308585200,1.980585205078125,0.005592633504420519,-0.003195790573954582,0.003328948514536023
1772642848318590000,1.99058984375,0.005592633504420519,-0.003195790573954582,0.003861580276861787
1772642848328594700,2.0005947265625,0.005060001742094755,-0.001731053227558732,0.004793685860931873
1772642848338599200,2.01059912109375,0.003462106455117464,-0.004926843568682671,0.003728422336280346
1772642848348604000,2.02060400390625,0.0013315794058144093,-0.009720529429614544,0.003728422336280346
1772642848358608600,2.030608642578125,0.001864211168140173,-0.012916320003569126,0.002130527049303055
1772642848368613400,2.04061328125,-0.00026631588116288185,-0.01344895176589489,0.002130527049303055
1772642848378618000,2.0506181640625,0.003462106455117464,-0.017710005864501,0.001597895286977291
1772642848388622800,2.060622802734375,0.003462106455117464,-0.01717737503349781,0.0026631588116288185
1772642848398627300,2.07062744140625,0.005060001742094755,-0.019307902082800865,0.00426105409860611
1772642848408632000,2.080632080078125,0.003994738217443228,-0.016112111508846283,0.004793685860931873
1772642848418636800,2.09063671875,0.005060001742094755,-0.015579478815197945,0.005326317623257637
1772642848428641500,2.1006416015625,0.0013315794058144093,-0.01344895176589489,0.00426105409860611
1772642848438646300,2.110646240234375,0.003994738217443228,-0.010785792954266071,0.0010652635246515274
1772642848448650800,2.120650634765625,0.003994738217443228,-0.008655265904963017,0.001597895286977291
1772642848458655500,2.130655517578125,0.005592633504420519,-0.008655265904963017,0.0010652635246515274
1772642848468660200,2.14066015625,0.003462106455117464,-0.005459475331008434,-0.0010652635246515274
1772642848478665000,2.1506650390625,0.003994738217443228,-0.0027963167522102594,0.0010652635246515274
1772642848488669700,2.160669677734375,0.003994738217443228,-0.00013315794058144093,0.0026631588116288185
1772642848498674200,2.170674072265625,0.0023968429304659367,-0.0011984214652329683,0.00426105409860611
1772642848508679000,2.180678955078125,0.0007989476434886456,-0.0011984214652329683,0.003728422336280346
1772642848518683600,2.19068359375,0.0006657897029072046,-0.0011984214652329683,0.003195790573954582
1772642848528688400,2.2006884765625,0.0023968429304659367,-0.0022636849898844957,0.00426105409860611
1772642848538692900,2.21069287109375,0.001864211168140173,-0.0027963167522102594,0.0026631588116288185
1772642848548697600,2.220697509765625,0.00026631588116288185,-0.005992107093334198,0.0005326317623257637
1772642848558702300,2.230702392578125,0.00026631588116288185,-0.0027963167522102594,-0.002130527049303055
1772642848568706800,2.240706787109375,0.003462106455117464,-0.0022636849898844957,-0.005326317623257637
1772642848578711600,2.250711669921875,0.005060001742094755,0.0003994738217443228,-0.005858949385583401
1772642848588716300,2.26071630859375,0.0045273699797689915,0.0025300008710473776,-0.005858949385583401
1772642848598720800,2.270720703125,0.003994738217443228,0.0014647373463958502,-0.005326317623257637
1772642848608725500,2.2807255859375,0.006657897029072046,-0.0006657897029072046,-0.0026631588116288185
1772642848618730000,2.29072998046875,0.005060001742094755,-0.0006657897029072046,-0.0005326317623257637
1772642848628734700,2.300734619140625,0.003462106455117464,-0.0011984214652329683,-0.0005326317623257637
1772642848638739200,2.3107392578125,0.005592633504420519,-0.00013315794058144093,0.0010652635246515274
1772642848648743700,2.32074365234375,0.003462106455117464,0.0003994738217443228,0.002130527049303055
1772642848658748400,2.33074853515625,0.0045273699797689915,0.001997369108721614,-0.0026631588116288185
1772642848668753000,2.3407529296875,0.006125265266746283,0.0025300008710473776,-0.004793685860931873
1772642848678757600,2.350757568359375,0.007723160553723574,0.00519315991550684,-0.004793685860931873
1772642848688762000,2.36076220703125,0.007723160553723574,0.006791055202484131,-0.0026631588116288185
1772642848698766800,2.370766845703125,0.0045273699797689915,0.008921582251787186,-0.001597895286977291
1772642848708771300,2.380771240234375,0.0045273699797689915,0.006791055202484131,-0.0005326317623257637
1772642848718776000,2.390776123046875,0.005060001742094755,0.009986845776438713,0.0005326317623257637
1772642848728780500,2.400780517578125,0.0023968429304659367,0.008921582251787186,0.0005326317623257637
1772642848738785300,2.410785400390625,0.0023968429304659367,0.0073236869648098946,0.0026631588116288185
1772642848748789800,2.420789794921875,-0.00026631588116288185,0.0057257916778326035,-0.0005326317623257637
1772642848758794500,2.43079443359375,0.0013315794058144093,0.007856318727135658,-0.001597895286977291
1772642848768799000,2.440799072265625,0.00026631588116288185,0.012117372825741768,-0.001597895286977291
1772642848778803700,2.4508037109375,-0.00026631588116288185,0.012117372825741768,-0.0005326317623257637
1772642848788808200,2.46080810546875,-0.0023968429304659367,0.012650004588067532,0.0010652635246515274
1772642848798813000,2.47081298828125,-0.003994738217443228,0.00945421401411295,0
1772642848808817400,2.4808173828125,-0.005060001742094755,0.006791055202484131,-0.0005326317623257637
1772642848818822100,2.490822265625,-0.005060001742094755,0.0030626326333731413,0.0005326317623257637
1772642848828826600,2.50082666015625,-0.0029294746927917004,0.0009321055840700865,0.0010652635246515274
1772642848838831400,2.510831298828125,-0.0007989476434886456,-0.004926843568682671,0.001597895286977291
1772642848848835800,2.5208359375,0.0013315794058144093,-0.005459475331008434,0.0026631588116288185
1772642848858840300,2.53084033203125,0.0013315794058144093,-0.005992107093334198,0.002130527049303055
1772642848868845000,2.540844970703125,0.0029294746927917004,-0.007590002380311489,0.0010652635246515274
1772642848878849500,2.550849609375,0.0029294746927917004,-0.003861580276861787,0.0010652635246515274
1772642848888854300,2.560854248046875,0.0023968429304659367,-0.0006657897029072046,0.0026631588116288185
1772642848898858800,2.570858642578125,0.0029294746927917004,0.001997369108721614,0.0005326317623257637
1772642848908863500,2.580863525390625,0.001864211168140173,-0.0011984214652329683,0.0010652635246515274
1772642848918868000,2.590867919921875,0.003462106455117464,-0.0027963167522102594,0.0005326317623257637
1772642848928872700,2.600872802734375,0.00026631588116288185,-0.005459475331008434,0
1772642848938877200,2.610877197265625,0.001864211168140173,-0.008122634142637253,0.002130527049303055
1772642848948882000,2.6208818359375,0.0013315794058144093,-0.005459475331008434,0
1772642848958886400,2.630886474609375,-0.00026631588116288185,-0.005459475331008434,0
1772642848968891100,2.64089111328125,-0.001864211168140173,-0.004394211806356907,0
1772642848978895600,2.6508955078125,-0.00026631588116288185,-0.001731053227558732,0
1772642848988900400,2.660900390625,-0.0013315794058144093,-0.001731053227558732,-0.0005326317623257637
1772642848998904800,2.67090478515625,0.0007989476434886456,-0.0006657897029072046,0.0005326317623257637
1772642849008909600,2.68090966796875,-0.0007989476434886456,0.0003994738217443228,0.002130527049303055
1772642849018914000,2.6909140625,-0.00026631588116288185,-0.00013315794058144093,0.0005326317623257637
1772642849028918800,2.700918701171875,0.0007989476434886456,0.0003994738217443228,-0.0010652635246515274
1772642849038923300,2.71092333984375,-0.0013315794058144093,0.0003994738217443228,-0.002130527049303055
1772642849048928000,2.720927978515625,-0.0029294746927917004,-0.0006657897029072046,-0.0010652635246515274
1772642849058932500,2.730932373046875,-0.0023968429304659367,-0.00013315794058144093,0
1772642849068937500,2.7409375,-0.001864211168140173,0.0014647373463958502,0.0005326317623257637
1772642849078942200,2.750942138671875,-0.00026631588116288185,0.0025300008710473776,0.001597895286977291
1772642849088947000,2.760947021484375,0.00026631588116288185,0.00519315991550684,0
1772642849098951700,2.77095166015625,0.0013315794058144093,0.0057257916778326035,0
1772642849108956700,2.780956787109375,0.0023968429304659367,0.0030626326333731413,-0.001597895286977291
1772642849118961400,2.79096142578125,0.003462106455117464,0.007856318727135658,-0.002130527049303055
1772642849128966100,2.800966064453125,0.005060001742094755,-0.0011984214652329683,-0.0010652635246515274
1772642849138971000,2.810970947265625,0.0023968429304659367,-0.0022636849898844957,-0.003728422336280346
1772642849148975900,2.820975830078125,0.0007989476434886456,-0.004926843568682671,-0.003195790573954582
1772642849158980600,2.830980712890625,0.0007989476434886456,-0.004926843568682671,-0.0010652635246515274
1772642849168985300,2.8409853515625,0.00026631588116288185,-0.003861580276861787,0
1772642849178990300,2.850990234375,0.0013315794058144093,-0.00013315794058144093,-0.0005326317623257637
1772642849188995000,2.8609951171875,0.0007989476434886456,0.001997369108721614,-0.0026631588116288185
1772642849198999800,2.870999755859375,-0.00026631588116288185,0.0014647373463958502,-0.0026631588116288185
1772642849209004500,2.881004638671875,0.00026631588116288185,-0.0011984214652329683,-0.004793685860931873
1772642849219009500,2.891009521484375,0.003994738217443228,-0.004926843568682671,-0.002130527049303055
1772642849229014300,2.90101416015625,0.003462106455117464,-0.006524738855659962,0
1772642849249023700,2.921023681640625,0.0045273699797689915,-0.007590002380311489,0.001597895286977291
1772642849259028700,2.93102880859375,0.0029294746927917004,-0.009720529429614544,0
1772642849269033500,2.941033447265625,0.0023968429304659367,-0.010253161191940308,0.0005326317623257637
1772642849279038200,2.9510380859375,0.0023968429304659367,-0.010253161191940308,0.001597895286977291
1772642849289043200,2.961043212890625,0.0007989476434886456,-0.007057370617985725,0
1772642849299048000,2.9710478515625,0.0013315794058144093,-0.007590002380311489,-0.001597895286977291
1772642849309052700,2.981052734375,0.00026631588116288185,-0.004394211806356907,-0.002130527049303055
1772642849319057400,2.991057373046875,-0.0007989476434886456,-0.0006657897029072046,-0.002130527049303055
1772642849329062400,3.0010625,-0.001864211168140173,0.0014647373463958502,-0.0010652635246515274
1772642849339067100,3.011067138671875,-0.0023968429304659367,0.006791055202484131,-0.001597895286977291
1772642849349072000,3.02107177734375,-0.0013315794058144093,0.0073236869648098946,-0.001597895286977291
1772642849359076600,3.03107666015625,-0.0023968429304659367,0.006791055202484131,-0.002130527049303055
1772642849369081600,3.04108154296875,-0.0023968429304659367,0.00519315991550684,0.0010652635246515274
1772642849379086300,3.05108642578125,-0.0007989476434886456,0.007856318727135658,0
1772642849389091000,3.061091064453125,0.00026631588116288185,0.009986845776438713,0.0026631588116288185
1772642849399096000,3.071095947265625,0.0013315794058144093,0.012117372825741768,0.0026631588116288185
1772642849409100800,3.081100830078125,0.0029294746927917004,0.01584579423069954,0.0010652635246515274
1772642849419105500,3.09110546875,0.00026631588116288185,0.017976321280002594,0
1772642849429110300,3.1011103515625,0.001864211168140173,0.01584579423069954,-0.0026631588116288185
1772642849439115300,3.111115234375,0.003462106455117464,0.016378426924347878,-0.0026631588116288185
1772642849449120000,3.1211201171875,-0.001864211168140173,0.01531316339969635,-0.0005326317623257637
1772642849459124700,3.131124755859375,-0.0007989476434886456,0.012650004588067532,0.002130527049303055
1772642849469129500,3.14112939453125,-0.0023968429304659367,0.010519477538764477,0.004793685860931873
1772642849479134500,3.151134521484375,-0.0045273699797689915,0.00945421401411295,0.003195790573954582
1772642849489139200,3.16113916015625,-0.00026631588116288185,0.012117372825741768,0.0010652635246515274
1772642849499144000,3.17114404296875,-0.0023968429304659367,0.007856318727135658,-0.0010652635246515274
1772642849509149000,3.18114892578125,-0.003462106455117464,0.008921582251787186,-0.003195790573954582
1772642849519153700,3.191153564453125,-0.0023968429304659367,0.007856318727135658,-0.003728422336280346
1772642849529158400,3.201158447265625,-0.001864211168140173,0.0057257916778326035,-0.00426105409860611
1772642849539163100,3.2111630859375,-0.00026631588116288185,0.0073236869648098946,-0.0010652635246515274
1772642849549168000,3.221168212890625,0.0013315794058144093,0.006258423440158367,-0.0010652635246515274
1772642849559172900,3.2311728515625,0.0013315794058144093,0.003595264395698905,-0.001597895286977291
1772642849569177300,3.24117724609375,0.0007989476434886456,0.0057257916778326035,-0.00426105409860611
1772642849579181800,3.251181884765625,0.001864211168140173,0.0057257916778326035,-0.003195790573954582
1772642849589186300,3.261186279296875,0.0007989476434886456,0.006258423440158367,-0.002130527049303055
1772642849599190800,3.271190673828125,-0.00026631588116288185,0.00519315991550684,-0.0010652635246515274
1772642849609195300,3.2811953125,-0.00026631588116288185,0.003595264395698905,-0.0005326317623257637
1772642849619199700,3.29119970703125,-0.003462106455117464,-0.0027963167522102594,0.0026631588116288185
1772642849629204200,3.301204345703125,-0.0013315794058144093,-0.003861580276861787,0.003195790573954582
1772642849639209000,3.311208984375,0.0007989476434886456,-0.0027963167522102594,0.007456844672560692
1772642849649213400,3.32121337890625,0.0007989476434886456,-0.0022636849898844957,0.005858949385583401
1772642849659218000,3.331218017578125,0.0023968429304659367,-0.006524738855659962,0.005326317623257637
1772642849669222400,3.341222412109375,-0.00026631588116288185,-0.004926843568682671,0.005326317623257637
1772642849679227000,3.351226806640625,-0.00026631588116288185,-0.006524738855659962,0.003728422336280346
1772642849689231400,3.3612314453125,-0.0013315794058144093,-0.008655265904963017,0.003728422336280346
1772642849699235800,3.37123583984375,-0.0013315794058144093,-0.010785792954266071,0.005858949385583401
1772642849709240600,3.381240478515625,0.00026631588116288185,-0.011851056478917599,0.0005326317623257637
1772642849719245000,3.3912451171875,0.0013315794058144093,-0.011851056478917599,-0.0005326317623257637
1772642849729249500,3.40124951171875,0.0013315794058144093,-0.010253161191940308,-0.001597895286977291
1772642849739254000,3.41125390625,0.001864211168140173,-0.006524738855659962,-0.001597895286977291
1772642849749258500,3.421258544921875,0.001864211168140173,-0.0011984214652329683,-0.003195790573954582
1772642849759263000,3.431262939453125,-0.0007989476434886456,0.0014647373463958502,-0.002130527049303055
1772642849769267500,3.441267333984375,0.0013315794058144093,0.0014647373463958502,-0.0026631588116288185
1772642849779272200,3.451272216796875,0.00026631588116288185,0.004127896390855312,-0.0026631588116288185
1772642849789276700,3.461276611328125,0.0023968429304659367,0.001997369108721614,-0.0005326317623257637
1772642849799281200,3.47128125,0.0007989476434886456,-0.0006657897029072046,0.00426105409860611
1772642849809285600,3.48128564453125,0.0007989476434886456,-0.00013315794058144093,0.004793685860931873
1772642849819290000,3.4912900390625,0.0007989476434886456,0.001997369108721614,0.004793685860931873
1772642849829294600,3.501294677734375,-0.0007989476434886456,0.0030626326333731413,0.002130527049303055
1772642849839299000,3.511299072265625,-0.0013315794058144093,0.004127896390855312,-0.0010652635246515274
1772642849849303600,3.521303466796875,-0.0013315794058144093,0.003595264395698905,-0.00426105409860611
1772642849859308300,3.531308349609375,-0.0023968429304659367,0.0009321055840700865,-0.00426105409860611
1772642849869312800,3.541312744140625,-0.001864211168140173,0.0003994738217443228,-0.002130527049303055
1772642849879317200,3.551317138671875,-0.003994738217443228,-0.0006657897029072046,0.0010652635246515274
1772642849889321700,3.56132177734375,-0.005060001742094755,0.0014647373463958502,0.001597895286977291
1772642849899326200,3.571326171875,-0.006657897029072046,-0.0022636849898844957,0.0010652635246515274
1772642849909330700,3.58133056640625,-0.0045273699797689915,-0.0011984214652329683,0
1772642849919335200,3.591335205078125,-0.0045273699797689915,-0.0011984214652329683,-0.001597895286977291
1772642849929340000,3.60133984375,-0.006657897029072046,0.0009321055840700865,-0.00426105409860611
1772642849939344400,3.611344482421875,-0.008255792781710625,-0.003861580276861787,-0.007456844672560692
1772642849949348900,3.621348876953125,-0.008255792781710625,-0.003328948514536023,-0.01012000348418951
1772642849959353300,3.631353271484375,-0.008788423612713814,-0.0027963167522102594,-0.012250530533492565
1772642849969357800,3.64135791015625,-0.00719052879139781,-0.003861580276861787,-0.01438105758279562
1772642849979362300,3.6513623046875,-0.008788423612713814,0.0003994738217443228,-0.012250530533492565
1772642849989366800,3.66136669921875,-0.007723160553723574,0.001997369108721614,-0.012783162295818329
1772642849999371500,3.67137158203125,-0.009853687137365341,0.0014647373463958502,-0.009587371721863747
1772642850009376000,3.6813759765625,-0.010918950662016869,0.0030626326333731413,-0.010652635246515274
1772642850019380500,3.69138037109375,-0.013582110404968262,-0.0022636849898844957,-0.009054739959537983
1772642850029385000,3.701385009765625,-0.015180004760622978,-0.005992107093334198,-0.00426105409860611
1772642850039389400,3.711389404296875,-0.013049477711319923,-0.008655265904963017,-0.0005326317623257637
1772642850049394000,3.721393798828125,-0.012516846880316734,-0.009720529429614544,0.0026631588116288185
1772642850059398400,3.7313984375,-0.011451583355665207,-0.010785792954266071,0.0010652635246515274
1772642850069403000,3.74140283203125,-0.007723160553723574,-0.008655265904963017,-0.0010652635246515274
1772642850079407400,3.751407470703125,-0.0045273699797689915,-0.010253161191940308,-0.003195790573954582
1772642850089411800,3.761411865234375,-0.003994738217443228,-0.00918789766728878,-0.005326317623257637
1772642850099416300,3.771416259765625,-0.0023968429304659367,-0.006524738855659962,-0.005326317623257637
1772642850109420800,3.7814208984375,-0.005060001742094755,-0.005459475331008434,-0.005326317623257637
1772642850119425300,3.79142529296875,-0.006125265266746283,-0.008122634142637253,-0.005858949385583401
1772642850129429800,3.8014296875,-0.003462106455117464,-0.007057370617985725,-0.004793685860931873
1772642850139434200,3.811434326171875,-0.003462106455117464,-0.008122634142637253,-0.004793685860931873
1772642850149438500,3.8214384765625,-0.0013315794058144093,-0.005992107093334198,-0.001597895286977291
1772642850159443000,3.83144287109375,-0.001864211168140173,-0.006524738855659962,-0.002130527049303055
1772642850169447400,3.841447509765625,-0.0013315794058144093,-0.003328948514536023,0.0005326317623257637
1772642850179452000,3.851451904296875,-0.001864211168140173,-0.0006657897029072046,-0.0005326317623257637
1772642850189456400,3.861456298828125,-0.001864211168140173,0.0009321055840700865,-0.0010652635246515274
1772642850199460900,3.8714609375,-0.0013315794058144093,0.003595264395698905,-0.0005326317623257637
1772642850209465300,3.88146533203125,-0.001864211168140173,0.0057257916778326035,-0.0010652635246515274
1772642850219469800,3.8914697265625,0.0007989476434886456,0.004660528153181076,-0.0026631588116288185
1772642850239478800,3.911478759765625,0.00026631588116288185,0.008388950489461422,-0.002130527049303055
1772642850249483300,3.921483154296875,-0.00026631588116288185,0.007856318727135658,-0.002130527049303055
1772642850259487700,3.93148779296875,-0.0013315794058144093,0.006258423440158367,-0.003728422336280346
1772642850269492000,3.941491943359375,-0.0013315794058144093,0.008921582251787186,-0.003195790573954582
1772642850279496400,3.951496337890625,-0.003462106455117464,0.012117372825741768,-0.001597895286977291
1772642850289501000,3.9615009765625,-0.003994738217443228,0.012117372825741768,-0.003728422336280346
1772642850299505400,3.97150537109375,-0.005592633504420519,0.009986845776438713,-0.0026631588116288185
1772642850309510000,3.981510009765625,-0.00719052879139781,0.009986845776438713,-0.0010652635246515274
1772642850319514400,3.991514404296875,-0.005592633504420519,0.00945421401411295,0.0010652635246515274
1772642850329518800,4.001518798828125,-0.006125265266746283,0.008388950489461422,0.002130527049303055
1772642850339523300,4.0115234375,-0.0045273699797689915,0.006791055202484131,0.0010652635246515274
1772642850349527800,4.02152783203125,-0.005060001742094755,0.0014647373463958502,0.005858949385583401
1772642850359532300,4.0315322265625,-0.005060001742094755,-0.003328948514536023,0.009587371721863747
1772642850369536500,4.04153662109375,-0.006125265266746283,-0.007590002380311489,0.011185267008841038
1772642850379541000,4.051541015625,-0.008255792781710625,-0.018775269389152527,0.009054739959537983
1772642850389545500,4.06154541015625,-0.008788423612713814,-0.023568956181406975,0.006924212910234928
1772642850399550000,4.071550048828125,-0.00719052879139781,-0.022503692656755447,0.00426105409860611
1772642850409554400,4.081554443359375,-0.003994738217443228,-0.020373165607452393,0.0010652635246515274
1772642850419559000,4.091558837890625,-0.0023968429304659367,-0.016112111508846283,-0.0005326317623257637
1772642850429563400,4.1015634765625,-0.00026631588116288185,-0.014514215290546417,0
1772642850439568000,4.11156787109375,0.00026631588116288185,-0.016644742339849472,0
1772642850449572400,4.121572265625,-0.0007989476434886456,-0.014514215290546417,0.003728422336280346
1772642850459576800,4.131576904296875,0.0007989476434886456,-0.010785792954266071,0.005858949385583401
1772642850469581300,4.141581298828125,0.0029294746927917004,-0.004394211806356907,0.006924212910234928
1772642850489590000,4.161590087890625,-0.0013315794058144093,0.0057257916778326035,0.004793685860931873
1772642850499594500,4.171594482421875,-0.001864211168140173,0.010519477538764477,0.0026631588116288185
1772642850509599000,4.181598876953125,-0.001864211168140173,0.01105210930109024,0.004793685860931873
1772642850519603500,4.191603515625,-0.00026631588116288185,0.010519477538764477,0.002130527049303055
1772642850529608000,4.20160791015625,0.00026631588116288185,0.008388950489461422,0.0005326317623257637
1772642850539612400,4.2116123046875,0.0007989476434886456,0.006258423440158367,0.0026631588116288185
1772642850549617000,4.221616943359375,0.0013315794058144093,0.007856318727135658,0.0026631588116288185
1772642850559621600,4.23162158203125,-0.00026631588116288185,0.008388950489461422,0.003728422336280346
1772642850569627000,4.241626953125,-0.00026631588116288185,0.00945421401411295,0
1772642850579632000,4.251632080078125,-0.001864211168140173,0.009986845776438713,0
1772642850589637400,4.261637451171875,-0.003462106455117464,0.007856318727135658,-0.0005326317623257637
1772642850599642600,4.271642578125,-0.003994738217443228,0.004660528153181076,-0.002130527049303055
1772642850609647900,4.28164794921875,-0.003462106455117464,-0.00013315794058144093,-0.001597895286977291
1772642850619653000,4.291653076171875,-0.0013315794058144093,-0.0011984214652329683,-0.0026631588116288185
1772642850629658400,4.301658447265625,0.0013315794058144093,0.001997369108721614,-0.001597895286977291
1772642850639663600,4.31166357421875,0.0023968429304659367,0.0003994738217443228,-0.003195790573954582
1772642850649668900,4.3216689453125,0.0007989476434886456,-0.0011984214652329683,-0.003195790573954582
1772642850659674000,4.331674072265625,0.00026631588116288185,0.0009321055840700865,-0.002130527049303055
1772642850669679400,4.341679443359375,-0.0013315794058144093,0.001997369108721614,-0.0005326317623257637
1772642850679684600,4.3516845703125,-0.0007989476434886456,0.0003994738217443228,0.0005326317623257637
1772642850689689900,4.36168994140625,-0.0007989476434886456,-0.001731053227558732,0.0026631588116288185
1772642850699695000,4.371695068359375,-0.00026631588116288185,-0.004926843568682671,0.003728422336280346
1772642850709700600,4.38170068359375,0.0013315794058144093,-0.003861580276861787,0.002130527049303055
1772642850719705900,4.391705810546875,0.0023968429304659367,-0.003328948514536023,0.0010652635246515274
1772642850729711000,4.401711181640625,0.0007989476434886456,-0.0022636849898844957,-0.001597895286977291
1772642850739716400,4.41171630859375,0.0007989476434886456,-0.00013315794058144093,-0.003195790573954582
1772642850749721600,4.4217216796875,-0.0007989476434886456,-0.001731053227558732,-0.0026631588116288185
1772642850759726800,4.431726806640625,-0.0029294746927917004,-0.006524738855659962,-0.004793685860931873
1772642850769732000,4.441732177734375,-0.001864211168140173,-0.012383688241243362,-0.002130527049303055
1772642850779737300,4.4517373046875,-0.0013315794058144093,-0.010253161191940308,0.0010652635246515274
1772642850789742600,4.46174267578125,0.0023968429304659367,-0.011851056478917599,0.001597895286977291
1772642850799747800,4.471747802734375,0.0029294746927917004,-0.007057370617985725,0.0026631588116288185
1772642850809753000,4.481753173828125,0.001864211168140173,-0.005459475331008434,0.002130527049303055
1772642850819758300,4.49175830078125,0.001864211168140173,-0.004926843568682671,-0.0005326317623257637
1772642850829763600,4.501763671875,0.0007989476434886456,-0.007057370617985725,0
1772642850839768800,4.511768798828125,0.0023968429304659367,-0.010785792954266071,0.0005326317623257637
1772642850849774000,4.521774169921875,0.001864211168140173,-0.00918789766728878,0.0005326317623257637
1772642850859779300,4.531779296875,0.0007989476434886456,-0.008655265904963017,0.0010652635246515274
1772642850869784600,4.54178466796875,0.0045273699797689915,-0.009720529429614544,0.002130527049303055
1772642850879789800,4.551789794921875,0.001864211168140173,-0.008655265904963017,0
1772642850889795000,4.561795166015625,0.003462106455117464,-0.007057370617985725,0.0005326317623257637
1772642850899800300,4.57180029296875,0.0029294746927917004,-0.005992107093334198,0.001597895286977291
1772642850909805600,4.5818056640625,0.0023968429304659367,-0.005992107093334198,0.003728422336280346
1772642850919811000,4.59181103515625,0.0023968429304659367,-0.008122634142637253,0.003728422336280346
1772642850929816300,4.60181640625,0.0013315794058144093,-0.010253161191940308,0.00426105409860611
1772642850939821600,4.611821533203125,-0.00026631588116288185,-0.01344895176589489,0.003728422336280346
1772642850949826800,4.621826904296875,-0.00026631588116288185,-0.009720529429614544,0.002130527049303055
1772642850959832000,4.63183203125,-0.0013315794058144093,-0.009720529429614544,0.0010652635246515274
1772642850969837300,4.64183740234375,-0.00026631588116288185,-0.008655265904963017,-0.0005326317623257637
1772642850979842600,4.651842529296875,-0.0029294746927917004,-0.008122634142637253,-0.0005326317623257637
1772642850989847800,4.661847900390625,-0.0023968429304659367,-0.004926843568682671,-0.0005326317623257637
1772642851009858300,4.6818583984375,-0.0023968429304659367,-0.0022636849898844957,0.003728422336280346
1772642851019863600,4.691863525390625,-0.00026631588116288185,-0.0006657897029072046,0.003195790573954582
1772642851029868800,4.701868896484375,-0.0007989476434886456,-0.0027963167522102594,0.0026631588116288185
1772642851039874000,4.7118740234375,-0.00026631588116288185,-0.0011984214652329683,0.003728422336280346
1772642851049879300,4.72187939453125,-0.0007989476434886456,-0.001731053227558732,0.003195790573954582
1772642851059884300,4.73188427734375,0.0029294746927917004,-0.0022636849898844957,0.0026631588116288185
1772642851069889300,4.74188916015625,0.0029294746927917004,-0.0022636849898844957,0.001597895286977291
1772642851079894000,4.75189404296875,0.0023968429304659367,-0.003328948514536023,0.0005326317623257637
1772642851089898800,4.761898681640625,0.003462106455117464,-0.0006657897029072046,0
1772642851099903500,4.771903564453125,0.0013315794058144093,-0.001731053227558732,-0.001597895286977291
1772642851109908500,4.781908447265625,0.00026631588116288185,0.001997369108721614,0.0005326317623257637
1772642851119913200,4.791913330078125,-0.0007989476434886456,0.0030626326333731413,-0.0005326317623257637
1772642851129918000,4.80191796875,-0.001864211168140173,0.001997369108721614,-0.0010652635246515274
1772642851139923000,4.8119228515625,-0.003994738217443228,0.003595264395698905,-0.0005326317623257637
1772642851149927700,4.821927734375,-0.003462106455117464,0.004127896390855312,0
1772642851159932400,4.831932373046875,-0.001864211168140173,0.0014647373463958502,0
1772642851169937200,4.841937255859375,-0.0023968429304659367,0.0003994738217443228,0.0010652635246515274
1772642851179942000,4.85194189453125,0.0007989476434886456,0.0014647373463958502,0.001597895286977291
1772642851189947000,4.86194677734375,0.0013315794058144093,0.0030626326333731413,0.002130527049303055
1772642851199951600,4.87195166015625,0.003994738217443228,0.008388950489461422,0.002130527049303055
1772642851209956400,4.881956298828125,0.003994738217443228,0.006791055202484131,0
1772642851219961000,4.891961181640625,0.001864211168140173,0.008921582251787186,-0.0026631588116288185
1772642851229966000,4.901966064453125,0.003462106455117464,0.004127896390855312,-0.0010652635246515274
1772642851239970800,4.911970703125,0.0045273699797689915,0.004127896390855312,-0.0005326317623257637
1772642851249975600,4.9219755859375,0.0023968429304659367,-0.00013315794058144093,0.001597895286977291
1772642851259980500,4.93198046875,0.005060001742094755,-0.003861580276861787,0.001597895286977291
1772642851269985300,4.9419853515625,0.00719052879139781,-0.004926843568682671,0.003195790573954582
1772642851279990000,4.951989990234375,0.006524738855659962,-0.007057370617985725,0.0026631588116288185
1772642851289994800,4.961994873046875,0.004926843568682671,-0.00918789766728878,0.0010652635246515274
1772642851299999700,4.971999755859375,0.003328948514536023,-0.008122634142637253,0.0005326317623257637
1772642851310004500,4.98200439453125,0.00013315794058144093,-0.005459475331008434,0
1772642851320009200,4.99200927734375,0.001731053227558732,-0.004926843568682671,0.001597895286977291
1772642851330014000,5.002013916015625,0.0007989476434886456,-0.005459475331008434,0.0010652635246515274
1772642851340019000,5.01201904296875,-0.00026631588116288185,-0.003328948514536023,0.0010652635246515274
1772642851350023700,5.022023681640625,0.00026631588116288185,-0.004926843568682671,0.001597895286977291
1772642851360028400,5.0320283203125,-0.0013315794058144093,-0.0006657897029072046,-0.0005326317623257637
1772642851370033400,5.042033447265625,-0.001864211168140173,-0.00013315794058144093,-0.001597895286977291
1772642851380038100,5.0520380859375,-0.003994738217443228,0.0025300008710473776,-0.003728422336280346
1772642851390043000,5.06204296875,-0.009321056306362152,0.00519315991550684,-0.003195790573954582
1772642851410052600,5.082052490234375,-0.008788423612713814,0.01105210930109024,-0.0005326317623257637
1772642851420057300,5.092057373046875,-0.009853687137365341,0.012650004588067532,0.002130527049303055
1772642851430062000,5.10206201171875,-0.006125265266746283,0.012650004588067532,0.00426105409860611
1772642851440066800,5.11206689453125,-0.006125265266746283,0.013715268112719059,0.005858949385583401
1772642851450071800,5.12207177734375,-0.005060001742094755,0.016911057755351067,0.003195790573954582
1772642851460076500,5.13207666015625,-0.003462106455117464,0.016378426924347878,0.001597895286977291
1772642851470081300,5.142081298828125,-0.003994738217443228,0.014247899875044823,-0.003195790573954582
1772642851480086300,5.152086181640625,-0.005060001742094755,0.012650004588067532,-0.004793685860931873
1772642851490091000,5.162091064453125,-0.006657897029072046,0.012117372825741768,-0.003728422336280346
1772642851510100500,5.1821005859375,-0.0023968429304659367,0.008921582251787186,-0.003728422336280346
1772642851520105500,5.19210546875,-0.00026631588116288185,0.008921582251787186,-0.002130527049303055
1772642851530110200,5.202110107421875,-0.001864211168140173,0.008388950489461422,-0.003195790573954582
1772642851540115000,5.212114990234375,-0.001864211168140173,0.00519315991550684,-0.0026631588116288185
1772642851550119700,5.22211962890625,-0.0023968429304659367,0.0014647373463958502,-0.003195790573954582
1772642851560124400,5.23212451171875,-0.004127896390855312,0.0025300008710473776,-0.0005326317623257637
1772642851570129200,5.242129150390625,-0.003595264395698905,-0.0027963167522102594,0.0005326317623257637
1772642851580134000,5.2521337890625,-0.004660528153181076,-0.007057370617985725,0.001597895286977291
1772642851590138400,5.262138427734375,-0.0025300008710473776,-0.008122634142637253,0.001597895286977291
1772642851600143000,5.27214306640625,0.00013315794058144093,-0.007590002380311489,0.0010652635246515274
1772642851610147600,5.282147705078125,0.0006657897029072046,-0.007057370617985725,0.001597895286977291
1772642851620152300,5.29215234375,-0.0003994738217443228,-0.00918789766728878,0.001597895286977291
1772642851630157000,5.302156982421875,-0.0009321055840700865,-0.011318424716591835,-0.0005326317623257637
1772642851640161500,5.31216162109375,-0.004127896390855312,-0.012383688241243362,-0.0010652635246515274
1772642851650166300,5.322166259765625,-0.00519315991550684,-0.019840532913804054,-0.0010652635246515274
1772642851660171000,5.3321708984375,-0.004660528153181076,-0.02090579643845558,0.001597895286977291
1772642851670175500,5.342175537109375,-0.00519315991550684,-0.019840532913804054,0.003195790573954582
1772642851680180200,5.35218017578125,-0.004660528153181076,-0.017710005864501,0.003728422336280346
1772642851690184700,5.362184814453125,-0.00519315991550684,-0.010785792954266071,0.001597895286977291
1772642851700189400,5.372189453125,-0.003595264395698905,-0.00918789766728878,0.002130527049303055
1772642851710194200,5.382194091796875,-0.004127896390855312,-0.006524738855659962,0.0005326317623257637
1772642851720198700,5.39219873046875,-0.003462106455117464,-0.004926843568682671,0.0026631588116288185
1772642851730203400,5.402203369140625,-0.0045273699797689915,-0.003328948514536023,0.0010652635246515274
1772642851740208000,5.4122080078125,-0.0045273699797689915,-0.0022636849898844957,0.0010652635246515274
1772642851750212600,5.422212646484375,-0.003994738217443228,-0.00013315794058144093,0.0005326317623257637
1772642851760217300,5.43221728515625,-0.0045273699797689915,0.0014647373463958502,0.0005326317623257637
1772642851770222000,5.44222216796875,-0.005060001742094755,0.004127896390855312,-0.0010652635246515274
1772642851780226600,5.4522265625,-0.0045273699797689915,0.003595264395698905,0
1772642851790231300,5.462231201171875,-0.005592633504420519,0.004660528153181076,-0.0010652635246515274
1772642851800235800,5.47223583984375,-0.005592633504420519,0.004127896390855312,-0.0005326317623257637
1772642851810240500,5.482240478515625,-0.005592633504420519,0.0003994738217443228,-0.003195790573954582
1772642851820245200,5.492245361328125,-0.0023968429304659367,-0.0027963167522102594,-0.003195790573954582
1772642851830249700,5.502249755859375,-0.001864211168140173,-0.004394211806356907,-0.003728422336280346
1772642851840254500,5.51225439453125,0.0013315794058144093,-0.005992107093334198,-0.0010652635246515274
1772642851850259200,5.52225927734375,0.001864211168140173,-0.0027963167522102594,0
1772642851860263700,5.532263671875,0.0045273699797689915,-0.003861580276861787,-0.0010652635246515274
1772642851870268400,5.542268310546875,0.003462106455117464,-0.0006657897029072046,0.001597895286977291
1772642851880273200,5.552273193359375,0.0029294746927917004,-0.0011984214652329683,0.001597895286977291
1772642851890277600,5.562277587890625,0.0007989476434886456,-0.004926843568682671,0.001597895286977291
1772642851900282400,5.572282470703125,-0.001864211168140173,-0.010253161191940308,0.002130527049303055
1772642851910287000,5.582287109375,-0.0029294746927917004,-0.011851056478917599,-0.0026631588116288185
1772642851920291600,5.59229150390625,-0.005060001742094755,-0.008655265904963017,-0.0010652635246515274
1772642851930296300,5.60229638671875,-0.005592633504420519,-0.010785792954266071,-0.003195790573954582
1772642851940300800,5.61230078125,-0.006125265266746283,-0.008655265904963017,-0.003195790573954582
1772642851950305500,5.622305419921875,-0.006657897029072046,-0.007057370617985725,-0.0026631588116288185
1772642851960310300,5.632310302734375,-0.005592633504420519,-0.004926843568682671,-0.0010652635246515274
1772642851970314800,5.642314697265625,-0.006125265266746283,-0.001731053227558732,0.0026631588116288185
1772642851980319500,5.652319580078125,-0.005060001742094755,0.001997369108721614,0.006924212910234928
1772642851990324200,5.66232421875,-0.006125265266746283,0.006258423440158367,0.006391581147909164
1772642852000328700,5.67232861328125,-0.006125265266746283,0.004127896390855312,0.007989476434886456
1772642852010333400,5.68233349609375,-0.009853687137365341,0.00519315991550684,0.005858949385583401
1772642852020338000,5.692337890625,-0.01038631983101368,0.00519315991550684,0.003195790573954582
1772642852030342700,5.7023427734375,-0.011451583355665207,0.0073236869648098946,0.0005326317623257637
1772642852040347400,5.712347412109375,-0.008788423612713814,0.008388950489461422,-0.002130527049303055
1772642852050351900,5.722351806640625,-0.011984214186668396,0.006258423440158367,-0.001597895286977291
1772642852060356600,5.732356689453125,-0.013582110404968262,0.008921582251787186,-0.0026631588116288185
1772642852070360800,5.74236083984375,-0.012516846880316734,0.006258423440158367,-0.003728422336280346
1772642852080365300,5.752365234375,-0.009321056306362152,0.00945421401411295,-0.003195790573954582
1772642852090369800,5.762369873046875,-0.007723160553723574,0.011584741063416004,-0.005326317623257637
1772642852100374300,5.772374267578125,-0.008255792781710625,0.013182636350393295,-0.00426105409860611
1772642852110378800,5.782378662109375,-0.008255792781710625,0.01105210930109024,-0.006924212910234928
1772642852120383200,5.79238330078125,-0.005060001742094755,0.004127896390855312,-0.00852210819721222
1772642852130387700,5.8023876953125,0.0007989476434886456,0.001997369108721614,-0.009054739959537983
1772642852140392200,5.81239208984375,-0.0029294746927917004,-0.005992107093334198,-0.0026631588116288185
1772642852150396700,5.822396728515625,-0.0007989476434886456,-0.004926843568682671,0.0005326317623257637
1772642852160401200,5.832401123046875,-0.001864211168140173,-0.012916320003569126,-0.0005326317623257637
1772642852170405600,5.842405517578125,0.0007989476434886456,-0.012916320003569126,-0.0010652635246515274
1772642852180410000,5.85241015625,0.0029294746927917004,-0.013981583528220654,-0.001597895286977291
1772642852190414600,5.86241455078125,-0.00026631588116288185,-0.01344895176589489,-0.004793685860931873
1772642852200419000,5.872419189453125,-0.003994738217443228,-0.010253161191940308,-0.001597895286977291
1772642852210423600,5.882423583984375,-0.003462106455117464,-0.011318424716591835,-0.0026631588116288185
1772642852220428000,5.892427978515625,-0.003994738217443228,-0.011851056478917599,-0.003195790573954582
1772642852230432500,5.9024326171875,-0.005060001742094755,-0.010253161191940308,-0.003195790573954582
1772642852240437000,5.91243701171875,-0.006657897029072046,-0.006524738855659962,-0.0005326317623257637
1772642852250441500,5.92244140625,-0.00719052879139781,-0.003861580276861787,0.0010652635246515274
1772642852260446000,5.932446044921875,-0.007723160553723574,-0.003328948514536023,-0.0010652635246515274
1772642852270450400,5.942450439453125,-0.008788423612713814,-0.003861580276861787,0.0026631588116288185
1772642852280455000,5.952454833984375,-0.009321056306362152,-0.00013315794058144093,0.00426105409860611
1772642852290459100,5.962459228515625,-0.009321056306362152,-0.0022636849898844957,0.00426105409860611
1772642852300463600,5.972463623046875,-0.009321056306362152,0.0009321055840700865,0.005326317623257637
1772642852310468000,5.982468017578125,-0.01038631983101368,0.0009321055840700865,0.005858949385583401
1772642852320472600,5.99247265625,-0.00719052879139781,0.006791055202484131,0.003195790573954582
1772642852330477000,6.00247705078125,-0.007723160553723574,0.00519315991550684,0.00426105409860611
1772642852340481500,6.0124814453125,-0.00719052879139781,0.007856318727135658,0.0026631588116288185
1772642852350486000,6.022486083984375,-0.007723160553723574,0.006791055202484131,0.002130527049303055
1772642852360490500,6.032490478515625,-0.009853687137365341,0.008388950489461422,0.0026631588116288185
1772642852370495000,6.042494873046875,-0.008788423612713814,0.008388950489461422,0.003728422336280346
1772642852380499500,6.05249951171875,-0.0045273699797689915,0.01105210930109024,0.003195790573954582
1772642852390504000,6.06250390625,-0.006125265266746283,0.013182636350393295,0.002130527049303055
1772642852400508400,6.07250830078125,-0.003994738217443228,0.010519477538764477,-0.001597895286977291
1772642852410513000,6.082512939453125,-0.006125265266746283,0.010519477538764477,-0.003195790573954582
1772642852420517400,6.092517333984375,-0.0045273699797689915,0.011584741063416004,-0.001597895286977291
1772642852430521900,6.10252197265625,-0.0029294746927917004,0.00945421401411295,-0.003195790573954582
1772642852440526300,6.1125263671875,-0.005060001742094755,-0.00013315794058144093,-0.003195790573954582
1772642852450530800,6.12253076171875,-0.00719052879139781,-0.004394211806356907,0.002130527049303055
1772642852460535300,6.132535400390625,-0.007723160553723574,-0.014514215290546417,0.006391581147909164
1772642852470539800,6.142539794921875,-0.005592633504420519,-0.01717737503349781,0.00852210819721222
1772642852480544300,6.152544189453125,-0.003994738217443228,-0.017710005864501,0.010652635246515274
1772642852490548700,6.162548828125,-0.00026631588116288185,-0.014514215290546417,0.00852210819721222
1772642852510557400,6.182557373046875,0.0013315794058144093,-0.014514215290546417,0.0026631588116288185
1772642852520562000,6.19256201171875,-0.00026631588116288185,-0.016112111508846283,0.001597895286977291
1772642852530566400,6.20256640625,-0.0023968429304659367,-0.016644742339849472,0.004793685860931873
1772642852540571000,6.21257080078125,-0.00026631588116288185,-0.016644742339849472,0.01012000348418951
1772642852550575400,6.222575439453125,0.00026631588116288185,-0.013981583528220654,0.011185267008841038
1772642852560579600,6.23257958984375,0.0007989476434886456,-0.016644742339849472,0.00426105409860611
1772642852570583600,6.24258349609375,0.003994738217443228,-0.014514215290546417,0.0026631588116288185
1772642852580587800,6.252587890625,0.005592633504420519,-0.015579478815197945,-0.0010652635246515274
1772642852590591700,6.262591796875,0.0045273699797689915,-0.011851056478917599,0.002130527049303055
1772642852600595700,6.272595703125,0.003462106455117464,-0.012383688241243362,-0.0005326317623257637
1772642852610599700,6.282599609375,0.0029294746927917004,-0.012383688241243362,0.0005326317623257637
1772642852620603600,6.292603759765625,0.0013315794058144093,-0.014514215290546417,0.001597895286977291
1772642852630607600,6.302607666015625,0.00026631588116288185,-0.013981583528220654,0.007989476434886456
1772642852640611600,6.312611572265625,0.001864211168140173,-0.012383688241243362,0.009587371721863747
1772642852650615600,6.322615478515625,0.003462106455117464,-0.011851056478917599,0.012783162295818329
1772642852660619500,6.33261962890625,0.0013315794058144093,-0.007057370617985725,0.013315794058144093
1772642852670623500,6.34262353515625,0.0007989476434886456,-0.007590002380311489,0.01012000348418951
1772642852680627500,6.35262744140625,0.0023968429304659367,-0.003861580276861787,0.005858949385583401
1772642852690631700,6.362631591796875,0.00026631588116288185,-0.003861580276861787,0.00426105409860611
1772642852700635600,6.3726357421875,-0.0013315794058144093,0.0014647373463958502,0.004793685860931873
1772642852710639600,6.3826396484375,-0.0007989476434886456,0.0030626326333731413,0.002130527049303055
1772642852720643600,6.3926435546875,-0.0029294746927917004,0.001997369108721614,0.0010652635246515274
1772642852730647600,6.4026474609375,-0.005060001742094755,0.0025300008710473776,-0.0005326317623257637
1772642852740651500,6.412651611328125,-0.00719052879139781,0.003595264395698905,-0.003195790573954582
1772642852750655500,6.422655517578125,-0.008255792781710625,0.0030626326333731413,-0.005326317623257637
1772642852760659500,6.432659423828125,-0.008255792781710625,0.0014647373463958502,-0.009587371721863747
1772642852770663700,6.44266357421875,-0.01038631983101368,-0.0027963167522102594,-0.012783162295818329
1772642852780667400,6.45266748046875,-0.009321056306362152,-0.005459475331008434,-0.011717898771166801
1772642852790671600,6.462671630859375,-0.007723160553723574,-0.003328948514536023,-0.01012000348418951
1772642852800675600,6.472675537109375,-0.00719052879139781,-0.001731053227558732,-0.011717898771166801
1772642852810679600,6.482679443359375,-0.006657897029072046,-0.0022636849898844957,-0.01012000348418951
1772642852820683500,6.49268359375,-0.005060001742094755,0.006791055202484131,-0.007456844672560692
1772642852830687500,6.5026875,-0.005060001742094755,0.013715268112719059,-0.006924212910234928
1772642852840691500,6.51269140625,-0.0045273699797689915,0.017976321280002594,-0.005326317623257637
1772642852850695400,6.5226953125,-0.003994738217443228,0.01957421749830246,-0.002130527049303055
1772642852860699400,6.532699462890625,-0.0007989476434886456,0.016911057755351067,0.0005326317623257637
1772642852870703400,6.542703369140625,0.00026631588116288185,0.01531316339969635,0.0010652635246515274
1772642852880707600,6.55270751953125,0.00026631588116288185,0.013182636350393295,-0.001597895286977291
1772642852890711600,6.562711669921875,0.00026631588116288185,0.012117372825741768,-0.003195790573954582
1772642852910719500,6.582719482421875,0.005060001742094755,0.016378426924347878,-0.0026631588116288185
1772642852920723500,6.592723388671875,0.005592633504420519,0.011584741063416004,-0.002130527049303055
1772642852930727400,6.6027275390625,0.005592633504420519,0.006258423440158367,0
1772642852940731400,6.6127314453125,0.006125265266746283,0.0030626326333731413,0.004793685860931873
1772642852950735400,6.6227353515625,0.006657897029072046,0.0030626326333731413,0.009587371721863747
1772642852960739300,6.6327392578125,0.006657897029072046,0.0014647373463958502,0.007989476434886456
1772642852970743300,6.642743408203125,0.007723160553723574,0.0014647373463958502,0.004793685860931873
1772642852980747500,6.65274755859375,0.006657897029072046,-0.001731053227558732,0.003728422336280346
1772642852990751500,6.66275146484375,0.005060001742094755,-0.0011984214652329683,0.003195790573954582
1772642853000755500,6.67275537109375,0.0045273699797689915,-0.003861580276861787,0.006391581147909164
1772642853010759400,6.682759521484375,0.00719052879139781,-0.005459475331008434,0.003728422336280346
1772642853020763400,6.692763427734375,0.007723160553723574,-0.004926843568682671,0.00426105409860611
1772642853030767400,6.702767333984375,0.008255792781710625,-0.008122634142637253,0.002130527049303055
1772642853040771300,6.712771240234375,0.008255792781710625,-0.012383688241243362,0.0005326317623257637
1772642853050775300,6.722775390625,0.008255792781710625,-0.010785792954266071,0.004793685860931873
1772642853060779500,6.732779541015625,0.01038631983101368,-0.010253161191940308,0.005326317623257637
1772642853070784300,6.7427841796875,0.012516846880316734,-0.009720529429614544,0.007989476434886456
1772642853080788700,6.752788818359375,0.011984214186668396,-0.012916320003569126,0.007989476434886456
1772642853090793500,6.76279345703125,0.01411474123597145,-0.013981583528220654,0.01012000348418951
1772642853100798000,6.7727978515625,0.014647373929619789,-0.01344895176589489,0.01012000348418951
1772642853110802700,6.782802734375,0.015180004760622978,-0.010785792954266071,0.012250530533492565
1772642853120807200,6.79280712890625,0.013049477711319923,-0.010253161191940308,0.009054739959537983
1772642853130812000,6.80281201171875,0.013582110404968262,-0.006524738855659962,0.007456844672560692
1772642853150821000,6.822821044921875,0.014647373929619789,-0.008122634142637253,0.005326317623257637
1772642853160825900,6.832825927734375,0.015180004760622978,-0.00918789766728878,0.006924212910234928
1772642853170830300,6.842830322265625,0.017310531809926033,-0.010253161191940308,0.007456844672560692
1772642853180835000,6.8528349609375,0.016245268285274506,-0.015046847052872181,0.006391581147909164
1772642853190839600,6.862839599609375,0.017310531809926033,-0.019307902082800865,0.00426105409860611
1772642853200844300,6.87284423828125,0.01837579533457756,-0.018242638558149338,0.005858949385583401
1772642853210848800,6.882848876953125,0.019441058859229088,-0.01344895176589489,0.006391581147909164
1772642853220853500,6.892853515625,0.01784316450357437,-0.006524738855659962,0.003195790573954582
1772642853240862700,6.91286279296875,0.01784316450357437,-0.003861580276861787,-0.00426105409860611
1772642853250867200,6.9228671875,0.016777900978922844,-0.0027963167522102594,-0.003728422336280346
1772642853260872000,6.932871826171875,0.015712637454271317,-0.003861580276861787,-0.001597895286977291
1772642853270876400,6.94287646484375,0.015180004760622978,-0.005459475331008434,0
1772642853280881200,6.952881103515625,0.014647373929619789,-0.005992107093334198,0.003195790573954582
1772642853290885600,6.9628857421875,0.013049477711319923,-0.007590002380311489,0.00426105409860611
1772642853300890400,6.972890380859375,0.009853687137365341,-0.0011984214652329683,0.003728422336280346
1772642853310894800,6.982894775390625,0.006125265266746283,0.0009321055840700865,0.00426105409860611
1772642853320899600,6.992899658203125,0.005060001742094755,0.003595264395698905,0.005326317623257637
1772642853330904300,7.002904296875,0.003994738217443228,0.003595264395698905,0.005326317623257637
1772642853340908800,7.01290869140625,0.003994738217443228,0.006791055202484131,0.009587371721863747
1772642853350913500,7.02291357421875,0.0029294746927917004,0.01105210930109024,0.006924212910234928
1772642853360918000,7.03291796875,0.0023968429304659367,0.010519477538764477,0.005326317623257637
1772642853380927200,7.05292724609375,-0.001864211168140173,0.012117372825741768,0.01012000348418951
1772642853390932000,7.062931884765625,-0.001864211168140173,0.014780531637370586,0.012250530533492565
1772642853400936400,7.0729365234375,-0.003462106455117464,0.013715268112719059,0.012250530533492565
1772642853410941200,7.082941162109375,-0.003462106455117464,0.01531316339969635,0.013848425820469856
1772642853420946000,7.09294580078125,-0.006125265266746283,0.01105210930109024,0.01438105758279562
1772642853430950400,7.102950439453125,-0.0007989476434886456,0.013182636350393295,0.012250530533492565
1772642853440955100,7.112955078125,0.0029294746927917004,0.013182636350393295,0.00852210819721222
1772642853450959600,7.122959716796875,0.0045273699797689915,0.012650004588067532,0.006391581147909164
1772642853460964400,7.13296435546875,0.006657897029072046,0.013182636350393295,0.003195790573954582
1772642853470968800,7.14296875,0.006125265266746283,0.00945421401411295,0.001597895286977291
1772642853480973600,7.1529736328125,0.006657897029072046,0.0073236869648098946,0.003195790573954582
1772642853490978000,7.16297802734375,0.00719052879139781,0.0057257916778326035,0.006924212910234928
1772642853500982800,7.172982666015625,0.008788423612713814,0.0030626326333731413,0.007989476434886456
1772642853510987300,7.1829873046875,0.01038631983101368,-0.00013315794058144093,0.003728422336280346
1772642853520992000,7.192991943359375,0.01038631983101368,0.0003994738217443228,0.003728422336280346
1772642853530996500,7.20299658203125,0.007723160553723574,-0.003328948514536023,0.002130527049303055
1772642853541001200,7.213001220703125,0.006125265266746283,-0.006524738855659962,0.003195790573954582
1772642853551005700,7.223005615234375,0.005060001742094755,-0.0006657897029072046,0.004793685860931873
1772642853561010400,7.233010498046875,0.0023968429304659367,-0.00013315794058144093,0.004793685860931873
1772642853571015400,7.243015380859375,0.003994738217443228,-0.00013315794058144093,0.0010652635246515274
1772642853581020400,7.2530205078125,0.0029294746927917004,-0.00013315794058144093,0
1772642853591025400,7.263025390625,0.006657897029072046,0.004127896390855312,-0.0010652635246515274
1772642853601030400,7.273030517578125,0.00719052879139781,0.003595264395698905,-0.002130527049303055
1772642853611035100,7.28303515625,0.0045273699797689915,0.004127896390855312,-0.0026631588116288185
1772642853621040000,7.2930400390625,0.00719052879139781,0.0025300008710473776,-0.0005326317623257637
1772642853631045000,7.303045166015625,0.006125265266746283,0.003595264395698905,0.0026631588116288185
1772642853641049900,7.3130498046875,0.005060001742094755,0.0014647373463958502,0.003195790573954582
1772642853651054800,7.323054931640625,0.005592633504420519,-0.00013315794058144093,0.00426105409860611
1772642853661059800,7.333059814453125,0.005060001742094755,-0.0022636849898844957,0.006391581147909164
1772642853671064800,7.34306494140625,0.006125265266746283,-0.003328948514536023,0.003728422336280346
1772642853681069800,7.35306982421875,0.006657897029072046,-0.001731053227558732,0.001597895286977291
1772642853691074600,7.363074462890625,0.00719052879139781,-0.0027963167522102594,0.001597895286977291
1772642853701079600,7.37307958984375,0.00719052879139781,0.0003994738217443228,0.0010652635246515274
1772642853711084500,7.38308447265625,0.009853687137365341,-0.003328948514536023,-0.0005326317623257637
1772642853721089500,7.393089599609375,0.008255792781710625,-0.0022636849898844957,0.0005326317623257637
1772642853731094300,7.40309423828125,0.008255792781710625,-0.005459475331008434,0.001597895286977291
1772642853741099300,7.413099365234375,0.008788423612713814,-0.007590002380311489,0.0010652635246515274
1772642853751104300,7.423104248046875,0.007723160553723574,-0.011318424716591835,0.003195790573954582
1772642853761109200,7.433109130859375,0.006657897029072046,-0.008122634142637253,0.0026631588116288185
1772642853771114000,7.443114013671875,0.006125265266746283,-0.005992107093334198,0.0010652635246515274
1772642853781119000,7.453118896484375,0.005592633504420519,-0.003861580276861787,0
1772642853791124000,7.4631240234375,0.0045273699797689915,-0.004394211806356907,-0.0026631588116288185
1772642853801129000,7.47312890625,0.005060001742094755,-0.003328948514536023,0.0005326317623257637
1772642853811133700,7.4831337890625,0.006657897029072046,-0.003861580276861787,0.002130527049303055
1772642853821138700,7.493138671875,0.008255792781710625,-0.003328948514536023,0.00426105409860611
1772642853831143700,7.503143798828125,0.009321056306362152,-0.005459475331008434,0.007456844672560692
1772642853841148700,7.513148681640625,0.011451583355665207,-0.005992107093334198,0.010652635246515274
1772642853851153700,7.523153564453125,0.009321056306362152,-0.005992107093334198,0.012250530533492565
1772642853861158400,7.533158447265625,0.008788423612713814,-0.004394211806356907,0.010652635246515274
1772642853871163400,7.543163330078125,0.011451583355665207,-0.003328948514536023,0.009054739959537983
1772642853881168400,7.55316845703125,0.010918950662016869,-0.003861580276861787,0.003195790573954582
1772642853891173400,7.56317333984375,0.006125265266746283,-0.0011984214652329683,-0.0010652635246515274
1772642853901178000,7.57317822265625,0.0029294746927917004,-0.0027963167522102594,-0.0026631588116288185
1772642853911183000,7.58318310546875,0.001864211168140173,-0.00013315794058144093,-0.003728422336280346
1772642853921188000,7.59318798828125,0.003462106455117464,-0.00013315794058144093,-0.005858949385583401
1772642853931193000,7.603193115234375,0.003994738217443228,0.0030626326333731413,-0.005858949385583401
1772642853941197800,7.61319775390625,0.003994738217443228,0.0057257916778326035,-0.007456844672560692
1772642853951202800,7.623202880859375,0.0013315794058144093,0.00519315991550684,-0.004793685860931873
1772642853961207800,7.633207763671875,0.001864211168140173,0.0057257916778326035,0
1772642853971212800,7.643212890625,0.0007989476434886456,0.0057257916778326035,0.001597895286977291
1772642853981217800,7.6532177734375,-0.00026631588116288185,0.001997369108721614,0.0026631588116288185
1772642853991222500,7.663222412109375,0.0023968429304659367,0.004127896390855312,0.003728422336280346
1772642854001227500,7.6732275390625,0.0007989476434886456,0.0025300008710473776,0.0026631588116288185
1772642854011232500,7.683232421875,0.0007989476434886456,0.006791055202484131,0.0026631588116288185
1772642854021237500,7.693237548828125,0.0023968429304659367,0.006791055202484131,0.001597895286977291
1772642854031242200,7.7032421875,0.0007989476434886456,0.006258423440158367,-0.0005326317623257637
1772642854041247200,7.713247314453125,-0.00026631588116288185,0.006258423440158367,-0.002130527049303055
1772642854051252200,7.723252197265625,-0.0007989476434886456,0.004127896390855312,-0.0005326317623257637
1772642854061257000,7.733257080078125,-0.001864211168140173,0.001997369108721614,-0.0010652635246515274
1772642854081266700,7.7532666015625,-0.00026631588116288185,0.0014647373463958502,0.0010652635246515274
1772642854091271400,7.763271484375,0.0023968429304659367,0.001997369108721614,0.0026631588116288185
1772642854101276200,7.773276123046875,0.0029294746927917004,0.0025300008710473776,0.0010652635246515274
1772642854111281000,7.783281005859375,0.0023968429304659367,0.0009321055840700865,0.0010652635246515274
1772642854121285600,7.79328564453125,0.003462106455117464,0.0003994738217443228,-0.002130527049303055
1772642854131290400,7.803290283203125,0.0029294746927917004,0.0014647373463958502,-0.003728422336280346
1772642854141295000,7.813295166015625,0.0023968429304659367,0.0003994738217443228,-0.003195790573954582
1772642854151299800,7.8232998046875,0.003994738217443228,0.0003994738217443228,0
1772642854161304800,7.833304931640625,0.006125265266746283,-0.00013315794058144093,-0.001597895286977291
1772642854171309600,7.8433095703125,0.0045273699797689915,-0.003328948514536023,-0.003728422336280346
1772642854181314300,7.853314208984375,0.006657897029072046,-0.004926843568682671,-0.0010652635246515274
1772642854191319000,7.863319091796875,0.00719052879139781,0.0003994738217443228,-0.002130527049303055
1772642854201323800,7.87332373046875,0.006125265266746283,0.0003994738217443228,0
1772642854211328500,7.88332861328125,0.006125265266746283,0.0009321055840700865,0.0010652635246515274
1772642854221333500,7.89333349609375,0.005592633504420519,-0.0011984214652329683,-0.002130527049303055
1772642854231338200,7.903338134765625,0.005060001742094755,-0.0022636849898844957,-0.0010652635246515274
1772642854241343000,7.913343017578125,0.0045273699797689915,-0.003328948514536023,-0.003728422336280346
1772642854251347700,7.92334765625,0.0045273699797689915,-0.0027963167522102594,-0.001597895286977291
1772642854261352400,7.9333525390625,0.005060001742094755,-0.00013315794058144093,0
1772642854271357200,7.943357177734375,0.0023968429304659367,-0.0006657897029072046,-0.001597895286977291
1772642854281362000,7.95336181640625,0.003994738217443228,-0.0022636849898844957,-0.0026631588116288185
1772642854291367000,7.963366943359375,0.0023968429304659367,-0.003328948514536023,-0.003728422336280346
1772642854301371600,7.97337158203125,0.003462106455117464,-0.003861580276861787,-0.0005326317623257637
1772642854311376400,7.98337646484375,0.001864211168140173,-0.0011984214652329683,0.0005326317623257637
1772642854321381000,7.993381103515625,0.0023968429304659367,0.0025300008710473776,0.001597895286977291
1772642854331385900,8.0033857421875,0.003462106455117464,0.004127896390855312,0.001597895286977291
1772642854341390600,8.013390625,0.0029294746927917004,0.008921582251787186,-0.001597895286977291
1772642854351395300,8.023395263671874,0.003462106455117464,0.008388950489461422,-0.003728422336280346
1772642854361400000,8.033400146484375,-0.00026631588116288185,0.008921582251787186,-0.003195790573954582
1772642854371405000,8.043405029296874,-0.00026631588116288185,0.007856318727135658,-0.003728422336280346
1772642854381409800,8.053409912109375,0.0013315794058144093,0.00519315991550684,-0.003728422336280346
1772642854391414500,8.06341455078125,0.0029294746927917004,0.004660528153181076,-0.003195790573954582
1772642854411424000,8.083424072265625,0.0029294746927917004,-0.0011984214652329683,-0.0010652635246515274
1772642854421428700,8.0934287109375,0.0029294746927917004,0.0009321055840700865,0.0005326317623257637
1772642854431433500,8.10343359375,0.001864211168140173,0.0025300008710473776,0.0005326317623257637
1772642854441438500,8.1134384765625,0.0029294746927917004,0.004127896390855312,-0.0005326317623257637
1772642854451443200,8.123443115234375,0.0029294746927917004,0.003595264395698905,-0.003195790573954582
1772642854461448000,8.133447998046876,0.001864211168140173,0.0030626326333731413,-0.003195790573954582
1772642854471452700,8.14345263671875,0.00026631588116288185,0.0003994738217443228,-0.003728422336280346
1772642854481457400,8.15345751953125,0.0007989476434886456,-0.0011984214652329683,-0.00426105409860611
1772642854491462100,8.163462158203124,0.00026631588116288185,0.0003994738217443228,-0.002130527049303055
1772642854501467000,8.173466796875,0.0007989476434886456,0.003595264395698905,-0.004793685860931873
1772642854511471600,8.1834716796875,0.00026631588116288185,0.0030626326333731413,-0.0026631588116288185
1772642854521476600,8.1934765625,0.001864211168140173,0.0014647373463958502,-0.0005326317623257637
1772642854531481300,8.2034814453125,-0.00026631588116288185,0.0009321055840700865,-0.0010652635246515274
1772642854541486000,8.213486083984375,0.0007989476434886456,-0.00013315794058144093,0
1772642854551490800,8.22349072265625,0.00026631588116288185,0.0009321055840700865,-0.0010652635246515274
1772642854561495300,8.233495361328124,0.0013315794058144093,0.0014647373463958502,-0.003195790573954582
1772642854571499800,8.243499755859375,0.00026631588116288185,0.0030626326333731413,-0.003728422336280346
1772642854581504000,8.25350390625,0.0007989476434886456,0.0025300008710473776,-0.007989476434886456
1772642854591508500,8.263508544921875,-0.00026631588116288185,0.00519315991550684,-0.005326317623257637
1772642854601512700,8.2735126953125,-0.0013315794058144093,0.006258423440158367,-0.0026631588116288185
1772642854611517200,8.28351708984375,-0.0023968429304659367,0.004660528153181076,-0.0005326317623257637
1772642854621521400,8.293521484375,-0.0029294746927917004,0.006258423440158367,0.0005326317623257637
1772642854631526000,8.30352587890625,-0.003462106455117464,0.0009321055840700865,0.005326317623257637
1772642854641530000,8.313530029296874,-0.0045273699797689915,-0.0006657897029072046,0.006924212910234928
1772642854651534600,8.32353466796875,-0.0045273699797689915,-0.0011984214652329683,0.005858949385583401
1772642854661538800,8.333538818359376,-0.003994738217443228,-0.0022636849898844957,0.00426105409860611
1772642854671543300,8.343543212890625,-0.003462106455117464,-0.00013315794058144093,0.004793685860931873
1772642854681547500,8.353547607421875,-0.003462106455117464,-0.0027963167522102594,0.004793685860931873
1772642854691551700,8.3635517578125,-0.003462106455117464,-0.004394211806356907,0.003195790573954582
1772642854701556200,8.37355615234375,-0.003462106455117464,-0.0027963167522102594,0.0005326317623257637
1772642854711560400,8.383560546875,-0.005060001742094755,-0.003861580276861787,0
1772642854721565000,8.39356494140625,-0.005592633504420519,-0.004394211806356907,0.0005326317623257637
1772642854731569200,8.403569091796875,-0.005060001742094755,-0.007590002380311489,0.0026631588116288185
1772642854741573600,8.41357373046875,-0.003994738217443228,-0.005992107093334198,0.005326317623257637
1772642854751577900,8.423577880859375,-0.003462106455117464,-0.006524738855659962,0.005858949385583401
1772642854761582300,8.433582275390625,-0.0013315794058144093,-0.005459475331008434,0.005858949385583401
1772642854771586600,8.443586669921874,-0.00026631588116288185,-0.003328948514536023,0.005326317623257637
1772642854781591000,8.453591064453125,0.00026631588116288185,-0.001731053227558732,0.0010652635246515274
1772642854791595300,8.46359521484375,-0.0023968429304659367,-0.0011984214652329683,-0.0010652635246515274
1772642854801599700,8.473599853515625,-0.00026631588116288185,-0.0006657897029072046,0.0005326317623257637
1772642854811604000,8.48360400390625,-0.003994738217443228,-0.0011984214652329683,-0.0010652635246515274
1772642854821608400,8.4936083984375,-0.003994738217443228,-0.0011984214652329683,0
1772642854831612700,8.50361279296875,-0.0029294746927917004,-0.003328948514536023,-0.002130527049303055
1772642854841617200,8.5136171875,-0.005060001742094755,-0.004394211806356907,-0.001597895286977291
1772642854851621400,8.523621337890624,-0.0045273699797689915,-0.0011984214652329683,0.002130527049303055
1772642854861625900,8.5336259765625,-0.003462106455117464,-0.0006657897029072046,0.005858949385583401
1772642854871630000,8.543630126953126,-0.0029294746927917004,0.0009321055840700865,0.006391581147909164
1772642854881634600,8.553634521484375,-0.001864211168140173,0.0014647373463958502,0.006391581147909164
1772642854891638800,8.563638671875,-0.001864211168140173,0.006258423440158367,0.005326317623257637
1772642854901643300,8.573643310546874,-0.001864211168140173,0.0057257916778326035,0.003195790573954582
1772642854911647500,8.5836474609375,-0.001864211168140173,0.006258423440158367,0.003728422336280346
1772642854921651700,8.593651611328125,-0.0023968429304659367,0.004127896390855312,0.0026631588116288185
1772642854931656200,8.60365625,-0.0045273699797689915,0.0009321055840700865,0.006391581147909164
1772642854941660400,8.613660400390625,-0.0013315794058144093,0.0003994738217443228,0.005858949385583401
1772642854951665000,8.623664794921876,-0.001864211168140173,0.0003994738217443228,0.01012000348418951
1772642854961669000,8.633669189453125,-0.001864211168140173,-0.0027963167522102594,0.01012000348418951
1772642854971673600,8.643673583984375,-0.00026631588116288185,0.001997369108721614,0.009587371721863747
1772642854981677800,8.653677734375,0.003462106455117464,0.00519315991550684,0.007456844672560692
1772642854991682300,8.663682373046875,0.003462106455117464,0.00519315991550684,0.006391581147909164
1772642855001686500,8.6736865234375,0.003462106455117464,0.0030626326333731413,0.003195790573954582
1772642855011691000,8.68369091796875,-0.0007989476434886456,-0.001731053227558732,0.005326317623257637
1772642855021695200,8.6936953125,-0.0013315794058144093,-0.003328948514536023,0.006924212910234928
1772642855031699700,8.70369970703125,-0.00026631588116288185,-0.00918789766728878,0.01012000348418951
1772642855041704000,8.713703857421875,0.00026631588116288185,-0.01344895176589489,0.010652635246515274
1772642855051708400,8.72370849609375,0.00026631588116288185,-0.01344895176589489,0.012783162295818329
1772642855061713000,8.733712890625,-0.0013315794058144093,-0.011851056478917599,0.01012000348418951
1772642855071718000,8.7437177734375,0.00026631588116288185,-0.009720529429614544,0.007456844672560692
1772642855081722600,8.75372265625,0.001864211168140173,-0.01344895176589489,0.004793685860931873
1772642855091727600,8.7637275390625,0.0013315794058144093,-0.010785792954266071,0.003195790573954582
1772642855101732600,8.773732666015626,0.005592633504420519,-0.008655265904963017,0.0026631588116288185
1772642855111737300,8.7837373046875,0.005060001742094755,-0.004394211806356907,0.0026631588116288185
1772642855121742300,8.793742431640625,0.005060001742094755,-0.004394211806356907,0.005326317623257637
1772642855131747300,8.803747314453124,0.003462106455117464,0.0030626326333731413,0.01438105758279562
1772642855141752000,8.813751953125,0.006657897029072046,0.003595264395698905,0.02077263966202736
1772642855151757000,8.823757080078124,0.008788423612713814,-0.0006657897029072046,0.012783162295818329
1772642855161761800,8.83376171875,0.008255792781710625,-0.0006657897029072046,0.013315794058144093
1772642855171766800,8.843766845703126,0.00719052879139781,-0.005992107093334198,0.004793685860931873
1772642855181771800,8.853771728515625,0.005060001742094755,-0.004926843568682671,0.003195790573954582
1772642855191776500,8.863776611328126,0.003462106455117464,-0.0011984214652329683,0.0005326317623257637
1772642855201781500,8.873781494140625,0.003462106455117464,-0.0022636849898844957,-0.003195790573954582
1772642855211786500,8.883786376953125,-0.00026631588116288185,-0.005992107093334198,-0.00852210819721222
1772642855221791200,8.893791259765624,-0.0007989476434886456,-0.010253161191940308,-0.014913689345121384
1772642855231796200,8.903796142578125,-0.001864211168140173,-0.012383688241243362,-0.009587371721863747
1772642855241801200,8.91380126953125,0.0007989476434886456,-0.011318424716591835,-0.0026631588116288185
1772642855251806000,8.923805908203125,0.0029294746927917004,-0.005992107093334198,0.003728422336280346
