time,seconds_elapsed,z,y,x
1772642720629734700,0.055734619140625,0.002729424963891506,-0.07185176876783371,0.0068324763685464855
1772642720639775700,0.065775634765625,0.004712707735598087,-0.07512450682818889,0.020542729552090168
1772642720649817600,0.075817626953125,0.002523088736832142,-0.060209846290946,0.027484511514008044
1772642720659858700,0.085858642578125,0.012161562436819076,-0.06505611727833747,0.035237171467393635
1772642720669900500,0.095900634765625,0.013619652290642261,-0.07263678166568278,0.01868219637721777
1772642720679941600,0.105941650390625,0.009296236133575438,-0.06614215894937515,0.021030074677616358
1772642720689983500,0.1159833984375,0.004964928930997848,-0.06801905873715877,0.020633184314519167
1772642720700024600,0.126024658203125,0.016383564046025274,-0.07346154205203057,0.002806727983802557
1772642720710066700,0.136066650390625,0.005394260258972644,-0.0553822800040245,-0.005067950914055108
1772642720720107800,0.146107666015625,0.005323240849375724,-0.030925299617648123,0.0125613754093647
1772642720730149600,0.156149658203125,0.00410305140465498,-0.019375147077441215,-0.0014545827224850653
1772642720740190700,0.166190673828125,0.0039908232018351555,-0.016438509103655814,-0.005533668729662895
1772642720750232300,0.176232421875,0.01757335835248232,-0.03899053265154361,0.0029493513248860835
1772642720760273200,0.186273193359375,0.018583119916915893,-0.053095045849680896,0.006952449486404657
1772642720770315300,0.196315185546875,0.018918927742540836,-0.042675358644127845,0.011804711823165417
1772642720780356000,0.206356201171875,0.02451367900967598,-0.0493085130482912,0.015908493880182503
1772642720790398200,0.216398193359375,0.012896890974044799,-0.02728080563545227,0.023148820397257804
1772642720800439000,0.22643896484375,0.016593991926312446,-0.030269466057419776,0.031898236303031444
1772642720810481200,0.236481201171875,0.0176961079493165,-0.03304711407721042,0.02598126734420657
1772642720820522000,0.24652197265625,0.021287994961440564,-0.04927987147569656,0.022423574862629175
1772642720830564400,0.256564453125,0.022592647819221018,-0.08470657416582107,0.013618190985918044
1772642720840605200,0.266605224609375,0.012957681250572204,-0.08454699968993663,0.012261807940900324
1772642720850647300,0.276647216796875,0.012976385951042174,-0.08751403280198573,-0.000753594846278429
1772642720860688100,0.286688232421875,-0.011832768873870372,-0.09645897127985954,-0.015039748221635818
1772642720870729200,0.296729248046875,-0.013343757958710192,-0.10118307719230651,-0.008253595212846994
1772642720880771000,0.30677099609375,-0.012152794608473776,-0.0947615197122097,-0.009013619799911976
1772642720890812200,0.316812255859375,-0.011482055740058422,-0.0973497826397419,0.00980053239390254
1772642720900854000,0.32685400390625,-0.0004649871632456779,-0.06529694029688835,0.003779810799658298
1772642720910896000,0.336896240234375,0.03244301070421934,-0.03928045550882816,-0.006149754801392555
1772642720920937000,0.34693701171875,0.03312836261987686,-0.013284428986907005,-0.021244448080658913
1772642720930978000,0.35697802734375,0.04294657680094242,-0.02219312710762024,-0.02423223171979189
1772642720941020200,0.367020263671875,0.038221009583771226,-0.026913725888729093,-0.043278439103811975
1772642720951062300,0.377062255859375,0.0349149537757039,-0.04007365171313285,-0.034751433777064085
1772642720961103000,0.38710302734375,0.04379179545342922,-0.05292027380466461,-0.029679683470726012
1772642720971144200,0.397144287109375,0.01938888334184885,-0.05534370155930519,-0.04149389377459883
1772642720981186000,0.40718603515625,0.022835224403440952,-0.048372108981013295,-0.0361874579295516
1772642720991227100,0.41722705078125,0.03193944509625435,-0.027719781574606892,-0.03188391551673412
1772642721001269000,0.42726904296875,0.02948503768146038,-0.01649754581451416,-0.017610913883894682
1772642721011310000,0.43731005859375,0.04109744180291891,-0.013185060265660286,-0.020212620814889667
1772642721021352000,0.44735205078125,0.043724575436115264,-0.010803718087077141,-0.008962181873619557
1772642721031394300,0.457394287109375,0.06902092925608158,-0.015458265894651413,-0.008411708384007215
1772642721041435100,0.46743505859375,0.05006020819842815,-0.018639818540215493,-0.006407821215689182
1772642721051476200,0.477476318359375,0.04907207394391298,-0.043619946017861365,0.0007508183673024177
1772642721061518000,0.48751806640625,0.040461189725995064,-0.055638300591707227,0.005541121383756399
1772642721071559200,0.49755908203125,0.02419686814546585,-0.06502513761818408,0.012882862448692321
1772642721081601000,0.50760107421875,0.016214052698016165,-0.06126315473616123,0.01700111142247915
1772642721091642000,0.51764208984375,0.021428572475910186,-0.05503273591399192,0.018747516698390244
1772642721101684000,0.52768408203125,0.028206396047770976,-0.0656043988108635,0.015485153901576995
1772642721111725000,0.53772509765625,0.03220481803417206,-0.04833996027708053,0.02144859235063195
1772642721121767200,0.54776708984375,0.031098902618885038,-0.04956278007030487,0.010992664787918329
1772642721131808000,0.55780810546875,0.03236322346627712,-0.06546995877623557,0.005834843633323907
1772642721141850000,0.56785009765625,0.014027356308698653,-0.08368307633697986,0.013745324496924876
1772642721151891200,0.57789111328125,0.005009937116503715,-0.08952303453683852,0.01960574096292257
1772642721161933000,0.58793310546875,-0.016000994469225406,-0.08646481600999832,0.006865647985786199
1772642721171974100,0.59797412109375,0.0022907412856817246,-0.08342121053040027,0.0012875555925071238
1772642721182016300,0.608016357421875,0.008886778549849986,-0.07078735440671444,-0.007769903349131345
1772642721192057000,0.61805712890625,0.027670973996818064,-0.06672960344851017,-0.010587591118365526
1772642721202099200,0.62809912109375,0.03580839548408985,-0.03345043418109417,-0.01652501834332943
1772642721212140000,0.63814013671875,0.036633448131382466,-0.03339373555779457,-0.036180297536402936
1772642721222182100,0.64818212890625,0.03818330792188644,-0.05617839881777763,-0.02490340897962451
1772642721232223000,0.658222900390625,0.02497837391197681,-0.04015490025579929,-0.01992620508894324
1772642721242265300,0.668265380859375,0.014002514128386974,-0.021606267130374907,-0.02146452057212591
1772642721252306200,0.67830615234375,0.006108546008169651,-0.027355039915442466,-0.029632921719551085
1772642721262348300,0.688348388671875,-0.007188157938420772,-0.03333002267181873,-0.01040682772397995
1772642721272389000,0.69838916015625,-0.0006584639087319373,-0.05872574521303177,0.00609159487336874
1772642721282431200,0.70843115234375,0.00523497804403305,-0.06979951241314411,0.00510536031499505
1772642721292472000,0.71847216796875,0.001474164205789566,-0.08383739011585711,0.007942775698006152
1772642721302514200,0.72851416015625,-0.0015314473509788513,-0.06713116998672485,-0.005808978539705276
1772642721312555000,0.738554931640625,-0.008160510101914405,-0.06445289068818091,0.013840017043054103
1772642721322597400,0.748597412109375,0.0013017302483320236,-0.05309095419645309,0.030784283711761236
1772642721332638200,0.75863818359375,0.00013590133935213088,-0.0759340696454048,0.032561814778298136
1772642721342680300,0.768680419921875,0.012157178522646427,-0.058685997724533076,0.019174948330223558
1772642721352721200,0.77872119140625,0.015822715292870996,-0.061485857576131814,0.012404431281983852
1772642721362763300,0.78876318359375,0.002899520833790302,-0.0604319646090269,0.021148878751695153
1772642721372804000,0.79880419921875,0.033027824854850764,-0.034027357286214824,0.012550561754405498
1772642721382846200,0.80884619140625,0.03482113801240921,-0.02543722359538078,0.0015460603982210158
1772642721392887000,0.818886962890625,0.021370120286941525,-0.023076339682936667,-0.014913491493463516
1772642721402929200,0.82892919921875,0.04449789789617061,-0.036163784793019293,-0.011669541136175394
1772642721412970000,0.838969970703125,0.04918985510468483,-0.04208382249176502,-0.021420389169454573
1772642721423012400,0.849012451171875,0.045559974169731135,-0.03474807277619839,-0.029057898310571907
1772642721433053200,0.85905322265625,0.03985211791694164,-0.043859599992632864,-0.038226416411250824
1772642721443095300,0.86909521484375,0.03485065636783838,-0.04144494006633758,-0.035089141298830506
1772642721453136100,0.87913623046875,0.03612900574058294,-0.039219665232300756,-0.02485372461900115
1772642721463178200,0.88917822265625,0.03814531399905682,-0.029694881039857863,-0.03811126559898257
1772642721473219000,0.899218994140625,0.036544308543205256,-0.01205985562801361,-0.044254006137698886
1772642721483261200,0.90926123046875,0.04404372438788414,-0.02489829441308975,-0.04223214492127299
1772642721493302000,0.919302001953125,0.027484803774952885,-0.0309480959713459,-0.0464474245287478
1772642721503344000,0.92934423828125,0.022167992666363715,-0.03937339448928833,-0.041960049981623886
1772642721513385000,0.939385009765625,0.01816810937523842,-0.044475101542472834,-0.039265842461585994
1772642721523427300,0.94942724609375,0.002775602193176746,-0.05010521638393402,-0.05291968928277492
1772642721533468200,0.95946826171875,0.023578151725232598,-0.06574760667383671,-0.05830503558292985
1772642721543510300,0.96951025390625,0.03680091365277767,-0.07256196286380291,-0.06014218788221478
1772642721553551000,0.979551025390625,0.03072451634854078,-0.07556757442057133,-0.04514744784608483
1772642721563593200,0.98959326171875,0.026622633987665175,-0.07735679592490195,-0.028400603445619343
1772642721573634000,0.999634033203125,0.01449848095178604,-0.08512158470749855,-0.01359393332749605
1772642721583676200,1.00967626953125,0.006025836160778999,-0.0848883604735136,-0.0019409049347043036
1772642721593717000,1.019717041015625,0.008044482506811619,-0.0687280837893486,0.0021900573901832104
1772642721603759000,1.029759033203125,0.016002748034894466,-0.04398234958946705,-0.00022460253611207006
1772642721613800000,1.039800048828125,0.030665187376737593,-0.027727964881062505,0.008903729684650898
1772642721623842300,1.04984228515625,0.018573475305736064,-0.027407646885514256,0.00479644049629569
1772642721633883100,1.059883056640625,0.021323066274821757,-0.0383984119772911,0.0035360651716589927
1772642721643925200,1.06992529296875,0.014711831441521644,-0.04994622642993927,-0.0015597966626286505
1772642721653966000,1.079966064453125,0.009426584514975547,-0.06219196001887321,0.017707213865220547
1772642721664008200,1.09000830078125,0.020294015488028526,-0.07324526895284653,0.01872691230177879
1772642721674049000,1.100049072265625,0.008327975623309612,-0.06545008503198624,0.017367898908257483
1772642721684091100,1.110091064453125,0.0135024556517601,-0.06199789875149726,-0.0038631051689386364
1772642721694132000,1.120132080078125,0.012459668600559234,-0.042644378983974454,0.008194412371516227
1772642721704174000,1.130174072265625,0.019219079732894898,-0.04395487706065178,0.018421207353472708
1772642721714215200,1.140215087890625,0.021176059019565582,-0.041761166408658026,0.008076046688854694
1772642721724257300,1.15025732421875,0.035384909375011916,-0.04551555050611496,0.018273615576326847
1772642721734298000,1.160298095703125,0.020340192717313764,-0.038783611902594564,0.021075375124067066
1772642721744340200,1.17034033203125,0.016972177588939666,-0.06886427738964557,0.0038533144272863864
1772642721754381000,1.180381103515625,0.01797317132502794,-0.058759647482633584,-0.005751987655460834
1772642721764423200,1.190423095703125,0.021422434996068475,-0.06687222678959369,-0.009537935934960842
1772642721774464300,1.20046435546875,0.010083879379928112,-0.07342705526053905,-0.019745003303140402
1772642721784506000,1.210506103515625,0.008877133938670158,-0.05908230356574058,-0.027360154481977223
1772642721794547200,1.220547119140625,0.021473580661416053,-0.050263621816039085,-0.007878478290140628
1772642721804589000,1.230589111328125,0.01856441521644592,-0.03811959503591061,-0.006276742181926966
1772642721814630100,1.240630126953125,0.02698357625454664,-0.03561959491372108,-0.006723316905647516
1772642721824672300,1.25067236328125,0.016261398971080778,-0.04520516938269138,-0.0042057811267673965
1772642721834713300,1.26071337890625,0.01947510032057762,-0.05619418090879917,-0.005518032769113779
1772642721844755200,1.270755126953125,0.01586450860798359,-0.06982406233251094,-0.00168225399851799
1772642721854796300,1.28079638671875,0.024885434931516646,-0.06705810475051403,0.0021869886502623556
1772642721864838100,1.290838134765625,0.013484335473179817,-0.05432312633991241,-0.0003603577449917793
1772642721874879200,1.300879150390625,0.00961246247589588,-0.061629649960994716,0.013902122493833302
1772642721884921000,1.310921142578125,0.014258534716069698,-0.05037877262830734,0.006583323913067579
1772642721894962200,1.320962158203125,0.01364449447095394,-0.061923664471507066,0.010126549477875233
1772642721905004300,1.33100439453125,0.0043438744232058525,-0.07730769608616829,0.0006534954726696014
1772642721915045400,1.34104541015625,0.002480418638885021,-0.077886372756958,0.0041563890270888805
1772642721925087200,1.351087158203125,0.006684300069510937,-0.06561842733621596,0.0039056291364133354
1772642721935128300,1.36112841796875,0.015844634863734244,-0.0572124180406332,0.004131108455359935
1772642721945170200,1.371170166015625,0.019305004450678825,-0.04287409608662128,0.0036377719804644585
1772642721955211300,1.381211181640625,0.0369388608187437,-0.04464578193426132,0.00023658523485064505
1772642721965253000,1.391253173828125,0.023188860146701334,-0.04597790732085705,0.0013053835101425647
1772642721975294200,1.401294189453125,0.019162381109595297,-0.04382277511358261,-0.008371814765036106
1772642721985336000,1.411336181640625,0.02377338203638792,-0.027575404667854308,0.0031191549338400364
1772642721995377200,1.421377197265625,0.019409049347043038,-0.03691547994315624,-0.011121551864594221
1772642722005419300,1.431419189453125,0.014413433016836643,-0.026046879926323888,-0.016644553069770335
1772642722015460400,1.44146044921875,0.014213234269618987,-0.03790741358995437,-0.026424042675644157
1772642722025502200,1.451502197265625,0.019570377388596533,-0.04927110364735126,-0.03464052074849605
1772642722035543300,1.461543212890625,0.023658523485064507,-0.05006079272031784,-0.03478913543894887
1772642722045585200,1.471585205078125,0.05376636923998594,-0.03483575105965137,-0.03918357100561261
1772642722055626200,1.481626220703125,0.0503521768823266,-0.04180032937526702,-0.029418256055563686
1772642722065668000,1.491668212890625,0.047582127647101874,-0.0473608861118555,-0.03424582234248519
1772642722075709200,1.501709228515625,0.026567396669089794,-0.04896715226471424,-0.024887334627658127
1772642722085750000,1.51175,0.0029652795463800427,-0.044779637446999546,-0.01299377547726035
1772642722095792000,1.521792236328125,0.019966390968859195,-0.051442017945647234,-0.012537410011887549
1772642722105834200,1.531834228515625,0.017203940518200397,-0.05154547832012176,-0.01735255520865321
1772642722115875300,1.541875244140625,0.03962473890185356,-0.051420975157618516,-0.023332798662036656
1772642722125916200,1.551916259765625,0.036630817782878876,-0.05196984121203422,-0.017928017009049654
1772642722135958300,1.561958251953125,0.03499415649175644,-0.04363923524022102,-0.0021662381231784818
1772642722145999000,1.5719990234375,0.03091068657040596,-0.05837269399166107,-0.012730448365956545
1772642722156041200,1.582041259765625,0.030249300052225588,-0.05648819541931152,-0.013504501478374004
1772642722166082000,1.59208203125,0.012905074280500412,-0.0620487521559,0.0006343523807823657
1772642722176124200,1.602124267578125,0.02719108152538538,-0.0694949765086174,-0.0004677636422216892
1772642722186165000,1.6121650390625,0.043403380657732485,-0.06255319454669953,-0.0003977671459317207
1772642722196207000,1.62220703125,0.04363689715266227,-0.05214344421327114,-0.010443068081140518
1772642722206248000,1.632248046875,0.04492664470225572,-0.03431844918727875,-0.011213760192692279
1772642722216290300,1.642290283203125,0.03966887030452489,-0.030301030239462852,-0.003384381741285324
1772642722226331100,1.6523310546875,0.013328560389578342,-0.051882747450470924,-0.0015964754112064838
1772642722236373200,1.662373291015625,-0.003952244757115841,-0.052398880279064176,-0.008740209686011075
1772642722246414000,1.6724140625,-0.001915185971558094,-0.05653378812670708,-0.006566372778266668
1772642722256456200,1.682456298828125,-0.002010170778632164,-0.06556172871291636,0.009441782084107399
1772642722266497000,1.6924970703125,0.021113222916424274,-0.05805588312745094,0.009762830732017756
1772642722276539100,1.7025390625,0.021420389169454573,-0.04551496598422527,-0.009360387410968542
1772642722286580000,1.712580078125,0.0361178998246789,-0.05000526314079761,-0.009581482815742491
1772642722296622000,1.7226220703125,0.03127835083901882,-0.04641220708489418,-0.017467267629504204
1772642722306663000,1.732662841796875,0.01518295608460903,-0.04996960730552673,-0.02201484793126583
1772642722316705300,1.742705322265625,0.01161591125279665,-0.04430091401934624,-0.009984218397736548
1772642722326746000,1.75274609375,0.020550620597600936,-0.04638707264363765,-0.008711421982944011
1772642722336788200,1.762788330078125,0.025626900948584077,-0.050556467282772063,-0.02629617851227522
1772642722346829000,1.7728291015625,0.030031273387372492,-0.03467676110565662,-0.019615970095992086
1772642722356871200,1.78287109375,0.03410802130699157,-0.051909635457396505,-0.006924392435699701
1772642722366912000,1.792912109375,0.023984394438564777,-0.05165010773837566,-0.01625716118738055
1772642722376954000,1.8029541015625,0.002040273655951023,-0.049966100174188614,0.008778057478368281
1772642722386995200,1.8129951171875,0.017500293116271496,-0.0569464605808258,-0.010719985326379538
1772642722397037300,1.823037353515625,0.0034013328760862348,-0.04903028062880039,-0.004799363105744124
1772642722407078100,1.833078125,0.02134177097529173,-0.05113982012867927,-0.0007917348995804786
1772642722417120300,1.843120361328125,0.01495733063519001,-0.058191492205858224,-0.008306640574336051
1772642722427161300,1.853161376953125,0.016221651482582092,-0.06726502549946307,0.012617635641247033
1772642722437203200,1.863203125,0.0038528760358691213,-0.08042378228008747,-0.0018431436486542223
1772642722447244300,1.873244384765625,0.015993103423714638,-0.06990121922194957,0.013712591271102428
1772642722457286100,1.8832861328125,0.02689735927581787,-0.04832534722983837,0.003419891446083784
1772642722467327200,1.8933271484375,0.02684416778385639,-0.0706973380357027,-0.0017274083144962786
1772642722477369000,1.903369140625,0.02338730532824993,-0.06378361312448978,-0.010744096854329109
1772642722487410200,1.91341015625,0.026891806317865845,-0.04364975663423538,-0.02722746801301837
1772642722497452300,1.923452392578125,0.00736731389760971,-0.04230886341929435,-0.019326631760597228
1772642722507493400,1.933493408203125,0.004145429241657257,-0.03521452124416828,-0.02048968419060111
1772642722517535200,1.94353515625,0.028250527450442313,-0.035090018081665036,-0.02406725041642785
1772642722527576300,1.953576416015625,0.02175122855901718,-0.039244215151667594,-0.013625059118121861
1772642722537618200,1.9636181640625,0.013811667731404303,-0.052204819011688226,0.0013012918569147585
1772642722547659300,1.9736591796875,0.02781535090357065,-0.06985387294888495,0.006278203486651182
1772642722557701000,1.983701171875,0.015084464146196842,-0.048209027373790736,-0.008644201965630054
1772642722567742200,1.9937421875,0.05545943689346313,-0.037710429713129996,-0.010773761340230703
1772642722577784000,2.0037841796875,0.051854982660710806,-0.028123686200380325,-0.0022504092752933503
1772642722587825200,2.0138251953125,0.05098199921846389,-0.03196925571262836,0.002636632113903761
1772642722597867300,2.0238671875,0.07195698270797729,-0.01973988873660564,0.00822217716127634
1772642722607908400,2.033908447265625,0.04528787923008203,-0.0178682496458292,0.011401537849754095
1772642722617950200,2.0439501953125,0.04188508504927158,-0.02560731946527958,0.012512275570631027
1772642722627991300,2.0539912109375,0.043859892253577705,-0.03253273481428623,0.008456716569513082
1772642722638033200,2.064033203125,0.04530950654000043,-0.04197627046406269,0.012782178553193807
1772642722648074200,2.07407421875,0.047291620267927645,-0.057718029475212096,0.016600129406154154
1772642722658116000,2.0841162109375,0.04042991780489683,-0.07032850472331047,0.01566328694745898
1772642722668157200,2.0941572265625,0.034629707093536855,-0.08038988001048565,0.01682239385470748
1772642722678199000,2.104198974609375,0.04407090465575456,-0.08669219502508639,0.018221300867199898
1772642722688240000,2.114240234375,0.05346621724963188,-0.07527414443194866,-0.001241670624166727
1772642722698282200,2.1242822265625,0.04328326140940189,-0.07631459339559078,0.006785130095481872
1772642722708323300,2.1343232421875,0.038591304200887674,-0.05580547385215759,0.013371230487525462
1772642722718365200,2.144365234375,0.020702596288919448,-0.048664954447746274,0.03230126414597034
1772642722728406300,2.15440625,0.026028759747743605,-0.040381694748997686,0.035271219867467875
1772642722738448100,2.1644482421875,0.0376098919481039,-0.05303484009504318,0.036905396940559144
1772642722748489200,2.1744892578125,0.03499444875270128,-0.044618893927335736,0.03948752238824963
1772642722758531000,2.184531005859375,0.038920682285726066,-0.05263385807871818,0.022956951086968182
1772642722768572200,2.194572265625,0.04881400752961635,-0.0520621956706047,0.014908669187873601
1772642722778614300,2.2046142578125,0.04975304194539785,-0.04422551069557667,-0.0062742579638957975
1772642722788655400,2.2146552734375,0.037760990856587885,-0.04613923536241054,-0.006335194370895624
1772642722798697200,2.224697265625,0.013705869269371031,-0.057495326635241505,-0.024597557900846004
1772642722808738300,2.23473828125,0.008319500055909156,-0.03991232367157936,-0.011685615488141775
1772642722818780200,2.2447802734375,0.02012918031513691,-0.002332242339849472,0.002919832969456911
1772642722828821200,2.2548212890625,0.020524609373509882,0.040217444097995755,0.013440496331453323
1772642722838863000,2.264863037109375,0.032571313259005544,0.0500578701108694,0.02818929878249764
1772642722848904200,2.274904296875,0.029530630388855932,0.020126842227578164,0.023882249238342045
1772642722858946000,2.284946044921875,0.02886573673933744,-0.01983984197974205,0.03522518876865506
1772642722868987100,2.294987060546875,0.0267456758454442,-0.05980009644627571,0.037951252731680866
1772642722879028000,2.305028076171875,0.025223580844700336,-0.09883855989277363,0.04010170876383781
1772642722889070300,2.3150703125,0.004096037141978741,-0.1176058042049408,0.04105857109725475
1772642722899111200,2.325111083984375,-0.007907704384624958,-0.12841653655469418,0.04298983142077922
1772642722909153300,2.3351533203125,-0.02724544206112623,-0.14339666354358196,0.03187237120941281
1772642722919194000,2.345194091796875,-0.034222003075480456,-0.13750702098309994,0.031175182725489137
1772642722929236200,2.355236328125,-0.013502747912704944,-0.1308300274372101,0.017129121716320514
1772642722939277000,2.365277099609375,0.004263502663373947,-0.12036474752426146,0.008896277030557393
1772642722949319200,2.375319091796875,0.023428514121472833,-0.10747720890045165,-0.006350976461917161
1772642722959360000,2.385360107421875,0.0056093643143773075,-0.08265431781113147,-0.014117226549237966
1772642722969402000,2.395402099609375,-0.001293254680931568,-0.06514671817123889,0.010025865582376718
1772642722979443200,2.405443115234375,-0.0044768531531095505,-0.05729132849574089,-0.010065320809930563
1772642722989485300,2.4154853515625,0.01855097121298313,-0.05364566546976566,-0.030449352668970822
1772642722999526100,2.425526123046875,0.026929507979750633,-0.06447393347620964,-0.044449382579326624
1772642723009568300,2.435568359375,0.0016299392893910406,-0.052093759852647775,-0.02652911048531532
1772642723019609000,2.445609130859375,0.02046381909698248,-0.06486030244529246,-0.012172814483195543
1772642723029651200,2.455651123046875,0.04520370807796716,-0.06734335143268108,-0.005378478167951107
1772642723039692300,2.4656923828125,0.03771218327879906,-0.058743280869722365,-0.009239245249330997
1772642723049734100,2.475734130859375,0.06086158819794654,-0.02496200729906559,0.0029101883582770822
1772642723059775200,2.485775146484375,0.06812777980864047,-0.010542436802387237,-0.005997632979601621
1772642723069817300,2.4958173828125,0.06321487332582473,-0.02208966673314571,-0.009274462693184613
1772642723079858200,2.505858154296875,0.05511047732532024,-0.016049802047014235,-0.0011880407407879828
1772642723089900300,2.515900390625,0.06395400125533342,-0.004252396747469901,-0.028346535170823334
1772642723099941400,2.52594140625,0.058528469075262546,-0.0008650923967361449,-0.04870075641348958
1772642723109983200,2.535983154296875,0.04924947633743286,0.0068313073247671125,-0.04240487113967538
1772642723120024300,2.5460244140625,0.030595921532809732,-0.006706219640374184,-0.03436097315475344
1772642723130066200,2.556066162109375,0.03556961829215288,0.003987023809552193,-0.03355433294698596
1772642723140107300,2.566107177734375,0.027485388296842574,0.006408697998523712,-0.037759529551863666
1772642723150149000,2.576149169921875,0.017797814758121967,-0.021396423771977424,-0.02385769931897521
1772642723160190200,2.586190185546875,0.015976152288913727,-0.03563479248285294,-0.028140783465653657
1772642723170232300,2.596232421875,0.020712825421988962,-0.06290624576807022,-0.011590922942012548
1772642723180273400,2.6062734375,0.015086802233755588,-0.09128770612180233,0.009570815291255712
1772642723190315300,2.616315185546875,0.02012771901041269,-0.10406067845523356,0.015232640445232391
1772642723200356400,2.6263564453125,0.026778993593156337,-0.0992968250542879,0.015356705216318368
1772642723210398200,2.636398193359375,0.03111936088502407,-0.08837444902360439,0.009600187516212463
1772642723220439300,2.646439208984375,0.0299786664173007,-0.09188684105873107,0.0031420974180102344
1772642723230481200,2.656481201171875,0.03561374969482422,-0.08514321201741695,-0.004948854579031467
1772642723240522200,2.666522216796875,0.04310907388627529,-0.05826748005151748,-0.01118979479521513
1772642723250564000,2.676564208984375,0.028321839120984075,-0.049424248382449146,0.0006698620855808258
1772642723260605200,2.686605224609375,0.02384294014126062,-0.030520810469985008,-0.015756956580281256
1772642723270647300,2.696647216796875,0.03332505423575639,-0.012808628168702124,-0.012524988921731709
1772642723280688400,2.7066884765625,0.028832418991625308,-0.00789104551076889,-0.0184258835285902
1772642723290730200,2.716730224609375,0.03626110768765211,-0.006653612670302391,-0.012347878789156675
1772642723300771300,2.726771240234375,0.07784165683239698,0.00945697965323925,-0.014762684845924377
1772642723310813200,2.736813232421875,0.03473433651179075,-0.004379822519421577,-0.015399229183793066
1772642723320854300,2.746854248046875,0.03412409565895796,-0.03264087136387825,-0.010022212320566177
1772642723330896100,2.756896240234375,0.03898351838886738,-0.03256546804010868,0.00015767477974295617
1772642723340937200,2.766937255859375,0.036865211060643194,-0.05639642548263073,0.016383417915552853
1772642723350979000,2.77697900390625,0.033787703311443325,-0.08112637759149074,0.023141806134581566
1772642723361020200,2.787020263671875,0.055929392492771145,-0.07447276492118834,0.016660335160791875
1772642723371062300,2.797062255859375,0.03513151913583278,-0.09495499645769595,0.02290083698555827
1772642723381103400,2.807103271484375,0.025600889724493026,-0.10132920766472815,0.025635376515984534
1772642723391145200,2.817145263671875,0.024563071109354493,-0.0952753144532442,0.010081541292369364
1772642723401186300,2.827186279296875,0.027314123383164406,-0.06940788274705409,-0.0032476036190986633
1772642723411228200,2.837228271484375,0.015321487772464752,-0.06712298668026924,-0.0012013386137783527
1772642723421269200,2.847269287109375,0.010294599521160125,-0.03791150524318218,-0.01562850789502263
1772642723431311000,2.85731103515625,0.011102701033651827,-0.04044365406930446,-0.027016017219424246
1772642723441352200,2.867352294921875,0.019649872365593908,-0.05999065058231354,-0.011943681902438401
1772642723451394000,2.87739404296875,0.016204408086836337,-0.06590192045271397,0.002687047126889229
1772642723461435100,2.88743505859375,0.018431436486542222,-0.06911386823654174,0.02414192308783531
1772642723471477200,2.897477294921875,0.04597440018951893,-0.07112813066840172,0.03681947222277522
1772642723481518300,2.907518310546875,0.04561521148830652,-0.040519057393074036,0.042605946669727564
1772642723491560200,2.917560302734375,0.03321750220805406,-0.0398275679975748,0.02306333407089114
1772642723501601300,2.927601318359375,0.05980448036044836,-0.018120763102173806,0.0040562896534800524
1772642723511643100,2.93764306640625,0.05218991370350122,-0.029208558827638623,-0.0007685001544654368
1772642723521684200,2.947684326171875,0.0481932452827692,-0.019686697244644166,0.003063040832430124
1772642723531726000,2.95772607421875,0.02872983539998531,-0.039134325036406514,-0.005134586409479379
1772642723541767200,2.96776708984375,0.023238836768269537,-0.05491583153605461,-0.005391337649524212
1772642723551809000,2.97780908203125,-0.001396130533516407,-0.07814648499786854,0.007655337058752775
1772642723561850400,2.987850341796875,-0.012114216163754462,-0.10076280595362186,0.024359219100326297
1772642723571892200,2.997892333984375,-0.008567921859025955,-0.10625789623856544,0.02608604289293289
1772642723581933300,3.007933349609375,-0.004725859478116035,-0.12685352502167224,0.04172887157425284
1772642723591975200,3.01797509765625,0.007446224352717399,-0.11313830340206622,0.04693243156671524
1772642723602016300,3.028016357421875,0.008202887938916683,-0.08862988508939743,0.0580063448973
1772642723612058000,3.03805810546875,0.023467092566192147,-0.06265314778983593,0.05350538021624088
1772642723622099200,3.04809912109375,0.020514964762330053,-0.03785656018555164,0.05167378087490797
1772642723632140000,3.05814013671875,0.027086744368076322,-0.007553191858530044,0.06492737633213401
1772642723642182100,3.06818212890625,0.024004560443758965,-0.03205108877718448,0.06122165368199348
1772642723652223200,3.07822314453125,0.0030307459980249405,-0.03302665581107139,0.053741819320619104
1772642723662265300,3.088265380859375,0.0026698037311434744,-0.05062427182197571,0.04581570249646902
1772642723672306200,3.09830615234375,0.024537059885263442,-0.07933481799960136,0.037977556216716765
1772642723682348300,3.108348388671875,0.02340513324588537,-0.08742050929963588,0.03200388863459229
1772642723692389400,3.118389404296875,0.021658581839501857,-0.09252338539659977,0.012737754889577627
1772642723702431200,3.12843115234375,0.016339432643353937,-0.08342179505228996,-0.004035246865451336
1772642723712472300,3.138472412109375,0.008473813834786414,-0.07401566880345344,-0.012763181591778992
1772642723722514200,3.14851416015625,0.004849193596839905,-0.062413493815064426,-0.01842836774662137
1772642723732555300,3.15855517578125,0.006087795481085777,-0.032872342032194135,-0.017706190951913593
1772642723742597000,3.16859716796875,0.0017056348741054533,-0.02614624864757061,-0.011967355038970708
1772642723752638500,3.178638427734375,0.020890520076453683,-0.041486441120505334,-0.023802315869927405
1772642723762680600,3.1886806640625,0.004126724541187286,-0.040542438268661496,-0.007572042689472437
1772642723772721400,3.198721435546875,0.010195230799913406,-0.03286298968195915,-0.01706482430845499
1772642723782763500,3.208763427734375,-0.008988485358655452,-0.04254267217516899,-0.005231909304112195
1772642723792804400,3.218804443359375,0.01626402931958437,-0.061363107979297636,-0.005904255607724189
1772642723802846500,3.228846435546875,0.03186316498965025,-0.06334989788234234,-0.021362667632848022
1772642723812887600,3.238887451171875,0.019137246668338773,-0.05049275439679622,-0.02988908843770623
1772642723822929700,3.2489296875,0.040816579034924506,-0.04866203183829784,-0.03735854753553867
1772642723832970500,3.258970458984375,0.033845863239467144,-0.04649053301811218,-0.038910599283128976
1772642723843012600,3.2690126953125,0.023782149864733218,-0.022864742758870123,-0.04306435796171427
1772642723853053700,3.2790537109375,0.018721651604771614,-0.03901274448335171,-0.03872179871276021
1772642723863095600,3.289095458984375,0.017941314882040024,-0.04586567911803722,-0.04597308501526713
1772642723873136600,3.29913671875,0.019502865110337733,-0.05246259316504001,-0.04380509332641959
1772642723883178500,3.309178466796875,0.01576718571335077,-0.06340601198375224,-0.018734364955872298
1772642723893219600,3.319219482421875,0.031548107691109176,-0.06818272486627101,-0.011883768408745526
1772642723903261400,3.329261474609375,0.04655453816503286,-0.06510930877029895,-0.020043693988770244
1772642723913302500,3.339302490234375,0.045801966232061384,-0.05841711765527725,-0.022618366782367227
1772642723923344600,3.3493447265625,0.028101766629517078,-0.04865151044428348,-0.022792846566438672
1772642723933385700,3.3593857421875,0.03195230457782745,-0.04463409149646759,-0.021717910811305044
1772642723943427600,3.369427490234375,0.028821605336666105,-0.046027591681480406,-0.023095628905296324
1772642723953468700,3.37946875,0.023968320086598396,-0.052336920958757395,-0.014425854106992483
1772642723963510500,3.389510498046875,0.03471767763793468,-0.05270166261792183,-0.01944251322522759
1772642723973551600,3.399551513671875,0.038537820447981354,-0.04400046976804733,-0.02374795533418655
1772642723983593500,3.409593505859375,0.047772974044084544,-0.03653320262730121,-0.029580753140896556
1772642723993634600,3.419634521484375,0.0453133059322834,-0.021565350598096847,-0.02837824548333883
1772642724003676400,3.429676513671875,0.03766191439628601,-0.017360884645581245,-0.017954612755030394
1772642724013717500,3.439717529296875,0.03425853569358587,-0.0356885684967041,-0.013756430412828922
1772642724023759600,3.449759521484375,0.019970774883031842,-0.026999066084623335,0.009206073632091282
1772642724033800700,3.45980078125,0.022537410500645637,-0.05362579172551631,0.020687837111204862
1772642724043842600,3.469842529296875,0.0391916081815958,-0.054013914260268206,0.01166574174389243
1772642724053883600,3.479883544921875,0.028738018706440924,-0.04279518563151359,0.012836977480351924
1772642724063925500,3.489925537109375,0.038493104523420335,-0.031869886991381643,-0.02027472626566887
1772642724073966600,3.499966552734375,0.04299392307400703,-0.031637247279286386,-0.008832125753164291
1772642724084008400,3.510008544921875,0.03699672848582267,-0.015425532668828963,-0.028316432293504473
1772642724094049500,3.520049560546875,0.03829407481998205,-0.019640520015358924,-0.03990355584323406
1772642724104091400,3.53009130859375,0.01599982542544603,-0.0327519305229187,-0.03224821878448129
1772642724114132700,3.5401328125,0.02331540913581848,-0.03999591030180454,-0.026899258971959352
1772642724124174600,3.550174560546875,0.033760815304517744,-0.05148936421871185,-0.026618396203964948
1772642724134215700,3.560215576171875,0.02674830619394779,-0.060444239568710326,-0.015288023894280195
1772642724144257500,3.570257568359375,0.02304477550089359,-0.04940379011631012,-0.012583441110700368
1772642724154298600,3.580298583984375,0.006655658496916294,-0.048400166031718254,-0.008547755853831768
1772642724164340500,3.590340576171875,0.011860533663630485,-0.0590770428687334,-0.006022767420858144
1772642724174381600,3.600381591796875,0.0019829905107617376,-0.06680851390361786,0.006564619212597608
1772642724184423400,3.61042333984375,0.006459843663871288,-0.06599076777994632,-0.00587941342741251
1772642724194464500,3.620464599609375,0.017796645714342592,-0.046668227672576904,-0.027953882591426372
1772642724204506600,3.630506591796875,0.03317863150238991,-0.018182722422480584,-0.05890460891127586
1772642724214547700,3.640547607421875,0.04226414749473333,-0.007827917146682739,-0.04568652315884828
1772642724224589600,3.650589599609375,0.019918167912960052,0.012875848186016082,-0.0490364181086421
1772642724234630700,3.660630615234375,0.011911679328978061,0.00493044213950634,-0.03383578023687005
1772642724244672500,3.670672607421875,0.025417057590186594,-0.009824059399962424,-0.02586597040146589
1772642724254713600,3.680713623046875,0.01326806237399578,-0.03550385957956314,-0.020108722048997878
1772642724264755500,3.69075537109375,0.019734628039598464,-0.05988602116405964,-0.014688012174516915
1772642724274796500,3.700796630859375,0.017121230670809746,-0.07487433145940303,-0.008387889117002487
1772642724284838400,3.71083837890625,0.019902678082883356,-0.07884849578738212,0.022953882347047327
1772642724294879500,3.72087939453125,0.02050678145587444,-0.07217559389472007,0.02586582427099347
1772642724304920300,3.73092041015625,0.01364274090528488,-0.07776829933524132,0.012315583954751491
1772642724314962700,3.740962646484375,0.02025192991197109,-0.06321019715070725,0.02284589192792773
1772642724325004500,3.751004638671875,0.0291050984531641,-0.05464519790112972,0.025477555605769156
1772642724335045600,3.761045654296875,0.03868102831095457,-0.05609773479700088,0.020673954716324806
1772642724345086500,3.77108642578125,0.010631868651509285,-0.04651975911259651,0.011490092916041613
1772642724355128600,3.781128662109375,0.007108370700478554,-0.05493862788975239,0.03094078944772482
1772642724365169400,3.79116943359375,0.0008569090902805328,-0.06326455768644809,0.013233575582504271
1772642724375211500,3.80121142578125,0.029618016411364075,-0.05440086775124073,0.010003215359151362
1772642724385252400,3.81125244140625,0.03136836721003056,-0.04748538927435875,0.014118395593017339
1772642724395294500,3.82129443359375,0.024272855991125105,-0.052126493078470226,0.006732230864465236
1772642724405335600,3.83133544921875,0.03170534407943487,-0.06833002438247203,0.007987053231149911
1772642724415377700,3.841377685546875,0.03504705572277307,-0.08364332884848118,-0.0008352817803621292
1772642724425418500,3.85141845703125,0.01424889010488987,-0.05465513477325439,-0.005571078130602836
1772642724435460600,3.861460693359375,-0.006691022071242332,-0.0626806203186512,0.01102744384035468
1772642724445501400,3.87150146484375,-0.02033960819542408,-0.07952128048241137,0.01069996545165777
1772642724455543600,3.88154345703125,0.0001911386579275131,-0.07554302450120448,0.013626812683790922
1772642724465584600,3.891584716796875,0.03038812400102615,-0.08496902449429035,0.02590834823846817
1772642724475626500,3.90162646484375,0.03635258536338806,-0.05972352407872677,0.022887392982095477
1772642724485667600,3.91166748046875,0.046263738524913785,-0.06005962416529655,0.01799889028817415
1772642724495709400,3.92170947265625,0.04487549903690815,-0.04735094923973083,0.009213526286184787
1772642724505750500,3.93175048828125,0.0323947876483202,-0.05568213973343372,0.004244651832431555
1772642724515792600,3.941792724609375,0.02371142271608114,-0.059952656659483905,0.009149375008791684
1772642724525833700,3.951833740234375,0.01399345403909683,-0.059682023024559015,0.012287673034518956
1772642724535875600,3.96187548828125,0.02365092470049858,-0.045918286088109016,-0.008669920928776264
1772642724545916700,3.971916748046875,0.015787936240434647,-0.031041034951806067,-0.027935908543318507
1772642724555958500,3.98195849609375,0.02388181084692478,-0.013528759136795996,-0.0514087001979351
1772642724565999600,3.99199951171875,0.03709434364140034,-0.01400046830177307,-0.049168958447128534
1772642724576041500,4.00204150390625,0.0293447524279356,-0.024684359401464462,-0.03263619518876076
1772642724586082600,4.01208251953125,0.010952771168947219,-0.01741992135643959,-0.025671324612200258
1772642724596124400,4.02212451171875,0.033931203435361386,-0.030762218010425564,-0.033467385315895076
1772642724606165500,4.03216552734375,0.0435270070374012,-0.033574352821707724,-0.030088994923979043
1772642724616207600,4.04220751953125,0.05697802476286888,-0.04081424094736576,-0.03166764241755009
1772642724626248700,4.052248779296875,0.0515679824128747,-0.051366614621877665,-0.02222089189738035
1772642724636290600,4.06229052734375,0.04524433234930038,-0.06160743812918663,-0.010939327165484427
1772642724646331600,4.07233154296875,0.04087532348483801,-0.056848845425248144,-0.012456892121583223
1772642724656373500,4.08237353515625,0.044399405957758424,-0.05905249294936656,-0.008512830670922993
1772642724666414600,4.09241455078125,0.04609568848162889,-0.05121405440866947,-0.004730535653233528
1772642724676456400,4.10245654296875,0.04320259738862514,-0.029867899519205092,-0.017288696192204953
1772642724686497500,4.11249755859375,0.026273674419522285,-0.026820786908268928,-0.026842998740077017
1772642724696539600,4.12253955078125,0.029575930835306644,-0.034977789878845214,-0.016394085440039632
1772642724706580700,4.132580810546875,0.019233108258247374,-0.03360825509130955,-0.019028233335912227
1772642724716622600,4.14262255859375,0.027167700649797916,-0.0546329229414463,-0.017010463772714136
1772642724726663700,4.15266357421875,0.03157411891520023,-0.059958501878380775,-0.024519670359045266
1772642724736705500,4.16270556640625,0.05948533140867948,-0.039864392876625056,-0.025156068566441533
1772642724746746600,4.17274658203125,0.05789338604211807,-0.029304420417547224,-0.031010932074487206
1772642724756788500,4.18278857421875,0.03345715618282556,-0.009423661905527115,-0.02728065950497985
1772642724766829600,4.19282958984375,0.03679214582443237,-0.029388007047772405,-0.029220833787322043
1772642724776871400,4.202871337890625,0.046238604083657264,-0.031495792981982226,-0.0069493807464838025
1772642724786912500,4.21291259765625,0.04318097007870674,-0.02792904041111469,-0.01561155676022172
1772642724796954400,4.222954345703125,0.06553776331543922,-0.039493805998563766,-0.009259411254525184
1772642724806995500,4.232995361328125,0.05499766460061073,-0.03826104933321476,-0.0032053719125688072
1772642724817037300,4.243037353515625,0.03842383867949247,-0.039815293037891386,-0.012873217837512493
1772642724827078400,4.253078369140625,0.02713642872869968,-0.05000701670646667,-0.012809212690591812
1772642724837120300,4.263120361328125,0.02934942860305309,-0.0667582450211048,-0.001910655926913023
1772642724847161300,4.273161376953125,0.04148001137971878,-0.04623392790853977,-0.010336977358162403
1772642724857203500,4.283203369140625,0.042370238217711444,-0.051557753279805184,-0.011992489480227232
1772642724867244500,4.29324462890625,0.040026013179123396,-0.0363245283126831,-0.02403977788761258
1772642724877286400,4.303286376953125,0.025736791063845157,-0.02766542103886604,-0.03429273022413253
1772642724887327500,4.313327392578125,0.01703910534530878,-0.0493739794999361,-0.033821897841989995
1772642724897369300,4.323369384765625,0.01385930626541376,-0.060868602460622784,-0.03315758871436119
1772642724907410400,4.333410400390625,0.00809445912837982,-0.05925532204508781,-0.016516688906401397
1772642724917451300,4.343451171875,0.0015180033475160597,-0.046866380593180657,0.007623772876709699
1772642724927493400,4.353493408203125,0.01461830793917179,-0.06405541580319404,0.015419833580404519
1772642724937534200,4.3635341796875,0.017918226267397402,-0.06878127528131008,0.011000263572484254
1772642724947576300,4.373576416015625,0.03313829949200153,-0.05096037190854549,-0.004021510601043701
1772642724957617400,4.383617431640625,0.0264472774207592,-0.04446282658278942,-0.0013538988269865512
1772642724967659500,4.393659423828125,0.010933774207532405,-0.031322774502635,-0.00978548095524311
1772642724977700400,4.403700439453125,0.004414601571857929,-0.01751402938067913,0.0040080665975809095
1772642724987742500,4.413742431640625,-0.002848375168442726,-0.03752630531787872,-0.006966331881284714
1772642724997783300,4.423783203125,0.011621756471693515,-0.04528758696913719,-0.0030376141302287576
1772642725007825400,4.433825439453125,0.03215630271732807,-0.03501461475789547,-0.008945522999763488
1772642725017866500,4.443866455078125,0.0032119477838277815,-0.028258710756897926,-0.021000848583132028
1772642725027908400,4.453908447265625,0.002246317622065544,-0.024661563047766684,-0.007065700602531433
1772642725037949400,4.463949462890625,0.012241641935706139,-0.03696224169433117,0.014354542436450719
1772642725047991600,4.473991455078125,0.015479600943624973,-0.04476619344353676,0.035384909375011916
1772642725058032600,4.48403271484375,0.03566927927434444,-0.05281505986452102,0.061989277053624385
1772642725068074500,4.494074462890625,0.03505319320261478,-0.07254150459766387,0.07857932345718145
1772642725078115600,4.504115478515625,0.03617050679475069,-0.06852233208417892,0.07738353780135512
1772642725088157400,4.514157470703125,0.03778466399312019,-0.05980769523084163,0.06517331391721963
1772642725098198500,4.524198486328125,0.020647066709399222,-0.04884323362410068,0.057925827006995674
1772642725108240400,4.534240478515625,0.027394202882051466,-0.06467968518137931,0.06606880145221948
1772642725118281500,4.544281494140625,0.030509120032191275,-0.0857113672941923,0.04066708756163716
1772642725128323300,4.5543232421875,0.01294043785482645,-0.08491115682721137,0.04851473232209682
1772642725138364400,4.564364501953125,0.015624562372267245,-0.1020160208851099,0.019907500388473272
1772642725148406500,4.574406494140625,0.015043547613918781,-0.10571545992493629,0.02150266062542796
1772642725158447600,4.584447509765625,0.020497429105639457,-0.07933364895582198,0.002336626254022121
1772642725168489500,4.594489501953125,0.018641864366829394,-0.052099605071544645,-0.011289455777406691
1772642725178530600,4.604530517578125,0.011966332125663757,-0.034169980627298355,-0.012050357147306203
1772642725188572400,4.614572509765625,0.01441138719022274,-0.019131985971331596,-0.01713145980387926
1772642725198613500,4.624613525390625,0.013388181622326373,-0.013341712132096289,-0.031849720986187456
1772642725208655400,4.6346552734375,0.014982172815501689,0.001342062258720398,-0.048869975500553844
1772642725218696400,4.644696533203125,0.034360827024281025,0.012407646152377128,-0.0480723953820765
1772642725228738300,4.65473828125,0.03240793939083814,0.016443185278773306,-0.050252369769662616
1772642725238779400,4.664779296875,0.021129589529335496,0.001482347512245178,-0.056255847968161105
1772642725248821500,4.674821533203125,0.00897591813802719,-0.014639935249090194,-0.04052344130724668
1772642725258862600,4.684862548828125,0.0032160394370555874,-0.016042787784337997,-0.03860284850820899
1772642725268904400,4.694904541015625,0.007914426386356354,-0.03557750933766365,-0.021394670206308364
1772642725278945500,4.704945556640625,0.0008779518783092498,-0.04835340428054333,-0.033325784888118506
1772642725288987400,4.7149873046875,-0.01166471883058548,-0.06437573379874229,-0.048752194339782
1772642725299028500,4.725028564453125,-0.0006152092888951302,-0.08501812433302403,-0.03728694360405206
1772642725309070300,4.7350703125,-0.012874386881291866,-0.07017769807577133,-0.01185381166189909
1772642725319111400,4.745111328125,-0.031923370744287964,-0.060628363963961596,0.000002922609448432922
1772642725329153300,4.7551533203125,-0.013588964891433715,-0.06784662477970123,0.018530951338261364
1772642725339194400,4.7651943359375,-0.018452771535515784,-0.07636836940944194,0.028514439083635806
1772642725349236500,4.775236572265625,0.017858020512759684,-0.07859305972158909,0.028303134420514107
1772642725359277600,4.785277587890625,-0.011787468427419661,-0.07497253113687039,0.015393091703951358
1772642725369319400,4.7953193359375,-0.015912731663882733,-0.09787643686234951,0.01291208854317665
1772642725379360500,4.805360595703125,-0.015006430473923683,-0.1246814416795969,0.02199000575095415
1772642725389402400,4.81540234375,0.001810264292359352,-0.14090601577162742,0.027303163597732782
1772642725399443500,4.825443359375,0.02099018105864525,-0.13500409825146198,0.03807210263237357
1772642725409485300,4.8354853515625,0.02908113305568695,-0.12416823146045207,0.04170125291496515
1772642725419526400,4.8455263671875,0.02661240485459566,-0.10300444740056991,0.029508418557047843
1772642725429568300,4.855568359375,0.021835691972076892,-0.08852350210547447,0.00454699577987194
1772642725439609300,4.865609375,0.01905950525701046,-0.06439911467432975,0.021148878751695153
1772642725449650200,4.875650146484375,0.013723697187006473,-0.05179331560134887,0.021617811437696217
1772642725459692500,4.885692626953125,0.02997165215462446,-0.058313657280802726,0.029427023883908984
1772642725469733400,4.8957333984375,0.032955928662419316,-0.06449439174234867,0.01790288256779313
1772642725479775500,4.905775390625,0.027668051387369632,-0.059654550495743745,-0.005818330889940261
1772642725489816300,4.91581640625,0.05229337407797575,-0.05786415994763374,-0.02146525122448802
1772642725499858400,4.9258583984375,0.042780864845216274,-0.04552607190012931,-0.01795169014558196
1772642725509899300,4.935899169921875,0.04333353029191494,-0.03103694329857826,-0.018252280527353285
1772642725519941400,4.94594140625,0.06193360134363174,-0.02940086652934551,-0.03492795938774943
1772642725529982200,4.955982177734375,0.06269143397361039,-0.0341506914049387,-0.0327843714877963
1772642725540024300,4.9660244140625,0.06089022977054119,-0.01667173333764076,-0.02709463541358709
1772642725550065400,4.9760654296875,0.05607610748708248,-0.0162082074791193,-0.031408260829001666
1772642725560107500,4.986107421875,0.06261340030133723,-0.002131166809797287,-0.03724310446232557
1772642725570148400,4.9961484375,0.050097033077478405,-0.0007119476616382598,-0.04097220798805356
1772642725580190500,5.0061904296875,0.0432002593010664,-0.004208557605743408,-0.03925488267615437
1772642725590231300,5.016231201171875,0.04176467353999615,-0.009461071306467056,-0.031173283029347656
1772642725600273400,5.0262734375,0.05326806432902813,-0.01821545564830303,-0.01702230034098029
1772642725610314500,5.036314453125,0.026650106516480445,-0.03158931648433208,0.0005326455719769001
1772642725620356400,5.0463564453125,0.02815612716525793,-0.03833937526643276,0.002288403198122978
1772642725630397400,5.0563974609375,0.023745324985682964,-0.05277648141980171,-0.020444091483205556
1772642725640439600,5.066439453125,0.027735563665628432,-0.05471709409356117,-0.025010376485437153
1772642725650480400,5.07648046875,0.029811493156850336,-0.07235211950540542,-0.008357932370156048
1772642725660522500,5.0865224609375,0.02488397362679243,-0.06528817246854304,-0.007257423782348633
1772642725670563600,5.0965634765625,0.02225713225454092,-0.07893149789571761,0.006388531993329525
1772642725680605400,5.10660546875,0.01393909350335598,-0.08367080137729645,0.010862900928407906
1772642725690646500,5.116646484375,-0.007468143923580646,-0.08707213425338267,0.011357844838500022
1772642725700688400,5.1266884765625,-0.005612579184770584,-0.08632160814702511,0.009065788378566503
1772642725710729500,5.1367294921875,-0.0025587445721030233,-0.07275660865306854,0.0028916297882795334
1772642725720771300,5.146771240234375,0.0007534487158060073,-0.07407470551431179,0.02410977438390255
1772642725730812400,5.1568125,0.009297989699244499,-0.08707681042850017,0.023685557622462508
1772642725740854500,5.1668544921875,0.02608165897876024,-0.09188041131794453,0.018058511520922183
1772642725750895400,5.176895263671875,0.021432371868193148,-0.06237082371711731,0.0028274785108864304
1772642725760937200,5.186937255859375,0.01716945372670889,-0.07070552134215831,0.021072598645091055
1772642725770978300,5.196978271484375,-0.003570259702205658,-0.07704933741092682,0.02495923082008958
1772642725781020200,5.207020263671875,0.005747603741288185,-0.054879006657004355,0.011819617131352425
1772642725791061200,5.217061279296875,0.01210252572596073,-0.04177344136834144,0.005656564456969499
1772642725801103400,5.227103271484375,0.02437280923426151,-0.040810149294137954,0.01443622937053442
1772642725811144400,5.23714453125,0.035007015973329544,-0.04011281467974186,0.014297259291261433
1772642725821186300,5.247186279296875,0.04268354195058346,-0.034686697977781296,0.007078267823159694
1772642725831227400,5.257227294921875,0.03679360712915659,-0.04076747919619083,0.020372341421246526
1772642725841269200,5.267269287109375,0.028518238475918768,-0.050696752536296845,0.02146890448629856
1772642725851310300,5.277310302734375,0.018883564168214798,-0.04761164600253105,0.009295943872630595
1772642725861352200,5.287352294921875,0.009923428121209143,-0.03940378962755203,0.0195195239841938
1772642725871393300,5.297393310546875,0.020523148068785666,-0.05106500132679939,0.014955284808576106
1772642725885200400,5.311200439453125,0.03577683130204677,-0.051715574190020555,-0.013678542871028184
1772642725895241200,5.3212412109375,0.030624270844459532,-0.05655658448040485,-0.01604132647961378
1772642725905283300,5.331283447265625,0.018573475305736064,-0.0688590166926384,-0.03187237120941281
1772642725915324200,5.34132421875,0.003229483440518379,-0.0733726947247982,-0.023657354441285132
1772642725925366300,5.3513662109375,-0.0020025719940662385,-0.06958148574829101,0.0064032911710441105
1772642725935407000,5.361406982421875,0.0035492169141769407,-0.05785246950984001,0.01654649952277541
1772642725945448200,5.3714482421875,0.009407003031671047,-0.05251578465700149,0.009251666339486837
1772642725955490300,5.381490234375,0.016143910071253775,-0.05283551813066006,0.017454992669820785
1772642725965531400,5.391531494140625,0.021690438282489774,-0.05222878440916538,0.025202976448088884
1772642725975573200,5.4015732421875,0.019474808059632778,-0.057142275413870805,-0.0022679449319839475
1772642725985614300,5.4116142578125,-0.0006768763482570648,-0.06659165628254413,0.019799802230298518
1772642725995656200,5.42165625,-0.005291676667332649,-0.06924421661794185,0.0063899932980537415
1772642726005697300,5.431697265625,0.005627192232012748,-0.06812836433053017,-0.012775456551462411
1772642726015739100,5.4417392578125,0.02214256596416235,-0.06860533419251441,-0.013552724534273147
1772642726025780200,5.4517802734375,0.006935352221131325,-0.06650573156476021,-0.00029430677145719526
1772642726035822300,5.461822265625,0.026844752305746077,-0.07341127316951751,0.007949059308320284
1772642726045863400,5.471863525390625,0.014041969355940818,-0.05704115312695503,0.01430938812047243
1772642726055905300,5.4819052734375,-0.0030339608684182167,-0.060332595887780185,0.018140929107367993
1772642726065946400,5.4919462890625,0.032304479016363616,-0.05588730691671371,0.02430442017316818
1772642726075988200,5.50198828125,0.027844284737110137,-0.03887012114226818,0.03254953981861472
1772642726086029300,5.512029296875,0.04754939442127943,-0.021838906842470168,0.008529927936196327
1772642726096071200,5.5220712890625,0.03716039461493492,-0.03695698099732399,0.01995528505295515
1772642726106112300,5.5321123046875,0.012706921359896659,-0.03979425024986267,0.014418255322426557
1772642726116154000,5.542154052734375,0.027886954835057258,-0.04703296933174133,0.016676701773703097
1772642726126195200,5.5521953125,0.0309568637996912,-0.049724108111858366,0.01888210286349058
1772642726136237300,5.5622373046875,0.03982406086623668,-0.0578963086515665,0.013220862231403589
1772642726146278400,5.5722783203125,0.03987959044575691,-0.055126843938231467,0.012878186273574828
1772642726156320300,5.5823203125,0.053961307290196416,-0.035523148801922796,0.015330401731282473
1772642726166361300,5.592361328125,0.04871259298175573,-0.028137130203843116,0.01938274586200714
1772642726176403200,5.6024033203125,0.02994768675714731,-0.03953881418406963,0.009943155734986065
1772642726186444300,5.6124443359375,0.01922843208312988,-0.05179097751379013,0.02350450196713209
1772642726196486100,5.622486083984375,0.03969605057239532,-0.06141922208070755,0.03385696915537119
1772642726206527200,5.63252734375,0.015512918691337108,-0.06401859092414379,0.03959770476445555
1772642726216569000,5.642569091796875,0.02606120071262121,-0.06631225481927394,0.039587767892330886
1772642726226610200,5.652610107421875,0.03454349011480808,-0.07369710437357425,0.011965016951411962
1772642726236652300,5.66265234375,0.04163549420237541,-0.05913841766715049,-0.00390782109349966
1772642726246693400,5.672693359375,0.02304360645711422,-0.04849953475296497,0.013003420088440179
1772642726256735200,5.6827353515625,0.056093058621883386,-0.02456687050163746,0.014275047459453344
1772642726266777300,5.69277734375,0.06604366701096295,-0.05957914717197418,-0.0009219371505081653
1772642726276818200,5.702818115234375,0.08035276287049055,-0.038439328509569166,0.009531213933229445
1772642726286859300,5.712859375,0.08221329604536294,-0.029064766442775725,0.009247866947203875
1772642726296901000,5.722901123046875,0.0885609115064144,-0.030558804392814633,0.01848608928322792
1772642726306942200,5.732942138671875,0.05048486335128546,-0.02901274399459362,0.007012801371514797
1772642726316984000,5.742984130859375,0.02943886045217514,-0.038381460842490195,0.01599880251213908
1772642726327025200,5.753025146484375,0.027330489996075628,-0.04433072463572025,0.03669438453838229
1772642726337067300,5.7630673828125,0.015030395871400832,-0.05118775092363357,0.050673225530236954
1772642726347108400,5.7731083984375,0.02058744547665119,-0.07255494860112667,0.05120893984213471
1772642726357150200,5.783150146484375,0.04681406588405371,-0.058254036048054694,0.06398249669745563
1772642726367191300,5.79319140625,0.052985447995364664,-0.05388941109776497,0.05478051471859216
1772642726377233200,5.803233154296875,0.04284837712347507,-0.042594110101461406,0.04574234499931335
1772642726387274200,5.813274169921875,0.042481881898641584,-0.04514379458427429,0.0353159357920289
1772642726397316000,5.823316162109375,0.008447510349750519,-0.06417582731246949,0.02605754745081067
1772642726407357200,5.833357177734375,0.02207797629535198,-0.07534428705871105,0.025883067666739226
1772642726417399300,5.8433994140625,0.03588642915636301,-0.06952829425632953,-0.0035797581829130646
1772642726427440000,5.853440185546875,0.011775193467736244,-0.07351239545643329,0.008413608080148696
1772642726437482200,5.863482177734375,0.01386369017958641,-0.048238837990164755,-0.03537862576469779
1772642726447523300,5.8735234375,0.02466185530871153,-0.04683773902058601,-0.0341615050598979
1772642726457565200,5.883565185546875,0.026962825727462766,-0.03634557110071182,-0.05566913412138819
1772642726467606300,5.893606201171875,0.014988310295343399,-0.03645195408463478,-0.055691199822723865
1772642726477648400,5.9036484375,0.029529169084131716,-0.05287000492215156,-0.03708148415982723
1772642726487689200,5.913689208984375,0.047096389956772323,-0.03192190943956375,-0.0477861257866025
1772642726497731300,5.9237314453125,0.06079553722441196,-0.018935002094507217,-0.05751403133571147
1772642726507772200,5.933772216796875,0.06150836166888475,-0.009615385085344314,-0.062248950903117654
1772642726517814300,5.943814208984375,0.06193798525780439,0.014962006810307502,-0.06358502181246876
1772642726527855000,5.953855224609375,0.042890170438587664,0.016477087548375128,-0.06256999955102802
1772642726537897500,5.9638974609375,0.016005086122453212,-0.01191957037448883,-0.04349208185449242
1772642726547938300,5.973938232421875,0.01909779144078493,-0.01872749682366848,-0.038312048868089914
1772642726557980400,5.98398046875,0.042273207584023476,-0.03661678925752639,-0.012065116325020789
1772642726568021200,5.994021240234375,0.023706454280018805,-0.032689386680722236,-0.007777209872752428
1772642726578063400,6.0040634765625,0.04392915809750557,-0.028735680618882178,-0.00927592399790883
1772642726588104200,6.014104248046875,0.028671383211016654,-0.043377369433641434,-0.01310015846118331
1772642726598146300,6.024146240234375,0.029442952105402945,-0.03796586577892303,-0.008937485823780298
1772642726608187100,6.034187255859375,0.01651800408065319,-0.042077977272868154,-0.006746843911707401
1772642726618229500,6.0442294921875,0.012928455156087875,-0.06428337934017181,-0.007951543526351452
1772642726628270300,6.054270263671875,0.019569500605762003,-0.07187982581853866,0.003239858704060316
1772642726638312400,6.0643125,0.023470891958475112,-0.08750584949553013,0.0011287117689847946
1772642726648353300,6.074353271484375,0.03041910366117954,-0.0785574038863182,0.009680267015099525
1772642726658394400,6.084394287109375,0.020584230606257914,-0.061575289425253865,0.01082052309140563
1772642726668436200,6.094436279296875,0.032094343397021295,-0.06297112769782542,0.0061640755876898766
1772642726678477300,6.104477294921875,0.029564532658457755,-0.05916179854273796,-0.007236527124792337
1772642726688519200,6.114519287109375,0.028575521621108053,-0.05998480536341667,0.01578121423870325
1772642726698560300,6.124560302734375,0.030407413223385808,-0.0543237108618021,0.023650632439553735
1772642726708602000,6.13460205078125,0.0238178057000041,-0.048370355415344235,0.012176760005950927
1772642726718643200,6.144643310546875,0.02875526210218668,-0.043375615867972374,0.008394026596844196
1772642726728685300,6.154685302734375,0.03748451200276613,-0.018512392768263816,-0.0019786065965890884
1772642726738726400,6.164726318359375,0.04153028026223182,-0.013367431095242499,0.001130611465126276
1772642726748768300,6.174768310546875,0.016532617127895353,-0.016803250762820243,-0.0020421733520925044
1772642726758809900,6.184809814453125,0.00770107589662075,-0.030073066702485083,-0.004550795172154903
1772642726768851700,6.194851806640625,0.033578736735880375,-0.04661211357116699,0.006124181968718767
1772642726778892800,6.204892822265625,0.05178016385883093,-0.06558043341338635,0.005229571216553449
1772642726788934700,6.2149345703125,0.03505377772450447,-0.060680386412143704,-0.011373188538104295
1772642726798975700,6.224975830078125,0.027005495825409887,-0.052992754518985746,-0.011949380990862846
1772642726809017600,6.235017578125,0.04141922110319137,-0.05251812274456024,0.003687894732505083
1772642726819058700,6.24505859375,0.028494857600331304,-0.05609948836266994,0.0076738956287503235
1772642726829100500,6.2551005859375,0.015229425574839115,-0.06564063916802405,0.009178893364220857
1772642726839141600,6.2651416015625,0.025946342161297795,-0.07827800242304801,0.00148161685988307
1772642726849183700,6.275183837890625,0.030455636279284954,-0.07870704149007797,-0.027560791620612143
1772642726859224800,6.285224853515625,0.0030523733079433437,-0.06552490383386611,-0.01744505579769611
1772642726869266700,6.2952666015625,0.0033142391145229337,-0.058085693743824954,-0.026786153986304996
1772642726879307800,6.305307861328125,0.009713000240921973,-0.05362520720362663,-0.02079422009512782
1772642726889349600,6.315349609375,0.034191607937216754,-0.050515550750494,-0.027540771745890376
1772642726899390700,6.325390625,0.01780687484741211,-0.04598141445219516,-0.017398001785576343
1772642726909432600,6.3354326171875,0.019082301610708237,-0.06972703169882297,-0.013836509911715984
1772642726919473700,6.3454736328125,0.008541326113045216,-0.059601943525671955,-0.012555676320940255
1772642726929515500,6.355515625,0.021723171508312225,-0.06174012459814548,-0.010143792873620987
1772642726939556600,6.365556640625,0.02630962251573801,-0.05716682533323764,-0.021051555857062337
1772642726949598700,6.3755986328125,0.03774374746084213,-0.03555997368097305,-0.027708091136813162
1772642726959639800,6.385639892578125,0.04046995755434036,-0.028379706788063046,-0.02553206227198243
1772642726969681700,6.395681640625,0.02655453718751669,-0.011911971589922904,-0.02197568496465683
1772642726979722800,6.40572265625,0.020963293051719664,-0.032298926058411594,-0.015241700534522533
1772642726989764600,6.4157646484375,0.01222849019318819,-0.027443887242674825,-0.0007245148822665214
1772642726999805700,6.4258056640625,0.019655717584490775,-0.03126373779177666,0.004346650902181864
1772642727009846800,6.4358466796875,0.04461480227410793,-0.026233926931023596,-0.006065291388332844
1772642727019888600,6.445888671875,0.04026186776161193,-0.03556172724664211,-0.01783098637536168
1772642727029929700,6.4559296875,0.05093289937973022,-0.033353403547406194,-0.018186814075708387
1772642727039971600,6.4659716796875,0.039650457864999766,-0.03299684519469738,-0.02497092125788331
1772642727050012700,6.4760126953125,0.012647592388093471,-0.037062194937467575,-0.02871814496219158
1772642727060054800,6.4860546875,0.022288696436583995,-0.043137130936980246,-0.03193228470310568
1772642727070096000,6.496095947265625,0.03076426383703947,-0.03785013044476509,-0.03875862359181046
1772642727080137700,6.5061376953125,0.03202507755309343,-0.0388473247885704,-0.039058921712636946
1772642727090178800,6.5161787109375,0.027688801914453505,-0.046754736912250516,-0.026468174078315494
1772642727100220700,6.526220703125,0.030740006178617475,-0.041429742497205733,-0.031041911734640597
1772642727110261800,6.53626171875,0.02390928337574005,-0.04897065939605236,-0.025014029747247694
1772642727120303600,6.5463037109375,0.038547465059161186,-0.07183598667681217,-0.017311200284957886
1772642727130344700,6.5563447265625,0.04003039709329605,-0.0659264703720808,0.0021333587668836114
1772642727140386600,6.566386474609375,0.02689735927581787,-0.060977908053994175,-0.010290507867932319
1772642727150427600,6.576427734375,0.024374270538985728,-0.06000000293254852,-0.000881605140119791
1772642727160469800,6.5864697265625,0.03187573221027851,-0.05483867464661598,-0.016892244220525026
1772642727170510800,6.5965107421875,0.02206979298889637,-0.038110827207565305,-0.02481207743436098
1772642727180552700,6.606552734375,0.028268647629022595,-0.02392272737920284,-0.028425591756403443
1772642727190593800,6.61659375,0.020176818849146363,-0.0259592016428709,-0.03941577232629061
1772642727200635600,6.6266357421875,0.02420651275664568,-0.04236088586747646,-0.02601765383183956
1772642727210676700,6.6366767578125,0.03126139970421791,-0.04693710774183273,-0.027234336145222186
1772642727220718600,6.646718505859375,0.018108488142490387,-0.05656827491819858,-0.022819442312419412
1772642727230759700,6.656759765625,0.036169045490026475,-0.05253332031369209,-0.020894319468736648
1772642727240801500,6.666801513671875,0.03997106812149286,-0.052176177439093585,-0.03547434122413397
1772642727250842600,6.676842529296875,0.0384402052924037,-0.056956397452950475,-0.031109131751954552
1772642727260884700,6.686884765625,0.037516660706698894,-0.04217266981899738,-0.029194091910868882
1772642727270925800,6.69692578125,0.031930969528853895,-0.031142741760611534,-0.03982230730056763
1772642727280967700,6.7069677734375,0.021785423089563844,-0.034116204613447186,-0.03688084702119231
1772642727291008800,6.7170087890625,0.007434533914923667,-0.04441489578783512,-0.04118701978251338
1772642727301050600,6.727050537109375,0.011213467931747436,-0.052287236598134036,-0.024078648593276738
1772642727311091700,6.737091796875,0.0026057985842227933,-0.05159340911507606,-0.026760142762213945
1772642727321133600,6.747133544921875,0.02982230681180954,-0.03823825297951698,-0.03184036863595247
1772642727331174700,6.757174560546875,0.03233633545935154,-0.052529228660464285,-0.025033465100079772
1772642727341215500,6.767215576171875,0.03520575341582298,-0.04227379210591316,-0.02832388494759798
1772642727351257900,6.7772578125,0.02273468663841486,-0.03934183030724525,-0.02868336590975523
1772642727361298700,6.787298583984375,0.019084931959211824,-0.046917818519473076,-0.022241934685409068
1772642727371340800,6.7973408203125,0.004053074783086776,-0.0622357991605997,-0.012764058374613522
1772642727381381600,6.807381591796875,0.01799684446156025,-0.06302373466789722,-0.024861615664511918
1772642727391423700,6.817423828125,0.013233575582504271,-0.07194470774829387,-0.0026980069123208523
1772642727401464600,6.827464599609375,0.02357026067972183,-0.060787938439846034,0.004736819263547658
1772642727411506700,6.837506591796875,0.038023733446002,-0.04549567676186561,-0.008020809370279311
1772642727421547800,6.8475478515625,0.025143209084868428,-0.050114568734169,0.0066026131354272365
1772642727431589600,6.857589599609375,0.013750877454876898,-0.05116261648237705,0.0005230009607970714
1772642727441630700,6.867630615234375,0.0018868366599082945,-0.04306757283210754,-0.002538724697381258
1772642727451672800,6.8776728515625,0.008028992676734924,-0.04373860396146774,-0.0037698739275336263
1772642727461713700,6.887713623046875,0.018259587050974368,-0.06928630219399928,-0.015619009414315222
1772642727471755800,6.897755859375,0.007887246118485926,-0.05137479792833328,-0.007229805123060941
1772642727481796900,6.907796875,0.02450666474699974,-0.051767012116312974,-0.0002478372812271118
1772642727491838700,6.917838623046875,0.02907061166167259,-0.0551689295142889,-0.013388035491853951
1772642727501879800,6.9278798828125,0.006006254677474498,-0.051743631240725514,-0.023217063327878713
1772642727511921700,6.937921630859375,0.017860943122208116,-0.06838263135254383,-0.013253741587698459
1772642727521962800,6.947962646484375,0.007918225778639315,-0.048052375507354736,-0.016409575270116328
1772642727532004600,6.958004638671875,-0.00530512067079544,-0.049886605197191236,-0.0029831074640154836
1772642727542045700,6.968045654296875,0.016558920612931252,-0.03974865754246711,-0.000499620085209608
1772642727552087800,6.978087890625,0.02755231605321169,-0.04484568842053413,0.0028176877692341804
1772642727562129000,6.98812890625,0.023465046739578246,-0.046478842580318445,0.023434651601314544
1772642727572170800,6.998170654296875,0.019357611420750615,-0.045458267360925675,0.0077209496408700935
1772642727582211800,7.0082119140625,0.019851532417535782,-0.06625029549896716,0.01118453409820795
1772642727592253700,7.018253662109375,0.014414309799671171,-0.07742226237654685,0.006733984430134296
1772642727602294800,7.028294677734375,0.013495733650028706,-0.07525719329714775,-0.0039048984840512274
1772642727612336600,7.038336669921875,0.007052256599068641,-0.0635778614193201,0.0023468553870916366
1772642727622377700,7.048377685546875,-0.0028840310037136076,-0.05902443589866161,-0.001887128920853138
1772642727632419600,7.058419677734375,-0.00135024556517601,-0.0652332274109125,-0.0004889525607228278
1772642727642460700,7.068460693359375,0.025560849975049493,-0.057979310759901995,0.009949000953882932
1772642727652501500,7.07850146484375,0.023866028755903244,-0.06430792925953864,0.02102072232738137
1772642727662544000,7.0885439453125,0.006565642125904559,-0.06940262205004692,0.020272388178110123
1772642727672584700,7.098584716796875,0.007926409085094928,-0.06720306617915629,0.01725567070543766
1772642727682626800,7.108626708984375,0.006790975314378738,-0.05397358224987983,0.009199351630359887
1772642727692667600,7.118667724609375,0.026682839742302893,-0.057228784653544425,0.0006961655706167221
1772642727702709800,7.128709716796875,0.03005173165351152,-0.03788403271436691,-0.006000263328105211
1772642727712750600,7.13875048828125,0.019635551579296587,-0.025986089649796484,-0.01293254680931568
1772642727722792700,7.148792724609375,0.037655192394554615,-0.03308393895626068,-0.011074790113419294
1772642727732833500,7.15883349609375,0.01190612637102604,-0.042484804508090016,-0.009434329430013894
1772642727742875600,7.168875732421875,0.020621932268142698,-0.03507014433741569,-0.01371551388055086
1772642727752916500,7.17891650390625,0.023348726883530617,-0.042459670066833495,-0.012667466132342814
1772642727762958800,7.188958740234375,0.036605098819732666,-0.035627193698287006,-0.024266133989393708
1772642727772999700,7.198999755859375,0.038927404287457466,-0.017082067704200742,-0.03073971391767263
1772642727783041800,7.209041748046875,0.04830956513881683,-0.020328502279520034,-0.03343772082999349
1772642727793082600,7.21908251953125,0.042533319824934,-0.023691256710886954,-0.022649200312048194
1772642727803124700,7.229124755859375,0.015169804342091083,-0.03759118724763393,-0.031031682601571083
1772642727813165600,7.23916552734375,0.03129764006137848,-0.05948737723529338,-0.039599312199652195
1772642727823207700,7.249207763671875,0.029849487079679965,-0.056118777585029596,-0.04580035879686475
1772642727833248500,7.25924853515625,0.04287468060851097,-0.0447469042211771,-0.04206657909601927
1772642727843290600,7.26929052734375,0.058151160195469856,-0.03928688524961471,-0.03205401138663292
1772642727853331500,7.27933154296875,0.053312195731699465,-0.030623101800680157,-0.033898762470483776
1772642727863373800,7.289373779296875,0.06100421153903007,-0.020528408765792844,-0.04333674516230821
1772642727873414700,7.29941455078125,0.04628653487861156,-0.036922494205832476,-0.039974867513775825
1772642727883456800,7.309456787109375,0.03919686887860298,-0.04415127641558647,-0.02501169165968895
1772642727893497600,7.31949755859375,0.02922872483283281,-0.058981765800714486,-0.017813158457726238
1772642727903539700,7.329539794921875,0.036442601734399796,-0.068104398933053,-0.016220336308330297
1772642727913580500,7.33958056640625,0.03434709075987339,-0.07341945647597313,-0.01690598048493266
1772642727923622700,7.34962255859375,0.034252398213744165,-0.05550736768841743,-0.013523352309316396
1772642727933663500,7.35966357421875,0.0259855051279068,-0.06373626685142517,-0.008983078531175852
1772642727943704600,7.36970458984375,0.03437923946380615,-0.05203647670745849,0.0024981004260480402
1772642727953746400,7.379746337890625,0.036821664179861546,-0.05899170267283916,0.011516396401077508
1772642727963787500,7.38978759765625,0.029721769046783447,-0.06307751068174838,0.014023264655470847
1772642727973829600,7.39982958984375,0.0294710091561079,-0.05683540142178535,0.010462503433972597
1772642727983870700,7.40987060546875,0.02848725881576538,-0.05041559750735759,0.014556933140754699
1772642727993912600,7.41991259765625,0.038600656551122665,-0.06778057380616664,0.010133125349134206
1772642728003953700,7.42995361328125,0.02536152801066637,-0.055621933978796,0.023082477162778375
1772642728013995500,7.43999560546875,0.03797200325876474,-0.03192483204901218,0.01775309883356094
1772642728024036600,7.45003662109375,0.03652764966934919,-0.029867314997315406,-0.0021036942809820173
1772642728034078700,7.46007861328125,0.062251873512566086,-0.011691606837511062,0.005422463440150022
1772642728044119600,7.47011962890625,0.04601034828573465,-0.003143558722734451,0.009693857149034738
1772642728054161700,7.48016162109375,0.03924041575938463,0.004155366113781929,0.01544569867402315
1772642728064202500,7.490202392578125,0.032139643843472,-0.007719196075201034,0.020689882937818763
1772642728074244900,7.500244873046875,0.03010024697035551,-0.027495325168967244,0.029158874467015265
1772642728084285700,7.51028564453125,0.04822276363819837,-0.05443827715218067,0.01876125296279788
1772642728094327800,7.520327880859375,0.034652211186289784,-0.05388707301020622,0.03783215639665723
1772642728104368600,7.53036865234375,0.031300270409882064,-0.05635667799413204,0.015551789397001265
1772642728114410800,7.54041064453125,0.022647592876851558,-0.042830841466784474,0.01583645155727863
1772642728124451600,7.55045166015625,0.007511690804362297,-0.056253217619657514,0.011013415315002202
1772642728134493700,7.56049365234375,-0.004876666125655174,-0.0578875408232212,0.022801760525256395
1772642728144534500,7.570534423828125,-0.002696399477124214,-0.05902969659566879,0.024536621493846177
1772642728154576600,7.58057666015625,0.016747721183300018,-0.04926467390656471,0.008669044145941733
1772642728164617500,7.590617431640625,0.006525017854571342,-0.07387655259370804,0.007732055556774139
1772642728174659800,7.600659912109375,0.012744038499891757,-0.06785013191103935,0.004920213006436825
1772642728184700700,7.61070068359375,0.005275894576311111,-0.08486790220737457,0.020960954964160918
1772642728194742800,7.62074267578125,0.023485212744772433,-0.07599310635626316,0.016943536016345025
1772642728204783600,7.63078369140625,0.014556056357920169,-0.0862912130087614,0.009488397704809904
1772642728214825700,7.64082568359375,0.035786475913226604,-0.06633271308541297,-0.013238397888094186
1772642728224866600,7.650866455078125,0.03638531858921051,-0.05978782148659229,-0.012746814978867769
1772642728234907600,7.66090771484375,0.03098199824094772,-0.04565349767208099,-0.02372092119678855
1772642728244949500,7.670949462890625,0.02558101598024368,-0.04293547088503837,-0.013500848216563463
1772642728254990600,7.680990478515625,0.03702420101463794,-0.03450666523575783,-0.011967647299915552
1772642728265032400,7.691032470703125,0.03129354840815067,-0.030505612900853154,-0.015060644879192113
1772642728275073800,7.70107373046875,0.01731616872102022,-0.030940497186779974,-0.016141133592277764
1772642728285115600,7.71111572265625,0.019588205306231975,-0.030406828701496122,-0.018051497258245945
1772642728295156700,7.72115673828125,0.02373451133072376,-0.03376490695774555,-0.018272884923964738
1772642728305198600,7.731198486328125,0.03464928857684135,-0.044748657786846155,-0.021002163757383823
1772642728315239700,7.74123974609375,0.057494449852406974,-0.04805179098546505,-0.023200550584495067
1772642728325281500,7.751281494140625,0.05061871886402368,-0.016842413729429243,-0.022836539577692747
1772642728335322600,7.761322509765625,0.042758653013408185,-0.02861000841259956,-0.020338731412589548
1772642728345364500,7.771364501953125,0.013012918569147587,-0.030665187376737593,-0.01393470958918333
1772642728355405600,7.781405517578125,0.014593173497915267,-0.04633037402033806,-0.0025252806939184665
1772642728365447700,7.79144775390625,0.012715104666352272,-0.05628828893303871,0.01307458562850952
1772642728375488800,7.80148876953125,0.043808162066340445,-0.0544978983849287,0.00002396539747714996
1772642728385530600,7.811530517578125,0.04211363310813904,-0.060309215012192725,0.003045651306211948
1772642728395571700,7.82157177734375,0.02027414174377918,-0.05742927566170692,0.01895297614261508
1772642728405613600,7.831613525390625,0.017836977724730967,-0.05698796163499355,0.010319733962416647
1772642728415654700,7.841654541015625,0.01922638625651598,-0.059974868491291994,0.01210778642296791
1772642728425696500,7.851696533203125,0.007423720259964466,-0.06153554193675518,0.01247793490961194
1772642728435737600,7.861737548828125,0.021623802787065504,-0.05462941581010818,0.0266390006005764
1772642728445779500,7.871779541015625,0.03696399526000023,-0.060413844430446624,0.0230117500141263
1772642728455820500,7.881820556640625,0.04783639466911554,-0.06449380722045898,0.008143705097585916
1772642728465862700,7.891862548828125,0.02948503768146038,-0.06215104348659515,0.012099456986039876
1772642728475903700,7.90190380859375,0.00964168857038021,-0.06509878737628459,0.030180472599714993
1772642728485945600,7.911945556640625,0.01305675771087408,-0.06187748724222183,0.010037848281115293
1772642728495986700,7.921986572265625,0.022145488573610782,-0.04977963769137859,0.015176380213350056
1772642728506027800,7.93202783203125,0.003023439474403858,-0.048801148048043246,0.015637129592895507
1772642728516069600,7.942069580078125,0.022964403741061686,-0.04716273319125175,0.0031616789013147353
1772642728526110700,7.95211083984375,0.04314209937304258,-0.04376198483705521,0.011550883192569016
1772642728536152600,7.962152587890625,0.03426204282492399,-0.045055531778931616,-0.0013474690861999988
1772642728546193700,7.972193603515625,0.03032324207127094,-0.04573942238986492,-0.005323971501737833
1772642728556235500,7.982235595703125,0.014507248780131338,-0.04505144012570381,-0.01298851478025317
1772642728566276600,7.992276611328125,0.012302139951288699,-0.0578659135133028,-0.01552285556346178
1772642728576318700,8.002318603515626,0.018737725956737995,-0.050206923192739485,-0.010189531711488961
1772642728586359800,8.01235986328125,0.030522564035654065,-0.053417117410898204,-0.004793371756374835
1772642728596401700,8.022401611328124,0.046649815233051777,-0.044810617107152936,-0.019860738637298345
1772642728606442800,8.03244287109375,0.042055180919170376,-0.05444295332729816,-0.026943974896520374
1772642728616484600,8.042484619140625,0.028227731096744535,-0.047746086037158963,-0.025057430497556925
1772642728626525700,8.052525634765624,0.02753741074502468,-0.026910218757390976,-0.007347878544777631
1772642728636567600,8.062567626953125,0.03841711667776108,-0.032896307429671284,-0.012342033570259809
1772642728646608600,8.072608642578125,0.03008183453083038,-0.03890636149942875,0.012774141377210616
1772642728656650500,8.082650390625,0.01987549781501293,-0.038404841718077655,0.00691635525971651
1772642728666691600,8.092691650390625,0.015439561194181441,-0.05072422506511211,-0.0005481354020535946
1772642728676733700,8.102733642578125,0.0047691140979528425,-0.06782382842600346,-0.006046148296445608
1772642728686774800,8.11277490234375,0.013925649499893188,-0.05981061784029006,-0.004510463161766529
1772642728696816600,8.122816650390625,0.014423662149906157,-0.07168050385415553,0.009530191019922495
1772642728706857700,8.132857666015624,0.01294043785482645,-0.06833060890436173,0.006850158155709505
1772642728716899600,8.142899658203126,0.006914309433102607,-0.06501929239928722,0.014604571674764156
1772642728726940700,8.152940673828125,0.013397241711616515,-0.06438567067086697,0.014658639949560164
1772642728736982500,8.162982421875,0.024280454775691032,-0.055524903345108026,0.000782528679817915
1772642728747023600,8.173023681640625,0.04552607190012931,-0.03486263906657695,-0.003931494230031967
1772642728757065200,8.183065185546875,0.03026917379647493,-0.02373451133072376,0.004444119927287101
1772642728767106300,8.193106201171876,0.009395897115767002,-0.03801613466143608,0.005752572177350521
1772642728777147400,8.2031474609375,0.0172843122780323,-0.03747369834780693,0.0010952478908002375
1772642728787189200,8.213189208984375,0.007795476181805133,-0.06553250261843205,0.006093494569510221
1772642728797230300,8.223230224609376,0.011494915221631527,-0.06972878526449203,0.00335208690688014
1772642728807272200,8.233272216796875,0.03324175986647606,-0.061248541688919064,-0.007186842764168977
1772642728817313300,8.243313232421874,0.03793020994365215,-0.041104163804650304,-0.009465309090167283
1772642728827355400,8.25335546875,0.013961889857053756,-0.04349544285535812,-0.011352145750075577
1772642728837396500,8.263396484375,0.02374327915906906,-0.052523383441567414,-0.022316168965399265
1772642728847438300,8.273438232421874,0.018052374041080475,-0.058392567735910415,-0.009704524673521519
1772642728857479400,8.2834794921875,0.029532091693580148,-0.06231763222515583,-0.005266542226076126
1772642728867521300,8.293521240234375,0.04043722432851791,-0.07545300813019275,0.004193798428028822
1772642728877562400,8.303562255859376,0.04185702799856662,-0.08184475499391555,0.009413871163874864
1772642728887604200,8.313604248046875,0.02228840417563915,-0.05551555099487304,-0.0037158056527376174
1772642728897645300,8.323645263671875,0.041000118908286094,-0.047664837494492525,-0.01241582945883274
1772642728907687200,8.333687255859376,0.029424831926822662,-0.04305822048187256,-0.013127630989998577
1772642728917728300,8.343728271484375,0.028937925192713737,-0.043866029733419416,-0.035345308016985655
1772642728927770400,8.353770263671874,0.07564239322245121,-0.03952537018060684,-0.06680866003409028
1772642728937811500,8.3638115234375,-0.0181079036206007,-0.03353869698643684,-0.050396308284997936
1772642728947853300,8.373853271484375,-0.017126491367816923,-0.030662849289178847,-0.029954993280768394
1772642728957894400,8.383894287109374,-0.00017944822013378142,0.0015296937853097915,-0.017759674704819917
1772642728967936300,8.393936279296875,0.013227145841717719,-0.0027449147939682004,-0.03684709088206291
1772642728977977300,8.403977294921875,0.04093640602231025,-0.02314414422214031,-0.013908259973675011
1772642728988019200,8.414019287109374,0.0501584078758955,-0.040782092243432995,-0.011427402943372725
1772642728998060300,8.424060302734375,0.046129298490285874,-0.05124854120016098,-0.0027585049279034136
1772642729008102100,8.43410205078125,0.022747546119987964,-0.08567103528380393,0.007237550038099288
1772642729018143200,8.444143310546876,0.020175357544422148,-0.058196752902865405,-0.0029356150604784486
1772642729028184000,8.45418408203125,-0.0029445290192961692,-0.05427753363251686,-0.0026668811216950415
1772642729038226400,8.464226318359374,0.01616203024983406,-0.05308510897755622,-0.005581745655089616
1772642729048267300,8.474267333984375,0.012581249153614044,-0.04773264203369617,-0.011804711823165417
1772642729058309400,8.484309326171875,0.012842530438303947,-0.035631285351514816,0.0006499883413314818
1772642729068350200,8.49435009765625,0.02532791800200939,-0.04819090719521046,0.008352963934093714
1772642729078392300,8.504392333984375,0.028114918372035023,-0.055046764439344406,0.008232990816235542
1772642729088433200,8.51443310546875,0.027373744615912434,-0.05648001211285591,0.008024901023507117
1772642729098475300,8.524475341796874,0.016419219881296156,-0.052958267727494235,0.01827639205530286
1772642729108516000,8.53451611328125,0.024364333666861054,-0.04619125781059265,0.019769407092034817
1772642729118558200,8.54455810546875,0.024280454775691032,-0.05473112261891365,0.015918576882779596
1772642729128599000,8.55459912109375,0.014289222115278243,-0.0476747743666172,0.020493045191466806
1772642729138641400,8.564641357421875,0.03144990801364183,-0.04136778317689895,0.017572773830592633
1772642729148682200,8.57468212890625,0.034337738409638406,-0.03328735257387161,0.00539119151905179
1772642729158724400,8.584724365234376,0.017983108197152615,-0.05218085361421108,-0.000457534509152174
1772642729168765200,8.59476513671875,0.025136487083137034,-0.06375438703000545,-0.00022504092752933502
1772642729178807300,8.604807373046874,0.012471943560242652,-0.08440554539263248,-0.0002640577636659145
1772642729188848400,8.614848388671875,0.004439443752169609,-0.08505261112451552,-0.0012336334481835365
1772642729198890200,8.62489013671875,0.013365969790518283,-0.07314823831915855,0.01745908432304859
1772642729208931300,8.634931396484374,0.02521335171163082,-0.06547755756080151,0.008287497482448817
1772642729218973200,8.64497314453125,0.020304536882042885,-0.0722924982726574,0.017925240530073643
1772642729229014300,8.65501416015625,0.022934885385632514,-0.0581231031447649,0.014602818109095096
1772642729239056400,8.665056396484376,0.022903905725479123,-0.04988602067530155,0.013121201249212025
1772642729249097500,8.675097412109375,0.013610884462296961,-0.048990533140301704,0.01307268593236804
1772642729259138300,8.68513818359375,0.02212473804652691,-0.05140753115415573,0.008502163146436214
1772642729269180400,8.695180419921876,0.028857261171936988,-0.05386135404706001,0.006417173565924167
1772642729279221200,8.70522119140625,0.03664221595972776,-0.04419102390408516,0.007620996397733688
1772642729289263400,8.715263427734374,0.04148205720633268,-0.032788170880079265,-0.007458645442873239
1772642729299304200,8.72530419921875,0.030082126791775226,-0.030571079352498053,-0.02202916871756315
1772642729309346300,8.73534619140625,0.03803542388379574,-0.041785716328024865,-0.026833792520314453
1772642729319387100,8.74538720703125,0.016795651978254316,-0.03935410526692867,-0.028532851523160933
1772642729329429500,8.755429443359375,0.02198036113977432,-0.05492167675495147,-0.03099792646244168
1772642729339470300,8.76547021484375,0.043532267734408374,-0.044107437273859976,-0.0240716343306005
1772642729349512400,8.775512451171876,0.01741904457360506,-0.055209261524677276,-0.019433745396882293
1772642729359553300,8.78555322265625,0.0422241077452898,-0.027802199161052702,-0.011290624821186064
1772642729369595400,8.795595458984375,0.03498831127285957,-0.018442250141501425,-0.012209200970828532
1772642729379636200,8.80563623046875,0.04137304387390613,-0.014292144724726676,-0.017479104197770354
1772642729389678300,8.81567822265625,0.021924831560254095,-0.034064182165265085,-0.01556450274810195
1772642729399719200,8.82571923828125,0.002121229937672615,-0.04419394651353359,-0.019843787502497434
1772642729409761300,8.83576123046875,0.003016425211727619,-0.07141396187245845,-0.027131460292637348
1772642729419802000,8.845802001953125,0.013583411933481693,-0.07372574594616889,-0.025215397538244724
1772642729429844500,8.855844482421874,0.015854279474914072,-0.06781272251009941,-0.016513912427425382
1772642729439885300,8.86588525390625,0.03482522966563702,-0.07239771221280097,-0.015423779103159903
1772642729449927400,8.875927490234375,0.0195107561558485,-0.06051145958602428,-0.009650164137780666
1772642729459968300,8.88596826171875,0.03271978181898594,-0.03712824591100216,-0.014615823721140623
1772642729470010400,8.89601025390625,0.046265492090582845,-0.027805706292390823,-0.01669716003984213
1772642729480051200,8.90605126953125,0.04652706563621759,-0.025173604223132133,-0.013724866230785846
1772642729490092300,8.91609228515625,0.024780805513262748,-0.049450551867485044,-0.007493278364837169
1772642729500134100,8.926134033203125,0.017925532791018484,-0.0548030188113451,-0.003931055838614702
1772642729510175200,8.93617529296875,0.012111001293361186,-0.05923252569139004,-0.004287614191323518
1772642729520217000,8.946217041015625,0.016813187634944916,-0.043132454761862754,-0.007727087120711803
1772642729530258200,8.956258056640625,0.006435586005449295,-0.04153086478412151,-0.004155804505199194
1772642729540300300,8.96630029296875,0.016478548853099344,-0.05057341841757297,-0.00406578813418746
1772642729550341400,8.97634130859375,0.025889059016108513,-0.04940846629142761,0.008180091585218907
1772642729560383200,8.98638330078125,0.018542203384637832,-0.05373918897211551,0.01720072564780712
1772642729570424300,8.99642431640625,0.024120295777916908,-0.06654372548758983,-0.004972527715563774
1772642729580466200,9.006466064453125,0.031242695003747937,-0.05845277349054813,-0.008895546378195285
1772642729590507300,9.01650732421875,0.03711889356076717,-0.032978725016117094,-0.007531272287666797
1772642729600549000,9.026549072265626,0.030099954709410667,-0.03418284010887146,-0.007465659705549478
1772642729610590200,9.036590087890625,0.02466916183233261,-0.0383767846673727,-0.0016948212191462515
1772642729620632000,9.046632080078124,0.01741290709376335,-0.04750117136538028,-0.002306231115758419
1772642729630673200,9.056673095703125,0.01447626911997795,-0.04557517173886299,-0.005209843602776527
1772642729640715300,9.06671533203125,0.016361352214217185,-0.053963060855865476,-0.0015313012205064296
1772642729650756400,9.07675634765625,0.008325929796695709,-0.06539630901813506,0.007749298952519893
1772642729660798200,9.086798095703125,0.011661211699247359,-0.06189268481135368,0.011649375130981207
1772642729670839300,9.09683935546875,0.012267653159797191,-0.05570785869657993,0.007324351538717746
1772642729680881200,9.106881103515626,0.02545943542718887,-0.05574994427263737,-0.014069149623811244
1772642729690922200,9.116922119140625,0.02354337267279625,-0.03957739262878895,0.0011916940025985241
1772642729700964000,9.126964111328125,0.025045301668345926,-0.048692426976561544,0.003234451876580715
1772642729711005200,9.137005126953126,0.027699323308467864,-0.03432078727483749,-0.01931537971422076
1772642729721046300,9.14704638671875,0.021551906594634056,-0.04913841717839241,-0.008686287541687487
1772642729731088100,9.157088134765624,0.031250293788313864,-0.05268880313634872,-0.014211919095367193
1772642729741129200,9.167129150390625,0.02655366040468216,-0.03888005801439285,-0.017251579052209854
1772642729751171300,9.17717138671875,0.02624035667181015,-0.03253624194562435,-0.013274053723365068
1772642729761212400,9.18721240234375,0.022325229054689404,-0.029977205112576483,-0.025229572194069624
1772642729771254500,9.197254638671875,0.018421791875362394,-0.03893266498446464,-0.010418372031301259
1772642729781295600,9.207295654296875,0.03185089002996683,-0.04401742090284824,-0.004823913025110959
1772642729791337500,9.21733740234375,0.01003039562702179,-0.05497662181258201,-0.0024628829821944235
1772642729801378600,9.227378662109375,0.028095629149675366,-0.05651859055757522,-0.00018105565533041952
1772642729811420400,9.23742041015625,0.026404022800922394,-0.05917641158998012,-0.005741320130974054
1772642729821461500,9.24746142578125,0.029326047727465627,-0.06431202091276646,0.002601414670050144
1772642729831503400,9.25750341796875,0.03517535827755928,-0.0686930124759674,0.0007638239793479442
1772642729841544400,9.26754443359375,0.025444530119001864,-0.056012979122996326,-0.017450754886120558
1772642729851586300,9.27758642578125,0.023536066149175167,-0.04222995296418667,-0.027525574176758525
1772642729861627400,9.28762744140625,0.002370528523623943,-0.05494038145542145,-0.018903145651519297
1772642729871669500,9.29766943359375,0.019421032045781612,-0.05745791723430156,-0.01954889620915055
1772642729881710600,9.307710693359375,0.025658172869682312,-0.043131285718083376,-0.009714315415173768
1772642729891751400,9.31775146484375,0.02500321609228849,-0.04336918612718582,-0.009627660045027733
1772642729901793500,9.32779345703125,0.028462708896398542,-0.03369651789665222,-0.010350859753042459
1772642729911834400,9.33783447265625,0.01706599335223436,-0.03391629812717437,-0.009255027340352535
1772642729921876500,9.34787646484375,0.02365092470049858,-0.04125613949596882,-0.012071692196279763
1772642729931917300,9.357917236328126,0.03355857073068619,-0.033814006796479223,-0.003428951535373926
1772642729941959400,9.36795947265625,0.03006312983036041,-0.027596447455883025,-0.03444339074119925
1772642729952000300,9.378000244140624,0.03455050437748432,-0.03431435753405094,-0.03441504142954945
1772642729962042400,9.38804248046875,0.04161445141434669,-0.02434066053032875,-0.02477013798877597
1772642729972083500,9.39808349609375,0.02846680054962635,-0.020578093126416206,-0.03862272225245833
1772642729982124300,9.408124267578126,0.02883621838390827,-0.03831950152218341,-0.02792991719394922
1772642729992166400,9.41816650390625,0.022513445103168488,-0.036621465432643885,-0.041320729164779184
1772642730002207500,9.42820751953125,0.015266834975779056,-0.04411328249275684,-0.045699674901366234
1772642730012249300,9.438249267578126,0.015052899964153765,-0.04444996710121631,-0.03555675881057978
1772642730022290400,9.44829052734375,0.025575170761346817,-0.04002513639628887,-0.03836071031540632
1772642730032332500,9.45833251953125,0.05526625240892172,-0.02298164713680744,-0.03843216811642051
1772642730042373400,9.468373291015626,0.04471738586574792,-0.031025837382674216,-0.033837241541594267
1772642730052415500,9.47841552734375,0.017499416333436966,-0.021691022804379463,-0.024857670141756532
1772642730062456300,9.488456298828124,0.008839140015840529,-0.04350771781504154,-0.02004661659821868
1772642730072498400,9.49849853515625,-0.007517536023259163,-0.051287119644880294,-0.03255202403664589
1772642730082539500,9.50853955078125,-0.0031628479450941083,-0.06958791548907757,-0.021917963428050278
1772642730092581600,9.51858154296875,0.029582652837038037,-0.0700876817047596,-0.011187018316239118
1772642730102622500,9.52862255859375,0.038997546914219854,-0.06948679320216178,-0.008514730367064476
1772642730112664600,9.53866455078125,0.05470365009009838,-0.06037175885438919,-0.0063471770696341984
1772642730122705400,9.548705322265626,0.04486673120856285,-0.06716565677821636,-0.005162058938294649
1772642730132747500,9.55874755859375,0.03189385238885879,-0.06626783115565776,-0.008672112885862589
1772642730142788400,9.568788330078124,0.026696576006710528,-0.051665305307507514,-0.004492342983186245
1772642730152830500,9.57883056640625,0.02497545130252838,-0.05813888523578643,-0.011616349644213915
1772642730162871300,9.588871337890625,0.023655016353726386,-0.044562779825925825,-0.009405249466001986
1772642730172913700,9.59891357421875,0.03906184432208538,-0.04431728063225746,-0.00883022605702281
1772642730182954500,9.60895458984375,0.028647417813539505,-0.039382746839523315,0.003112140671163797
1772642730192996600,9.61899658203125,0.02017272719591856,-0.04368248986005783,-0.008259148170799016
1772642730203037400,9.629037353515624,0.015506196689605713,-0.043595980620384216,-0.004499649506807327
1772642730213078500,9.63907861328125,0.011685761618614196,-0.05321954901218414,0.006832330238074064
1772642730223120400,9.649120361328125,0.013925649499893188,-0.06587094079256058,0.018070932611078023
1772642730233161500,9.659161376953126,0.037025954580307004,-0.07019114207923412,0.007418897954374551
1772642730243203300,9.669203369140625,0.05445581280887127,-0.05476210227906703,0.010578823290020228
1772642730253244400,9.679244384765624,0.045238487130403515,-0.03291150499880314,-0.0029711247652769086
1772642730263286300,9.689286376953126,0.014743980145454406,-0.029867899519205092,-0.023589549902081487
1772642730273328600,9.69932861328125,0.01853957303613424,-0.025573417195677756,-0.03579422082826495
1772642730283369500,9.709369384765624,0.024018004447221755,-0.03306523425579071,-0.033619507137686015
1772642730293411600,9.71941162109375,0.02206131742149591,-0.03154372377693653,-0.024966975735127923
1772642730303452400,9.729452392578125,0.04672054238170385,-0.01282324121594429,-0.03201031837537884
1772642730313494500,9.73949462890625,0.04020312331169843,-0.019489128845930098,-0.04394698601514101
1772642730323535400,9.749535400390625,0.039430677634477614,-0.030049101305007934,-0.02789703783765435
1772642730333577500,9.759577392578125,0.030830607071518898,-0.03739069623947144,-0.032887393470853565
1772642730343618300,9.769618408203126,0.03750175539851188,-0.05340601149499416,-0.014395020577311514
1772642730353660400,9.779660400390625,0.024623569124937055,-0.06842530145049094,-0.014500819039344786
1772642730363701200,9.789701171875,0.03283931654542684,-0.0570814851373434,0.0006128712013363837
1772642730373743600,9.79974365234375,0.03777151225060224,-0.05327507859170436,-0.015653496205806732
1772642730383784400,9.809784423828125,0.02248714161813259,-0.033221886122226714,-0.026637100904434916
1772642730393826600,9.81982666015625,0.01608224301189184,-0.0414092842310667,-0.023702216496318578
1772642730403867400,9.829867431640626,0.015744389359652996,-0.036409283986687656,-0.015022066434472799
1772642730413908500,9.839908447265625,0.0080322075471282,-0.06350771879255772,-0.014510755911469459
1772642730423950300,9.849950439453124,0.009886310981214046,-0.08337035712599754,0.008996376404166222
1772642730433991400,9.859991455078125,0.014325170211493968,-0.07055003851950169,0.01993146578595042
1772642730444033300,9.870033203125,0.02113952640146017,-0.06265607039928436,0.03732449913546443
1772642730454074400,9.880074462890626,0.026698037311434743,-0.056603346231579775,0.04333133833482861
1772642730464116200,9.8901162109375,0.023720775066316126,-0.04821896424591541,0.04238192865550518
1772642730474157300,9.9001572265625,0.02729980259686708,-0.06268705005943775,0.042929771796613926
1772642730484199400,9.910199462890626,0.023504794228076935,-0.07757774519920349,0.05625336375012994
1772642730494240500,9.920240478515625,0.04234393473267555,-0.07870236531496047,0.05737959130108356
1772642730504282400,9.930282470703125,0.046726095339655875,-0.05504734896123409,0.03922171105891466
1772642730514323500,9.940323486328126,0.036223113764822484,-0.041268414455652234,0.02960325723364949
1772642730524365300,9.950365234375,0.04802548750042915,-0.02967325372993946,0.03370236311554908
1772642730534406400,9.960406494140624,0.02688040814101696,-0.021485855621099472,0.022312661834061144
1772642730544448300,9.9704482421875,0.0708019674539566,-0.06026362230479717,-0.000187047004699707
1772642730554489300,9.9804892578125,0.08320815230160951,-0.026990298256278036,0.0021279519394040106
1772642730564531200,9.99053125,0.07097790854275227,0.00042728550136089324,0.008332213407009839
1772642730574572300,10.000572265625,0.031242402742803096,-0.018796470406651496,-0.007559183207899332
1772642730584614400,10.010614501953125,0.020707856985926625,-0.037222938457131385,-0.03057780135422945
1772642730594655500,10.020655517578126,0.012782324683666229,-0.040562896534800524,-0.07114931958690285
1772642730604697300,10.030697265625,0.01206862345635891,-0.02172726316154003,-0.08228796871677041
1772642730614738400,10.040738525390625,0.02714841142743826,-0.011300561693310738,-0.08432911915555596
1772642730624779500,10.050779541015626,-0.004905892220139503,-0.0048345805495977395,-0.0721677028492093
1772642730634821400,10.0608212890625,-0.016109423279762267,-0.06557751080393791,-0.03188888395279646
1772642730644862500,10.070862548828124,0.03814414495527744,-0.1391378370553255,0.06645078650712967
1772642730654904300,10.080904296875,0.14119535410702228,-0.02539104636609554,-0.07543021177649498
1772642730664945400,10.0909453125,0.12525018147826195,0.029709494087100028,-0.07877718411684036
