time,seconds_elapsed,z,y,x
1772642720629734700,0.055734619140625,-0.011949611827731133,0.014671627432107925,0.009647812694311142
1772642720639775700,0.065775634765625,-0.012060399167239666,0.016594430431723595,0.004751324653625488
1772642720649817600,0.075817626953125,-0.012541132047772408,0.01612592302262783,0.005378491245210171
1772642720659858700,0.085858642578125,-0.012577616609632969,0.012068064883351326,0.007230720017105341
1772642720669900500,0.095900634765625,-0.013086558319628239,0.010903098620474339,0.00868175644427538
1772642720679941600,0.105941650390625,-0.013375245034694672,0.012385147623717785,0.007953647524118423
1772642720689983500,0.1159833984375,-0.01371457427740097,0.011056873016059399,0.009554345160722733
1772642720700024600,0.126024658203125,-0.011888977140188217,0.009756984189152718,0.009852087125182152
1772642720710066700,0.136066650390625,-0.008535321801900864,0.010185105726122856,0.009305592626333237
1772642720720107800,0.146107666015625,-0.006957133300602436,0.006606082897633314,0.012369027361273766
1772642720730149600,0.156149658203125,-0.005222839768975973,0.00731916818767786,0.013239741325378418
1772642720740190700,0.166190673828125,-0.00208909809589386,0.006900519132614136,0.012160628102719784
1772642720750232300,0.176232421875,-0.0004292036755941808,0.007277899421751499,0.00788387656211853
1772642720760273200,0.186273193359375,0.000406229926738888,0.00704274233430624,0.0051749087870121
1772642720770315300,0.196315185546875,0.0014041275717318058,0.003241445403546095,0.005486619658768177
1772642720780356000,0.206356201171875,0.0018464785534888506,0.002617466729134321,0.007089309860020876
1772642720790398200,0.216398193359375,0.0029121581465005875,-0.0009328976739197969,0.010391101241111755
1772642720800439000,0.22643896484375,0.0042850179597735405,-0.006210217718034983,0.01414802111685276
1772642720810481200,0.236481201171875,0.003911024425178766,-0.007159149274230003,0.014250829815864563
1772642720820522000,0.24652197265625,0.002635370008647442,-0.011062543839216232,0.014976808801293373
1772642720830564400,0.256564453125,0.003652059007436037,-0.01497659832239151,0.013632303103804588
1772642720840605200,0.266605224609375,0.002841658890247345,-0.01797505095601082,0.011700712144374847
1772642720850647300,0.276647216796875,0.0015098550356924534,-0.016465680673718452,0.006507142912596464
1772642720860688100,0.286688232421875,0.0031655423808842897,-0.014276561327278614,0.0021973492112010717
1772642720870729200,0.296729248046875,-0.00033819815143942833,-0.010355104692280293,-0.0017973813228309155
1772642720880771000,0.30677099609375,-0.0030700687784701586,-0.006736134644597769,-0.0065971966832876205
1772642720890812200,0.316812255859375,-0.0068800076842308044,-0.0032390961423516273,-0.00886902678757906
1772642720900854000,0.32685400390625,-0.007099451497197151,-0.0027221764903515577,-0.007988319732248783
1772642720910896000,0.336896240234375,-0.010172676295042038,-0.003940990194678307,-0.004119263496249914
1772642720920937000,0.34693701171875,-0.008537761867046356,-0.004362835083156824,0.0011439415393397212
1772642720930978000,0.35697802734375,-0.009553855285048485,-0.0013754484243690968,0.002429869957268238
1772642720941020200,0.367020263671875,-0.009920306503772736,0.0011470976751297712,0.001119860913604498
1772642720951062300,0.377062255859375,-0.009744259528815746,0.005018901079893112,-0.0012851175852119923
1772642720961103000,0.38710302734375,-0.010523766279220581,0.008700455538928509,-0.004832714796066284
1772642720971144200,0.397144287109375,-0.011508314870297909,0.013690086081624031,-0.006080430932343006
1772642720981186000,0.40718603515625,-0.010777543298900127,0.015447773039340973,-0.004783737938851118
1772642720991227100,0.41722705078125,-0.010406494140625,0.017922619357705116,-0.0030379926320165396
1772642721001269000,0.42726904296875,-0.009301282465457916,0.01584508828818798,-0.004338947124779224
1772642721011310000,0.43731005859375,-0.008274633437395096,0.015425640158355236,-0.003216690616682172
1772642721021352000,0.44735205078125,-0.0047057312913239,0.013727609068155289,0.0007245212327688932
1772642721031394300,0.457394287109375,-0.003945301286876202,0.008628069423139095,0.003376078326255083
1772642721041435100,0.46743505859375,-0.003083768067881465,0.0067340293899178505,0.006273863837122917
1772642721051476200,0.477476318359375,-0.0016411435790359974,0.0062723783776164055,0.00581603217869997
1772642721061518000,0.48751806640625,-0.0016968036070466042,0.004707504529505968,0.00311372266151011
1772642721071559200,0.49755908203125,-0.0030945478938519955,0.00665710074827075,0.004145968705415726
1772642721081601000,0.50760107421875,-0.0035613998770713806,0.005980391521006823,0.0015885347966104746
1772642721091642000,0.51764208984375,-0.005002513062208891,0.0052241310477256775,0.00037284428253769875
1772642721101684000,0.52768408203125,-0.003997436258941889,0.002944198902696371,0.000992029206827283
1772642721111725000,0.53772509765625,-0.005187348462641239,0.0007360714953392744,0.0024422628339380026
1772642721121767200,0.54776708984375,-0.002196618588641286,-0.0017702295444905758,0.001972481142729521
1772642721131808000,0.55780810546875,-0.005272726062685251,-0.0013867527013644576,-0.0000507524237036705
1772642721141850000,0.56785009765625,-0.005183776840567589,0.00011021021055057645,-0.0006646111141890287
1772642721151891200,0.57789111328125,-0.005927938502281904,0.0016825927887111902,-0.0026986021548509598
1772642721161933000,0.58793310546875,-0.007955136708915234,0.002297783037647605,-0.003997692372649908
1772642721171974100,0.59797412109375,-0.008738948032259941,0.00481963949277997,-0.005749913863837719
1772642721182016300,0.608016357421875,-0.009322978556156158,0.003091514576226473,-0.00912893284112215
1772642721192057000,0.61805712890625,-0.0077379182912409306,0.0012616405729204416,-0.008257974870502949
1772642721202099200,0.62809912109375,-0.006208198610693216,-0.0005335962050594389,-0.008904057554900646
1772642721212140000,0.63814013671875,-0.007746231276541948,-0.0019056228920817375,-0.010368604212999344
1772642721222182100,0.64818212890625,-0.0053129009902477264,-0.0019535596948117018,-0.0079395342618227
1772642721232223000,0.658222900390625,-0.003654005704447627,-0.000298304483294487,-0.008756469003856182
1772642721242265300,0.668265380859375,-0.0047927736304700375,0.00025696458760648966,-0.007203579880297184
1772642721252306200,0.67830615234375,-0.003625764511525631,0.00100514676887542,-0.00277621834538877
1772642721262348300,0.688348388671875,-0.0025911263655871153,0.0009300456149503589,-0.001972476253286004
1772642721272389000,0.69838916015625,-0.00307916640304029,0.002231370657682419,-0.0021786082070320845
1772642721282431200,0.70843115234375,-0.0005462339031510055,0.0025906311348080635,-0.006672159768640995
1772642721292472000,0.71847216796875,-0.000801651447545737,0.0038061400409787893,-0.00945504941046238
1772642721302514200,0.72851416015625,0.0024836240336298943,0.0029701737221330404,-0.010313119739294052
1772642721312555000,0.738554931640625,0.004727271385490894,0.0038020554929971695,-0.012370250187814236
1772642721322597400,0.748597412109375,0.005818102043122053,0.000589750474318862,-0.012663197703659534
1772642721332638200,0.75863818359375,0.007100671995431185,0.0003225112450309098,-0.011048288084566593
1772642721342680300,0.768680419921875,0.005778145976364613,-0.0032234876416623592,-0.012458964250981808
1772642721352721200,0.77872119140625,0.006904801353812218,-0.005620802752673626,-0.013430335558950901
1772642721362763300,0.78876318359375,0.008365278132259846,-0.005889782216399908,-0.014459646306931973
1772642721372804000,0.79880419921875,0.01036179531365633,-0.0068383910693228245,-0.011729891411960125
1772642721382846200,0.80884619140625,0.011883526109158993,-0.012489086017012596,-0.008143145591020584
1772642721392887000,0.818886962890625,0.014645788818597794,-0.01499160099774599,-0.003258903045207262
1772642721402929200,0.82892919921875,0.015718508511781693,-0.015210513956844807,-0.0029539712704718113
1772642721412970000,0.838969970703125,0.015483962371945381,-0.013449175283312798,-0.003521264297887683
1772642721423012400,0.849012451171875,0.016633115708827972,-0.009366016834974289,-0.004678141325712204
1772642721433053200,0.85905322265625,0.014680357649922371,-0.007634366862475872,-0.004255614243447781
1772642721443095300,0.86909521484375,0.013794058002531528,-0.0056234137155115604,-0.0014121569693088531
1772642721453136100,0.87913623046875,0.009332303889095783,-0.004816737491637468,-0.00010466971434652805
1772642721463178200,0.88917822265625,0.009266524575650692,-0.0050002289935946465,-0.0011353131849318743
1772642721473219000,0.899218994140625,0.0069813197478652,-0.0019008521921932697,0.0022442208137363195
1772642721483261200,0.90926123046875,0.0028488924726843834,-0.0003120103501714766,0.006325514987111092
1772642721493302000,0.919302001953125,-0.0011219664011150599,0.0025694826617836952,0.008461381308734417
1772642721503344000,0.92934423828125,-0.0032777951564639807,0.007868108339607716,0.004742543213069439
1772642721513385000,0.939385009765625,-0.005026450380682945,0.014653375372290611,0.002578746061772108
1772642721523427300,0.94942724609375,-0.005997438915073872,0.017431853339076042,0.0034480018075555563
1772642721533468200,0.95946826171875,-0.00773857906460762,0.018672650679945946,0.005879833362996578
1772642721543510300,0.96951025390625,-0.00534492963925004,0.02092621847987175,0.004862772300839424
1772642721553551000,0.979551025390625,-0.00833877269178629,0.02111351117491722,0.007997211068868637
1772642721563593200,0.98959326171875,-0.009720154106616974,0.023314347490668297,0.0038730395026504993
1772642721573634000,0.999634033203125,-0.008076576516032219,0.024607082828879356,-0.0020639710128307343
1772642721583676200,1.00967626953125,-0.011308056302368641,0.026452120393514633,-0.0005896450020372868
1772642721593717000,1.019717041015625,-0.00938037782907486,0.021539991721510887,0.00153598643373698
1772642721603759000,1.029759033203125,-0.010960964486002922,0.019645949825644493,0.0025165623519569635
1772642721613800000,1.039800048828125,-0.007014883682131767,0.01648605801165104,0.005370806902647018
1772642721623842300,1.04984228515625,-0.006605822592973709,0.012004225514829159,0.0035729066003113985
1772642721633883100,1.059883056640625,-0.005575946997851133,0.009908373467624187,0.006490936502814293
1772642721643925200,1.06992529296875,-0.00344142341054976,0.006858521606773138,0.005943923722952604
1772642721653966000,1.079966064453125,-0.003452937351539731,0.005274626426398754,0.006712235510349274
1772642721664008200,1.09000830078125,-0.001586327562108636,0.0005581681034527719,0.0054842522367835045
1772642721674049000,1.100049072265625,0.0008617864805273712,0.00012040510773658752,0.004332313314080238
1772642721684091100,1.110091064453125,0.0027699414640665054,-0.0026639297138899565,0.00388916302472353
1772642721694132000,1.120132080078125,0.003711435943841934,-0.0049733310006558895,0.00541020417585969
1772642721704174000,1.130174072265625,0.000861587468534708,-0.005179726053029299,0.0065042306669056416
1772642721714215200,1.140215087890625,0.005574829876422882,-0.005341337528079748,0.007119002286344767
1772642721724257300,1.15025732421875,0.0028908958192914724,-0.00663217157125473,0.006553879473358393
1772642721734298000,1.160298095703125,0.0009754845523275435,-0.007540400139987469,0.0071202293038368225
1772642721744340200,1.17034033203125,0.0009597718599252403,-0.006291643716394901,0.006282398477196693
1772642721754381000,1.180381103515625,0.0007129830773919821,-0.003768517170101404,0.0026903178077191114
1772642721764423200,1.190423095703125,0.0006575893494300544,0.0006834891391918063,0.0039108446799218655
1772642721774464300,1.20046435546875,0.0012155959848314524,0.003331950632855296,0.0033378670923411846
1772642721784506000,1.210506103515625,0.0015351753681898117,0.004887503106147051,0.004717384465038776
1772642721794547200,1.220547119140625,0.0016006050864234567,0.005291964393109083,0.003715069033205509
1772642721804589000,1.230589111328125,0.0009984644129872322,0.005222721956670284,0.006848810240626335
1772642721814630100,1.240630126953125,0.001067578443326056,0.005634509492665529,0.006722461432218552
1772642721824672300,1.25067236328125,0.0012428144691511989,0.004232621751725674,0.007897714152932167
1772642721834713300,1.26071337890625,0.0013701990246772766,0.005987958051264286,0.004696582909673452
1772642721844755200,1.270755126953125,-0.0010556743945926428,0.006067053880542517,0.0027660573832690716
1772642721854796300,1.28079638671875,-0.0014995397068560123,0.006863677408546209,0.002907105488702655
1772642721864838100,1.290838134765625,-0.0015083281323313713,0.004757649730890989,0.0010977538768202066
1772642721874879200,1.300879150390625,0.00005497015081346035,0.004835879895836115,0.002278309315443039
1772642721884921000,1.310921142578125,0.0019330313662067056,0.0038273409008979797,0.0003725513815879822
1772642721894962200,1.320962158203125,0.000055107870139181614,0.0031496286392211914,0.001018783077597618
1772642721905004300,1.33100439453125,0.00110918702557683,0.00273524085059762,-0.00015007820911705494
1772642721915045400,1.34104541015625,0.0005018485826440156,0.003485923632979393,-0.001050641993060708
1772642721925087200,1.351087158203125,0.0015466066543012857,0.0018009415362030268,-0.0016690278425812721
1772642721935128300,1.36112841796875,0.0029709506779909134,-0.0017817621119320393,0.0004018342588096857
1772642721945170200,1.371170166015625,0.002013810444623232,-0.004067020490765572,0.0001498991623520851
1772642721955211300,1.381211181640625,0.004018400330096483,-0.005682413000613451,0.0019117611227557063
1772642721965253000,1.391253173828125,0.003732643323019147,-0.00842893123626709,0.0028292201459407806
1772642721975294200,1.401294189453125,0.0038394166622310877,-0.009709867648780346,0.0034040482714772224
1772642721985336000,1.411336181640625,0.0036612513940781355,-0.009848086163401604,0.002311619697138667
1772642721995377200,1.421377197265625,0.003931134939193726,-0.007964427582919598,0.003521367907524109
1772642722005419300,1.431419189453125,0.006125313695520163,-0.008620098233222961,0.005060940980911255
1772642722015460400,1.44146044921875,0.006818428635597229,-0.010212140157818794,0.005810746923089027
1772642722025502200,1.451502197265625,0.00635850103572011,-0.012466506101191044,0.005959884263575077
1772642722035543300,1.461543212890625,0.0053824204951524734,-0.01108118612319231,0.007528212852776051
1772642722045585200,1.471585205078125,0.005638617090880871,-0.010532309301197529,0.005887439474463463
1772642722055626200,1.481626220703125,0.0069832466542720795,-0.007991120219230652,0.002382453065365553
1772642722065668000,1.491668212890625,0.008783203549683094,-0.007098110392689705,0.007074008695781231
1772642722075709200,1.501709228515625,0.00799491535872221,-0.004640423227101564,0.007544349413365126
1772642722085750000,1.51175,0.0067024827003479,-0.004040945786982775,0.0057355305179953575
1772642722095792000,1.521792236328125,0.007666230201721191,-0.0012121489271521568,0.0041483985260128975
1772642722105834200,1.531834228515625,0.005194550380110741,-0.002027342328801751,0.003308171173557639
1772642722115875300,1.541875244140625,0.003834889503195882,-0.001985635608434677,0.0033326754346489906
1772642722125916200,1.551916259765625,0.002903315471485257,-0.0037686219438910484,0.005921534262597561
1772642722135958300,1.561958251953125,0.001145076472312212,-0.002557906322181225,0.005776772275567055
1772642722145999000,1.5719990234375,0.002093960763886571,-0.000045480148401111364,0.0037511722184717655
1772642722156041200,1.582041259765625,0.0011801128275692463,0.00252143619582057,0.003011083696037531
1772642722166082000,1.59208203125,0.0015670701395720243,0.0023304875940084457,0.001815590774640441
1772642722176124200,1.602124267578125,0.0003823673469014466,-0.0022956274915486574,0.0008436852367594838
1772642722186165000,1.6121650390625,0.001636183587834239,-0.007920489646494389,0.002355029108002782
1772642722196207000,1.62220703125,0.0014284683857113123,-0.012573465704917908,0.006517671048641205
1772642722206248000,1.632248046875,0.0010476363822817802,-0.013241652399301529,0.007101968862116337
1772642722216290300,1.642290283203125,0.0011644826736301184,-0.011196968145668507,0.010247587226331234
1772642722226331100,1.6523310546875,-0.0006038562278263271,-0.00977377500385046,0.009530664421617985
1772642722236373200,1.662373291015625,-0.0008497914532199502,-0.0057206712663173676,0.008023824542760849
1772642722246414000,1.6724140625,-0.0018183831125497818,-0.0038825576193630695,0.005543355830013752
1772642722256456200,1.682456298828125,-0.000717146263923496,-0.0031262626871466637,0.00237061595544219
1772642722266497000,1.6924970703125,0.0015595902223140001,-0.00230600917711854,-0.0008528742473572493
1772642722276539100,1.7025390625,0.002983025275170803,-0.0035163513384759426,-0.000857118284329772
1772642722286580000,1.712580078125,0.00320619810372591,-0.005242878571152687,0.000051019713282585144
1772642722296622000,1.7226220703125,0.0032034970354288816,-0.004486186895519495,-0.00022757635451853275
1772642722306663000,1.732662841796875,0.0019243806600570679,-0.00265047000721097,0.0020528885070234537
1772642722316705300,1.742705322265625,0.0033208560198545456,-0.0018302639946341515,0.003336807945743203
1772642722326746000,1.75274609375,-0.0005124979070387781,0.0006768358871340752,0.0034752923529595137
1772642722336788200,1.762788330078125,0.0005679464666172862,0.0023977705277502537,0.004735500086098909
1772642722346829000,1.7728291015625,-0.0006943918415345252,0.0008986772154457867,0.005211407318711281
1772642722356871200,1.78287109375,0.00009070802479982376,0.002578066661953926,0.0038223022129386663
1772642722366912000,1.792912109375,0.0004635505611076951,0.002160482807084918,0.003974635154008865
1772642722376954000,1.8029541015625,0.0017203937750309706,0.004564399365335703,-0.0005920419935137033
1772642722386995200,1.8129951171875,0.0004857522726524621,0.0035697086714208126,0.003505497705191374
1772642722397037300,1.823037353515625,0.0019433705601841211,0.004105240572243929,0.003368116682395339
1772642722407078100,1.833078125,0.000633894233033061,0.004075945820659399,0.005258162040263414
1772642722417120300,1.843120361328125,-0.0008377756457775831,0.004069964867085218,0.005826722830533981
1772642722427161300,1.853161376953125,-0.0019499115878716111,0.003955448977649212,0.0023984352592378855
1772642722437203200,1.863203125,-0.004048568662256002,0.004455009941011667,0.0016982995439320803
1772642722447244300,1.873244384765625,-0.004328466951847076,0.002875223057344556,-0.0014165337197482586
1772642722457286100,1.8832861328125,-0.006426322273910046,0.00336011266335845,-0.002587957540526986
1772642722467327200,1.8933271484375,-0.007995722815394402,0.0030200271867215633,-0.004653771407902241
1772642722477369000,1.903369140625,-0.007787082809954882,0.004689957480877638,-0.005869333166629076
1772642722487410200,1.91341015625,-0.007185740862041712,0.004980508238077164,-0.002940655220299959
1772642722497452300,1.923452392578125,-0.006136443931609392,0.007470398209989071,-0.0013359775766730309
1772642722507493400,1.933493408203125,-0.004858925472944975,0.008806506171822548,-0.0019112201407551765
1772642722517535200,1.94353515625,-0.00421820068731904,0.006723590660840273,0.001170583302155137
1772642722527576300,1.953576416015625,-0.0034940869081765413,0.00652491906657815,0.002250761492177844
1772642722537618200,1.9636181640625,-0.0029443479143083096,0.006073627155274153,0.005154151935130358
1772642722547659300,1.9736591796875,-0.0016175610944628716,0.00793704017996788,0.005003683269023895
1772642722557701000,1.983701171875,0.0015536798164248466,0.008236365392804146,0.0017944166902452707
1772642722567742200,1.9937421875,0.0009483433677814901,0.007057118229568005,0.0032884501852095127
1772642722577784000,2.0037841796875,0.002602440770715475,0.006984270643442869,0.0024309405125677586
1772642722587825200,2.0138251953125,0.0012607404496520758,0.0033842099364846945,0.00032890751026570797
1772642722597867300,2.0238671875,0.0023657602723687887,0.003738624043762684,0.00462445430457592
1772642722607908400,2.033908447265625,0.004309068899601698,0.0037852292880415916,0.0053403121419250965
1772642722617950200,2.0439501953125,0.004235683009028435,0.0026566865853965282,0.005258817225694656
1772642722627991300,2.0539912109375,0.004139809403568506,0.002715276088565588,0.006117153912782669
1772642722638033200,2.064033203125,0.004369460046291351,0.0010876001324504614,0.006777608767151833
1772642722648074200,2.07407421875,0.005997450556606054,0.000869220879394561,0.006785065867006779
1772642722658116000,2.0841162109375,0.0050931344740092754,-0.0010129313450306654,0.006443399004638195
1772642722668157200,2.0941572265625,0.004902718588709831,-0.000544214912224561,0.005743520334362984
1772642722678199000,2.104198974609375,0.005093233194202185,-0.002279115840792656,0.0005800322396680713
1772642722688240000,2.114240234375,0.003722504014149308,-0.004972370807081461,-0.000033559976145625114
1772642722698282200,2.1242822265625,0.0014184657484292984,-0.004954056814312935,-0.0006592848803848028
1772642722708323300,2.1343232421875,0.003423559945076704,-0.004970568232238293,-0.000867810333147645
1772642722718365200,2.144365234375,0.0021301880478858948,-0.0016539059579372406,-0.0035296145360916853
1772642722728406300,2.15440625,0.0017245886847376823,0.0001099057262763381,-0.0034513177815824747
1772642722738448100,2.1644482421875,-0.0021915235556662083,0.0002231805119663477,-0.0025446717627346516
1772642722748489200,2.1744892578125,-0.003012309782207012,-0.0038727610372006893,-0.0022349460050463676
1772642722758531000,2.184531005859375,-0.0008068715687841177,-0.006069655064493418,-0.0008720713667571545
1772642722768572200,2.194572265625,0.0014802510850131512,-0.008638806641101837,0.000980157172307372
1772642722778614300,2.2046142578125,0.0022718056570738554,-0.00766397500410676,0.0010968169663101435
1772642722788655400,2.2146552734375,0.0035722272004932165,-0.005805355031043291,-0.0015908449422568083
1772642722798697200,2.224697265625,0.0034777787514030933,-0.004017670638859272,-0.0007822925690561533
1772642722808738300,2.23473828125,0.005085528828203678,0.0017390178982168436,0.001262216130271554
1772642722818780200,2.2447802734375,0.0053079696372151375,0.0010054082376882434,0.003865297883749008
1772642722828821200,2.2548212890625,0.0066800303757190704,-0.0002073953510262072,0.014224727638065815
1772642722838863000,2.264863037109375,0.010734842158854008,-0.0038746728096157312,0.020832566544413567
1772642722848904200,2.274904296875,0.013207587413489819,-0.008743995800614357,0.02289731428027153
1772642722858946000,2.284946044921875,0.01777486503124237,-0.012014515697956085,0.023158175870776176
1772642722868987100,2.294987060546875,0.02005533128976822,-0.014427606016397476,0.02054082229733467
1772642722879028000,2.305028076171875,0.02253381721675396,-0.01627141796052456,0.02054881490767002
1772642722889070300,2.3150703125,0.023301873356103897,-0.017335349693894386,0.015592938289046288
1772642722899111200,2.325111083984375,0.022337617352604866,-0.016247767955064774,0.014530472457408905
1772642722909153300,2.3351533203125,0.020587919279932976,-0.015518060885369778,0.008469649590551853
1772642722919194000,2.345194091796875,0.01540267001837492,-0.01456086803227663,0.002334390999749303
1772642722929236200,2.355236328125,0.013096106238663197,-0.013890017755329609,-0.003633486572653055
1772642722939277000,2.365277099609375,0.009208912961184978,-0.012839292176067829,-0.0077599165961146355
1772642722949319200,2.375319091796875,0.006928981281816959,-0.009350018575787544,-0.009002814069390297
1772642722959360000,2.385360107421875,0.005690481513738632,-0.006212487351149321,-0.007461498025804758
1772642722969402000,2.395402099609375,0.0002328655682504177,-0.0011367681436240673,-0.004295798018574715
1772642722979443200,2.405443115234375,-0.004376274533569813,0.001781134633347392,-0.005450304597616196
1772642722989485300,2.4154853515625,-0.008499113842844963,0.005560160614550114,-0.0031863513868302107
1772642722999526100,2.425526123046875,-0.0074073560535907745,0.00699314521625638,-0.003232040908187628
1772642723009568300,2.435568359375,-0.007845446467399597,0.008624863810837269,-0.0022192406468093395
1772642723019609000,2.445609130859375,-0.008273416198790073,0.006170228123664856,-0.002145737409591675
1772642723029651200,2.455651123046875,-0.008630013093352318,0.0055238790810108185,-0.0033827759325504303
1772642723039692300,2.4656923828125,-0.007834604941308498,-0.0014599189162254333,-0.003255704650655389
1772642723049734100,2.475734130859375,-0.0038771473336964846,-0.007710091304033995,-0.002110545290634036
1772642723059775200,2.485775146484375,-0.004740830045193434,-0.008471179753541946,0.0012251813896000385
1772642723069817300,2.4958173828125,-0.005528859328478575,-0.010709034278988838,0.0010435538133606315
1772642723079858200,2.505858154296875,-0.004039236344397068,-0.009922230616211891,-0.0011668731458485126
1772642723089900300,2.515900390625,-0.003034425200894475,-0.00689315190538764,-0.005576535128057003
1772642723099941400,2.52594140625,-0.0015413083601742983,-0.006181126926094294,-0.005794910714030266
1772642723109983200,2.535983154296875,0.00009733461774885654,-0.004230095073580742,0.0013082720106467605
1772642723120024300,2.5460244140625,0.0025006025098264217,-0.003244935069233179,0.003458514343947172
1772642723130066200,2.556066162109375,0.0027946154586970806,0.00025499117327854037,0.006768024526536465
1772642723140107300,2.566107177734375,0.0048663197085261345,0.00019752368098124862,0.010600319132208824
1772642723150149000,2.576149169921875,0.003930218517780304,0.002144294325262308,0.014309835620224476
1772642723160190200,2.586190185546875,0.005361819639801979,0.002107413951307535,0.01610223762691021
1772642723170232300,2.596232421875,0.005482460837811232,0.0025505640078336,0.013341871090233326
1772642723180273400,2.6062734375,0.004144615028053522,0.002086071530357003,0.011771434918045998
1772642723190315300,2.616315185546875,0.0045432900078594685,0.00484270928427577,0.008180161938071251
1772642723200356400,2.6263564453125,0.0021087653003633022,0.004251282662153244,0.006288663484156132
1772642723210398200,2.636398193359375,-0.0009541363106109202,0.005109087098389864,0.0031320189591497183
1772642723220439300,2.646439208984375,-0.002429323736578226,0.003740374930202961,0.003004708793014288
1772642723230481200,2.656481201171875,-0.0030679500196129084,0.003294295398518443,0.0004789667436853051
1772642723240522200,2.666522216796875,-0.004578377120196819,0.002555372891947627,-0.0009825790766626596
1772642723250564000,2.676564208984375,-0.008418122306466103,0.0016011621337383986,-0.0018763358239084482
1772642723260605200,2.686605224609375,-0.009853363037109375,0.001209829468280077,-0.003450011368840933
1772642723270647300,2.696647216796875,-0.010452840477228165,0.0028841588646173477,0.0009601834462955594
1772642723280688400,2.7066884765625,-0.008685164153575897,0.0021963263861835003,0.005776392295956612
1772642723290730200,2.716730224609375,-0.011780556291341782,-0.0003789504407905042,0.008138881996273994
1772642723300771300,2.726771240234375,-0.007738824002444744,0.0014563119038939476,0.008365065790712833
1772642723310813200,2.736813232421875,-0.0083465576171875,0.002569779520854354,0.005872347392141819
1772642723320854300,2.746854248046875,-0.00799146480858326,0.00338144158013165,0.004462668672204018
1772642723330896100,2.756896240234375,-0.008007178083062172,0.0014764827210456133,0.008566866628825665
1772642723340937200,2.766937255859375,-0.00940223503857851,-0.002800191752612591,0.005485838279128075
1772642723350979000,2.77697900390625,-0.008050681091845036,-0.006666569039225578,0.0014644647017121315
1772642723361020200,2.787020263671875,-0.007881036959588528,-0.010835215449333191,0.001602682750672102
1772642723371062300,2.797062255859375,-0.005800310056656599,-0.013053095899522305,-0.002094583585858345
1772642723381103400,2.807103271484375,-0.009850190952420235,-0.01553179882466793,-0.0051211221143603325
1772642723391145200,2.817145263671875,-0.007186762988567352,-0.013948816806077957,-0.008770718239247799
1772642723401186300,2.827186279296875,-0.008137594908475876,-0.012443936429917812,-0.010888895019888878
1772642723411228200,2.837228271484375,-0.006554345600306988,-0.008623898029327393,-0.007181775290518999
1772642723421269200,2.847269287109375,-0.004995557479560375,-0.0014323832001537085,-0.0026330603286623955
1772642723431311000,2.85731103515625,-0.004078098572790623,0.006249504629522562,-0.0010346309281885624
1772642723441352200,2.867352294921875,-0.0036338402424007654,0.011059064418077469,-0.0009604659862816334
1772642723451394000,2.87739404296875,-0.002347533591091633,0.013371487148106098,-0.0005585949402302504
1772642723461435100,2.88743505859375,-0.003254649229347706,0.01380942016839981,-0.0017989580519497395
1772642723471477200,2.897477294921875,-0.0033278861083090305,0.010463157668709755,-0.0012466185726225376
1772642723481518300,2.907518310546875,-0.0047415210865437984,0.010759219527244568,-0.00053573795594275
1772642723491560200,2.917560302734375,-0.005636875983327627,0.01040688343346119,0.0010091618169099092
1772642723501601300,2.927601318359375,-0.0036059014964848757,0.009106766432523727,0.003064652904868126
1772642723511643100,2.93764306640625,-0.00428367592394352,0.009084129706025124,0.0008294617291539907
1772642723521684200,2.947684326171875,-0.004953456111252308,0.011994942091405392,-0.0003100060857832432
1772642723531726000,2.95772607421875,-0.0032889808062464,0.013835985213518143,-0.00307356845587492
1772642723541767200,2.96776708984375,-0.0019540481735020876,0.018665114417672157,0.00037685176357626915
1772642723551809000,2.97780908203125,-0.003455272177234292,0.020510684698820114,0.0010977694764733315
1772642723561850400,2.987850341796875,-0.0010430426336824894,0.021544409915804863,-0.0028490449767559767
1772642723571892200,2.997892333984375,-0.00018816808005794883,0.020814970135688782,-0.004817121662199497
1772642723581933300,3.007933349609375,-0.0015510132070630789,0.016792792826890945,-0.00900295190513134
1772642723591975200,3.01797509765625,-0.0025536934845149517,0.01137991901487112,-0.010812835767865181
1772642723602016300,3.028016357421875,-0.004237919580191374,0.008150146342813969,-0.013942444697022438
1772642723612058000,3.03805810546875,-0.0032387012615799904,0.0018227417021989822,-0.0125698521733284
1772642723622099200,3.04809912109375,-0.004067583009600639,-0.004398939665406942,-0.011552399024367332
1772642723632140000,3.05814013671875,-0.004223910626024008,-0.007764908950775862,-0.008007997646927834
1772642723642182100,3.06818212890625,-0.0036725185345858335,-0.009006902575492859,-0.004456675611436367
1772642723652223200,3.07822314453125,-0.0020820789504796267,-0.010523039847612381,-0.00577201135456562
1772642723662265300,3.088265380859375,0.0014029336161911488,-0.014032820239663124,-0.010218425653874874
1772642723672306200,3.09830615234375,-0.0005915077053941786,-0.016758831217885017,-0.008333706296980381
1772642723682348300,3.108348388671875,0.0007367790094576776,-0.021503401920199394,-0.010237980633974075
1772642723692389400,3.118389404296875,0.0010795278940349817,-0.026145825162529945,-0.01023425254970789
1772642723702431200,3.12843115234375,0.0013615485513582826,-0.026801351457834244,-0.01018128264695406
1772642723712472300,3.138472412109375,0.0012334506027400494,-0.02690654620528221,-0.010581555776298046
1772642723722514200,3.14851416015625,-0.0009706729324534535,-0.022107023745775223,-0.011441315524280071
1772642723732555300,3.15855517578125,-0.0006348483730107546,-0.018078992143273354,-0.011870084330439568
1772642723742597000,3.16859716796875,-0.0005691057885996997,-0.016200045123696327,-0.014530874788761139
1772642723752638500,3.178638427734375,-0.003479941049590707,-0.015561950393021107,-0.01651706174015999
1772642723762680600,3.1886806640625,-0.00008053128840401769,-0.014709336683154106,-0.016493001952767372
1772642723772721400,3.198721435546875,-0.002217185450717807,-0.015229451470077038,-0.015792855992913246
1772642723782763500,3.208763427734375,-0.002266369527205825,-0.01415479276329279,-0.017336787655949593
1772642723792804400,3.218804443359375,-0.0020514524076133966,-0.01409300696104765,-0.016273653134703636
1772642723802846500,3.228846435546875,-0.0039349887520074844,-0.014046830125153065,-0.013286389410495758
1772642723812887600,3.238887451171875,-0.004473479930311441,-0.012432955205440521,-0.01088688150048256
1772642723822929700,3.2489296875,-0.005480327643454075,-0.009497182443737984,-0.010531065054237843
1772642723832970500,3.258970458984375,-0.0044755167327821255,-0.007865196093916893,-0.008403732441365719
1772642723843012600,3.2690126953125,-0.0037383658345788717,-0.001723515335470438,-0.008365240879356861
1772642723853053700,3.2790537109375,-0.006653728429228067,0.0018789428286254406,-0.0050637200474739075
1772642723863095600,3.289095458984375,-0.007447537966072559,0.005409686826169491,-0.007459003012627363
1772642723873136600,3.29913671875,-0.006728484760969877,0.008999094367027283,-0.006395335774868727
1772642723883178500,3.309178466796875,-0.009733036160469055,0.01261175237596035,-0.010677791200578213
1772642723893219600,3.319219482421875,-0.012762116268277168,0.012907629832625389,-0.011653839610517025
1772642723903261400,3.329261474609375,-0.01232488639652729,0.010316260159015656,-0.011230405420064926
1772642723913302500,3.339302490234375,-0.013028227724134922,0.013041472993791103,-0.01288396306335926
1772642723923344600,3.3493447265625,-0.016903294250369072,0.014075993560254574,-0.011957334354519844
1772642723933385700,3.3593857421875,-0.018853792920708656,0.015906384214758873,-0.015643149614334106
1772642723943427600,3.369427490234375,-0.01904311217367649,0.017397278919816017,-0.013855895958840847
1772642723953468700,3.37946875,-0.018464939668774605,0.018354950472712517,-0.01155119575560093
1772642723963510500,3.389510498046875,-0.017924821004271507,0.018378710374236107,-0.01428066473454237
1772642723973551600,3.399551513671875,-0.015923988074064255,0.014891034923493862,-0.015459910966455936
1772642723983593500,3.409593505859375,-0.01421298086643219,0.013556310907006264,-0.015045126900076866
1772642723993634600,3.419634521484375,-0.010577766224741936,0.0137485908344388,-0.013212605379521847
1772642724003676400,3.429676513671875,-0.010072850622236729,0.015189670026302338,-0.010691273957490921
1772642724013717500,3.439717529296875,-0.012971701100468636,0.013533450663089752,-0.008231045678257942
1772642724023759600,3.449759521484375,-0.012891991063952446,0.010377142578363419,-0.004597800783813
1772642724033800700,3.45980078125,-0.015285639092326164,0.007834888994693756,-0.006725666578859091
1772642724043842600,3.469842529296875,-0.01625870354473591,0.005034566391259432,-0.00920108798891306
1772642724053883600,3.479883544921875,-0.013672241941094398,0.0034715570509433746,-0.009809620678424835
1772642724063925500,3.489925537109375,-0.012253247201442719,0.0002702845958992839,-0.007842864841222763
1772642724073966600,3.499966552734375,-0.009298736229538918,0.0009307485306635499,-0.006604494992643595
1772642724084008400,3.510008544921875,-0.006753529887646437,0.001615914166904986,-0.006539268419146538
1772642724094049500,3.520049560546875,-0.005889067891985178,0.003302494063973427,-0.005909963510930538
1772642724104091400,3.53009130859375,-0.003901891177520156,0.00679208617657423,-0.00539530860260129
1772642724114132700,3.5401328125,-0.003894700901582837,0.007974795997142792,-0.005987862590700388
1772642724124174600,3.550174560546875,-0.002378512406721711,0.011155955493450165,-0.00636587617918849
1772642724134215700,3.560215576171875,-0.003683727700263262,0.012675288133323193,-0.008575767278671265
1772642724144257500,3.570257568359375,-0.004359731916338205,0.015257053077220917,-0.00786791555583477
1772642724154298600,3.580298583984375,-0.007045529317110777,0.016156936064362526,-0.0059448471292853355
1772642724164340500,3.590340576171875,-0.00792304053902626,0.020855018869042397,-0.00576002337038517
1772642724174381600,3.600381591796875,-0.009519074112176895,0.023112580180168152,-0.007816250436007977
1772642724184423400,3.61042333984375,-0.01111670397222042,0.024197818711400032,-0.012218455784022808
1772642724194464500,3.620464599609375,-0.010237861424684525,0.02340792492032051,-0.012074111960828304
1772642724204506600,3.630506591796875,-0.011326784268021584,0.022685565054416656,-0.009380463510751724
1772642724214547700,3.640547607421875,-0.009602653793990612,0.024943659082055092,-0.00527999410405755
1772642724224589600,3.650589599609375,-0.008826910518109798,0.02569117397069931,0.0008523627184331417
1772642724234630700,3.660630615234375,-0.007584813516587019,0.027037667110562325,0.005961104296147823
1772642724244672500,3.670672607421875,-0.006666688248515129,0.025159521028399467,0.004388455301523209
1772642724254713600,3.680713623046875,-0.0037800881545990705,0.023872680962085724,0.0028651270549744368
1772642724264755500,3.69075537109375,-0.0009081261814571917,0.02241605706512928,0.0003572602290660143
1772642724274796500,3.700796630859375,-0.0008149154600687325,0.02000909298658371,-0.0014395744074136019
1772642724284838400,3.71083837890625,0.0005628237850032747,0.0160940270870924,-0.0027139068115502596
1772642724294879500,3.72087939453125,0.00042194256093353033,0.01260368898510933,-0.0014531663618981838
1772642724304920300,3.73092041015625,-0.003617811482399702,0.009478224441409111,0.00016513699665665627
1772642724314962700,3.740962646484375,-0.0040175518952310085,0.004832073580473661,-0.00021809176541864872
1772642724325004500,3.751004638671875,-0.006274550221860409,0.0024733678437769413,0.0006615539314225316
1772642724335045600,3.761045654296875,-0.008247686550021172,-0.0005852726171724498,0.0005054926732555032
1772642724345086500,3.77108642578125,-0.007467653136700392,-0.0004245382733643055,-0.002000295789912343
1772642724355128600,3.781128662109375,-0.007252469193190336,-0.0028727822937071323,-0.003373687854036689
1772642724365169400,3.79116943359375,-0.004978129640221596,-0.0025097934994846582,-0.0060395123437047005
1772642724375211500,3.80121142578125,-0.002497128676623106,-0.004059487022459507,-0.007593732327222824
1772642724385252400,3.81125244140625,-0.001649369951337576,-0.003460328094661236,-0.008775776252150536
1772642724395294500,3.82129443359375,-0.0011518914252519608,-0.0035175858065485954,-0.010471942834556103
1772642724405335600,3.83133544921875,0.002754569286480546,-0.0029822299256920815,-0.011441721580922604
1772642724415377700,3.841377685546875,0.0015007532201707363,-0.004216072615236044,-0.011571417562663555
1772642724425418500,3.85141845703125,0.006743507459759712,-0.004715955816209316,-0.009891241788864136
1772642724435460600,3.861460693359375,0.008323028683662415,-0.004062149673700333,-0.010152231901884079
1772642724445501400,3.87150146484375,0.008177879266440868,-0.005334323272109032,-0.009154719300568104
1772642724455543600,3.88154345703125,0.0060236481949687,-0.007737826555967331,-0.012224811129271984
1772642724465584600,3.891584716796875,0.0064035942777991295,-0.011066168546676636,-0.013635133393108845
1772642724475626500,3.90162646484375,0.006363380700349808,-0.014182865619659424,-0.013769355602562428
1772642724485667600,3.91166748046875,0.005468664225190878,-0.014257961884140968,-0.01297825574874878
1772642724495709400,3.92170947265625,0.006798646878451109,-0.013842242769896984,-0.012093819677829742
1772642724505750500,3.93175048828125,0.006293823476880789,-0.009928601793944836,-0.011059552431106567
1772642724515792600,3.941792724609375,0.003083915449678898,-0.0075224353931844234,-0.009553268551826477
1772642724525833700,3.951833740234375,0.0030640719924122095,-0.006549110636115074,-0.00878082774579525
1772642724535875600,3.96187548828125,0.0029626055620610714,-0.005599427502602339,-0.006906228605657816
1772642724545916700,3.971916748046875,0.005454454571008682,-0.005425759591162205,-0.003639636095613241
1772642724555958500,3.98195849609375,0.009159178473055363,-0.0063517410308122635,-0.0038439002819359303
1772642724565999600,3.99199951171875,0.011537956073880196,-0.0021994500420987606,0.000005027279257774353
1772642724576041500,4.00204150390625,0.010921967215836048,-0.0013040953781455755,0.0018708379939198494
1772642724586082600,4.01208251953125,0.010272035375237465,0.0007637683302164078,0.0027573148254305124
1772642724596124400,4.02212451171875,0.01051251869648695,0.00288178026676178,0.0013703404692932963
1772642724606165500,4.03216552734375,0.009014290757477283,0.00044827492092736065,-0.0009696711786091328
1772642724616207600,4.04220751953125,0.009369823150336742,-0.00003642041701823473,-0.000859416089951992
1772642724626248700,4.052248779296875,0.007416394539177418,0.0001539956429041922,-0.0005038841627538204
1772642724636290600,4.06229052734375,0.006912649143487215,-0.00013712671352550387,-0.0009882892481982708
1772642724646331600,4.07233154296875,0.005540217272937298,0.0009997725719586015,-0.005901961587369442
1772642724656373500,4.08237353515625,0.004953789059072733,0.0010493072913959622,-0.0043264348059892654
1772642724666414600,4.09241455078125,0.001833511982113123,0.001504869433119893,-0.003354112384840846
1772642724676456400,4.10245654296875,0.002059880644083023,0.003932607360184193,-0.0071555087342858315
1772642724686497500,4.11249755859375,0.0016488720430061221,0.004978891462087631,-0.004180388990789652
1772642724696539600,4.12253955078125,0.0007268856861628592,0.00818640273064375,-0.005771361757069826
1772642724706580700,4.132580810546875,0.00012300669914111495,0.009496640413999557,-0.008225170895457268
1772642724716622600,4.14262255859375,-0.000948116707149893,0.010841536335647106,-0.010379135608673096
1772642724726663700,4.15266357421875,-0.0004924811073578894,0.012609019875526428,-0.01084599457681179
1772642724736705500,4.16270556640625,0.0016708045732229948,0.013706241734325886,-0.01162390410900116
1772642724746746600,4.17274658203125,0.003440996166318655,0.015932278707623482,-0.011005640961229801
1772642724756788500,4.18278857421875,0.008173699490725994,0.014672070741653442,-0.010396309196949005
1772642724766829600,4.19282958984375,0.010158639401197433,0.011361809447407722,-0.009293236769735813
1772642724776871400,4.202871337890625,0.00947846844792366,0.0068040755577385426,-0.00846419483423233
1772642724786912500,4.21291259765625,0.008816778659820557,0.004530805163085461,-0.008780970238149166
1772642724796954400,4.222954345703125,0.007292917463928461,0.004674083553254604,-0.011948533356189728
1772642724806995500,4.232995361328125,0.006597342900931835,0.005223917309194803,-0.01236412487924099
1772642724817037300,4.243037353515625,0.0057611106894910336,0.0035333423875272274,-0.010348377749323845
1772642724827078400,4.253078369140625,0.0045628598891198635,0.004609088413417339,-0.008706025779247284
1772642724837120300,4.263120361328125,0.00005945470184087753,0.003012789413332939,-0.009090851992368698
1772642724847161300,4.273161376953125,0.00009338289964944124,0.0004825250944122672,-0.005020602140575647
1772642724857203500,4.283203369140625,-0.002658993937075138,0.0021432721987366676,-0.00348848570138216
1772642724867244500,4.29324462890625,-0.003555371193215251,0.0014688505325466394,-0.000028378330171108246
1772642724877286400,4.303286376953125,-0.0017952881753444672,0.002133575500920415,0.0018078710418194532
1772642724887327500,4.313327392578125,-0.0032862431835383177,0.006065095774829388,0.004824969917535782
1772642724897369300,4.323369384765625,-0.0025104640517383814,0.007367914076894522,0.00321189290843904
1772642724907410400,4.333410400390625,-0.0035185138694941998,0.01080376747995615,0.0008127891924232244
1772642724917451300,4.343451171875,-0.005726806819438934,0.011874624527990818,0.0006596575258299708
1772642724927493400,4.353493408203125,-0.0034467808436602354,0.010650274343788624,0.0006940294988453388
1772642724937534200,4.3635341796875,-0.0026875133626163006,0.009051045402884483,0.0009129412937909365
1772642724947576300,4.373576416015625,-0.003274407936260104,0.007981611415743828,0.00002355314791202545
1772642724957617400,4.383617431640625,-0.004197725560516119,0.009564060717821121,0.0015761761460453272
1772642724967659500,4.393659423828125,-0.00427628867328167,0.011619755066931248,0.0023660697042942047
1772642724977700400,4.403700439453125,-0.005489625036716461,0.01259793434292078,0.005734968464821577
1772642724987742500,4.413742431640625,-0.004358647391200066,0.012300634756684303,0.009236917831003666
1772642724997783300,4.423783203125,-0.00040252128383144736,0.016142243519425392,0.010213498957455158
1772642725007825400,4.433825439453125,0.006521449889987707,0.017009057104587555,0.009753982536494732
1772642725017866500,4.443866455078125,0.008496715687215328,0.017056195065379143,0.011754815466701984
1772642725027908400,4.453908447265625,0.010090920142829418,0.017091654241085052,0.008871251717209816
1772642725037949400,4.463949462890625,0.014961309731006622,0.017119083553552628,0.0068067689426243305
1772642725047991600,4.473991455078125,0.01517893373966217,0.015015875920653343,0.004188477527350187
1772642725058032600,4.48403271484375,0.015402639284729958,0.009628300555050373,0.0023591520730406046
1772642725068074500,4.494074462890625,0.012922327034175396,0.004105987027287483,0.004595435690134764
1772642725078115600,4.504115478515625,0.015651000663638115,-0.003392675658687949,0.006210110150277615
1772642725088157400,4.514157470703125,0.0161050446331501,-0.0075420839712023735,0.00713344058021903
1772642725098198500,4.524198486328125,0.015413953922688961,-0.010581017471849918,0.005955258384346962
1772642725108240400,4.534240478515625,0.0176361333578825,-0.012853986583650112,0.0069167716428637505
1772642725118281500,4.544281494140625,0.01703852042555809,-0.013405260629951954,0.007240079343318939
1772642725128323300,4.5543232421875,0.016947206109762192,-0.01369415782392025,0.005578537937253714
1772642725138364400,4.564364501953125,0.017042813822627068,-0.014712550677359104,0.003849613945931196
1772642725148406500,4.574406494140625,0.019033027812838554,-0.014019561931490898,-0.0007325182668864727
1772642725158447600,4.584447509765625,0.01732194796204567,-0.013241652399301529,-0.005410892888903618
1772642725168489500,4.594489501953125,0.018306003883481026,-0.013550089672207832,-0.0031071084085851908
1772642725178530600,4.604530517578125,0.021315110847353935,-0.01133913267403841,-0.002016277750954032
1772642725188572400,4.614572509765625,0.021496878936886787,-0.006235945969820023,0.00024125748313963413
1772642725198613500,4.624613525390625,0.021017510443925858,-0.004345900844782591,0.0011904080165550113
1772642725208655400,4.6346552734375,0.023307960480451584,-0.0015287254936993122,0.004075990989804268
1772642725218696400,4.644696533203125,0.022974533960223198,0.005884716287255287,0.008468342944979668
1772642725228738300,4.65473828125,0.021023716777563095,0.009189954027533531,0.013416877947747707
1772642725238779400,4.664779296875,0.021866608411073685,0.013026237487792969,0.019803138449788094
1772642725248821500,4.674821533203125,0.02206406556069851,0.018455728888511658,0.025143040344119072
1772642725258862600,4.684862548828125,0.022351155057549477,0.021874161437153816,0.03354025259613991
1772642725268904400,4.694904541015625,0.020896460860967636,0.024746432900428772,0.032516930252313614
1772642725278945500,4.704945556640625,0.02104852721095085,0.02130136825144291,0.034510038793087006
1772642725288987400,4.7149873046875,0.020195893943309784,0.02096126228570938,0.03777317702770233
1772642725299028500,4.725028564453125,0.01806003786623478,0.02161719836294651,0.03504104167222977
1772642725309070300,4.7350703125,0.01606840454041958,0.021817388013005257,0.03307260945439339
1772642725319111400,4.745111328125,0.014199931174516678,0.020538805052638054,0.032045163214206696
1772642725329153300,4.7551533203125,0.01320681907236576,0.020359352231025696,0.02639991231262684
1772642725339194400,4.7651943359375,0.010395852848887444,0.01520906388759613,0.02634318731725216
1772642725349236500,4.775236572265625,0.012881133705377579,0.01158072892576456,0.02581629529595375
1772642725359277600,4.785277587890625,0.014604199677705765,0.010536503978073597,0.025163820013403893
1772642725369319400,4.7953193359375,0.015125974081456661,0.011804014444351196,0.021774956956505775
1772642725379360500,4.805360595703125,0.011157065629959106,0.006891814526170492,0.018239876255393028
1772642725389402400,4.81540234375,0.010613977909088135,0.0033019043039530516,0.010467671789228916
1772642725399443500,4.825443359375,0.005682335700839758,-0.004673197865486145,0.003999386448413134
1772642725409485300,4.8354853515625,0.00570836802944541,-0.010864338837563992,0.002845331095159054
1772642725419526400,4.8455263671875,0.00243134843185544,-0.016405312344431877,-0.001235963311046362
1772642725429568300,4.855568359375,-0.00004727498162537813,-0.017473196610808372,-0.002009493997320533
1772642725439609300,4.865609375,-0.0016824558842927217,-0.018027132377028465,-0.0037437446881085634
1772642725449650200,4.875650146484375,-0.006070812698453665,-0.015785284340381622,-0.00868284236639738
1772642725459692500,4.885692626953125,-0.006292387843132019,-0.015230282209813595,-0.009589382447302341
1772642725469733400,4.8957333984375,-0.00938638485968113,-0.013255966827273369,-0.011449589394032955
1772642725479775500,4.905775390625,-0.008568528108298779,-0.014775300398468971,-0.014023267664015293
1772642725489816300,4.91581640625,-0.008776106871664524,-0.011815834790468216,-0.014073332771658897
1772642725499858400,4.9258583984375,-0.00350970565341413,-0.01222968939691782,-0.013462670147418976
1772642725509899300,4.935899169921875,-0.0043862261809408665,-0.01042001973837614,-0.011904856190085411
1772642725519941400,4.94594140625,-0.00606375141069293,-0.01059259194880724,-0.010887261480093002
1772642725529982200,4.955982177734375,-0.0041430797427892685,-0.011604859493672848,-0.009775925427675247
1772642725540024300,4.9660244140625,-0.002700977958738804,-0.01233829464763403,-0.008570045232772827
1772642725550065400,4.9760654296875,-0.0023053933400660753,-0.011254915967583656,-0.007733672391623259
1772642725560107500,4.986107421875,-0.0023661134764552116,-0.010780606418848038,-0.006644972134381533
1772642725570148400,4.9961484375,-0.00008247181540355086,-0.00797438994050026,-0.0070347413420677185
1772642725580190500,5.0061904296875,0.0019769505597651005,-0.0045679411850869656,-0.004471714608371258
1772642725590231300,5.016231201171875,-0.00011402665404602885,-0.0035577432718127966,-0.0020267879590392113
1772642725600273400,5.0262734375,0.000284115900285542,-0.001012293854728341,-0.0016363682225346565
1772642725610314500,5.036314453125,-0.0003828139160759747,-0.0013786924537271261,-0.0005872172769159079
1772642725620356400,5.0463564453125,-0.0004571161116473377,-0.0003507121582515538,0.0011744637740775943
1772642725630397400,5.0563974609375,0.0024860482662916183,-0.0013115766923874617,0.004671333357691765
1772642725640439600,5.066439453125,0.002292969264090061,-0.0030940300785005093,0.004891843535006046
1772642725650480400,5.07648046875,0.0018892581574618816,-0.0032616080716252327,0.0050026122480630875
1772642725660522500,5.0865224609375,0.0029457341879606247,-0.005174556747078896,0.005098219495266676
1772642725670563600,5.0965634765625,0.0017887081485241652,-0.006138516124337912,0.0014550122432410717
1772642725680605400,5.10660546875,0.002571145072579384,-0.004163249861449003,0.0010374285047873855
1772642725690646500,5.116646484375,-0.0010969561990350485,-0.0011436964850872755,0.0012911076191812754
1772642725700688400,5.1266884765625,-0.0003917510621249676,-0.001862750155851245,-0.00004633190110325813
1772642725710729500,5.1367294921875,-0.000890400551725179,-0.001973275560885668,-0.0018528939690440893
1772642725720771300,5.146771240234375,-0.00003525946522131562,-0.005092103499919176,-0.004017777740955353
1772642725730812400,5.1568125,-0.0011688496451824903,-0.008786601945757866,-0.0046675922349095345
1772642725740854500,5.1668544921875,0.00012384878937155008,-0.009877166710793972,-0.004854279570281506
1772642725750895400,5.176895263671875,-0.00015603797510266304,-0.010243251919746399,-0.004453618545085192
1772642725760937200,5.186937255859375,-0.0004260825226083398,-0.007563578896224499,-0.005424873437732458
1772642725770978300,5.196978271484375,-0.0019319313578307629,-0.008066531270742416,-0.006226331926882267
1772642725781020200,5.207020263671875,-0.0032315540593117476,-0.005339987110346556,-0.008205592632293701
1772642725791061200,5.217061279296875,-0.004128073342144489,-0.005931624677032232,-0.007900779135525227
1772642725801103400,5.227103271484375,-0.005848475266247988,-0.008523679338395596,-0.008577222004532814
1772642725811144400,5.23714453125,-0.006594346836209297,-0.011395439505577087,-0.009561823680996895
1772642725821186300,5.247186279296875,-0.0036994910333305597,-0.011616481468081474,-0.010586075484752655
1772642725831227400,5.257227294921875,-0.007768644951283932,-0.012067337520420551,-0.008749532513320446
1772642725841269200,5.267269287109375,-0.004792296327650547,-0.015652751550078392,-0.007113819010555744
1772642725851310300,5.277310302734375,-0.006505284924060106,-0.01597355306148529,-0.0026195982936769724
1772642725861352200,5.287352294921875,-0.006108473986387253,-0.014300554990768433,-0.002156474394723773
1772642725871393300,5.297393310546875,-0.006516570691019297,-0.015824567526578903,-0.001325690420344472
1772642725885200400,5.311200439453125,-0.004023585468530655,-0.013342234306037426,-0.008387061767280102
1772642725895241200,5.3212412109375,-0.005272718146443367,-0.010833926498889923,-0.007351514883339405
1772642725905283300,5.331283447265625,-0.006173931993544102,-0.009287429042160511,-0.0056215254589915276
1772642725915324200,5.34132421875,-0.007088778540492058,-0.005696436855942011,-0.007985502481460571
1772642725925366300,5.3513662109375,-0.006851225160062313,-0.0031645693816244602,-0.010244661942124367
1772642725935407000,5.361406982421875,-0.008529715240001678,-0.0036692130379378796,-0.008157503791153431
1772642725945448200,5.3714482421875,-0.008636774495244026,-0.0034971730783581734,-0.006219787523150444
1772642725955490300,5.381490234375,-0.00901711080223322,-0.004605492111295462,-0.00400539580732584
1772642725965531400,5.391531494140625,-0.008796601556241512,-0.004762351978570223,-0.0043817004188895226
1772642725975573200,5.4015732421875,-0.008761385455727577,-0.0032823197543621063,-0.0048349592834711075
1772642725985614300,5.4116142578125,-0.011409899219870567,-0.0012553881388157606,-0.005133233033120632
1772642725995656200,5.42165625,-0.012057621963322163,-0.0019743323791772127,-0.008922507986426353
1772642726005697300,5.431697265625,-0.012033654376864433,-0.00282361451536417,-0.0060444301925599575
1772642726015739100,5.4417392578125,-0.009158264845609665,-0.005832124035805464,-0.004973558709025383
1772642726025780200,5.4517802734375,-0.00768527016043663,-0.005380452144891024,-0.007110479287803173
1772642726035822300,5.461822265625,-0.007928485050797462,-0.0036259284242987633,-0.008453807793557644
1772642726045863400,5.471863525390625,-0.007227806840091944,-0.006672318559139967,-0.012183565646409988
1772642726055905300,5.4819052734375,-0.005343676079064608,-0.006680565420538187,-0.011967303231358528
1772642726065946400,5.4919462890625,-0.005518645513802767,-0.011204743757843971,-0.011638136580586433
1772642726075988200,5.50198828125,-0.00603205431252718,-0.01011470053344965,-0.011172200553119183
1772642726086029300,5.512029296875,-0.006218475289642811,-0.011479037813842297,-0.006478379480540752
1772642726096071200,5.5220712890625,-0.00735538499429822,-0.01165093295276165,-0.006672809366136789
1772642726106112300,5.5321123046875,-0.006465622689574957,-0.01152762770652771,-0.0074134343303740025
1772642726116154000,5.542154052734375,-0.007653689943253994,-0.011832617223262787,-0.010123739019036293
1772642726126195200,5.5521953125,-0.004384659696370363,-0.011743667535483837,-0.011644137091934681
1772642726136237300,5.5622373046875,-0.004864498972892761,-0.013604038394987583,-0.009948758408427238
1772642726146278400,5.5722783203125,-0.0029851060826331377,-0.015979046002030373,-0.009473650716245174
1772642726156320300,5.5823203125,-0.0009240983636118472,-0.015222541987895966,-0.007159755565226078
1772642726166361300,5.592361328125,0.00021253875456750393,-0.014136238023638725,-0.004829755984246731
1772642726176403200,5.6024033203125,0.0003177769831381738,-0.01356083806604147,-0.006480518728494644
1772642726186444300,5.6124443359375,0.0008088639006018639,-0.014485487714409828,-0.006630987860262394
1772642726196486100,5.622486083984375,0.0020858063362538815,-0.012026216834783554,-0.0087387440726161
1772642726206527200,5.63252734375,0.0006849835626780987,-0.012467235326766968,-0.014250155538320541
1772642726216569000,5.642569091796875,-0.00021099677542224526,-0.015115119516849518,-0.015548194758594036
1772642726226610200,5.652610107421875,-0.0004919602652080357,-0.016104217618703842,-0.016486957669258118
1772642726236652300,5.66265234375,-0.0014165353495627642,-0.013799037784337997,-0.014354962855577469
1772642726246693400,5.672693359375,0.0000812263460829854,-0.011719908565282822,-0.008612655103206635
1772642726256735200,5.6827353515625,0.0002406068961136043,-0.012846200726926327,-0.011743716895580292
1772642726266777300,5.69277734375,-0.0009785883594304323,-0.011133521795272827,-0.01341405138373375
1772642726276818200,5.702818115234375,0.0014459663070738316,-0.012141692452132702,-0.01569731906056404
1772642726286859300,5.712859375,0.0024776749778538942,-0.011277230456471443,-0.019436130300164223
1772642726296901000,5.722901123046875,0.004945830907672644,-0.009970796294510365,-0.022613557055592537
1772642726306942200,5.732942138671875,0.005849974229931831,-0.010281587019562721,-0.016120504587888718
1772642726316984000,5.742984130859375,0.006452102214097977,-0.010451597161591053,-0.006850166246294975
1772642726327025200,5.753025146484375,0.006375136785209179,-0.011639367789030075,-0.006373194046318531
1772642726337067300,5.7630673828125,0.0047445702366530895,-0.013131221756339073,-0.008101326413452625
1772642726347108400,5.7731083984375,0.0036438857205212116,-0.017369376495480537,-0.012302196584641933
1772642726357150200,5.783150146484375,0.0020199695136398077,-0.022859415039420128,-0.012812571600079536
1772642726367191300,5.79319140625,-0.0006328051094897091,-0.02817082405090332,-0.013522570952773094
1772642726377233200,5.803233154296875,-0.001514496747404337,-0.03382958099246025,-0.008029826916754246
1772642726387274200,5.813274169921875,-0.0019778867717832327,-0.03697690740227699,-0.008034621365368366
1772642726397316000,5.823316162109375,-0.0036567433271557093,-0.03479471057653427,-0.01049564778804779
1772642726407357200,5.833357177734375,-0.004178989212960005,-0.030903300270438194,-0.01124506164342165
1772642726417399300,5.8433994140625,-0.005729785189032555,-0.02765827439725399,-0.014967205002903938
1772642726427440000,5.853440185546875,-0.0046629230491817,-0.025460900738835335,-0.015112347900867462
1772642726437482200,5.863482177734375,-0.005257711745798588,-0.02268376015126705,-0.01026872731745243
1772642726447523300,5.8735234375,-0.00444251811131835,-0.018446138128638268,-0.011270342394709587
1772642726457565200,5.883565185546875,-0.0025474003050476313,-0.014584719203412533,-0.004319898784160614
1772642726467606300,5.893606201171875,-0.0008866531425155699,-0.00885146576911211,-0.0005488630849868059
1772642726477648400,5.9036484375,-0.0017777658067643642,-0.003950672689825296,-0.004655338823795319
1772642726487689200,5.913689208984375,-0.004187393933534622,0.0009498099097982049,-0.00224810722284019
1772642726497731300,5.9237314453125,-0.004368377383798361,0.003167282324284315,-0.005796343088150024
1772642726507772200,5.933772216796875,-0.0025172140449285507,0.005876515991985798,-0.0050272224470973015
1772642726517814300,5.943814208984375,-0.0036511318758130074,0.00954048614948988,0.00037126149982213974
1772642726527855000,5.953855224609375,-0.002316621830686927,0.01799655519425869,0.0027894116938114166
1772642726537897500,5.9638974609375,-0.0037833990063518286,0.022165901958942413,0.0035465597175061703
1772642726547938300,5.973938232421875,-0.0032523644622415304,0.02828930877149105,0.00440276600420475
1772642726557980400,5.98398046875,-0.003301638411357999,0.030193880200386047,0.0029398733749985695
1772642726568021200,5.994021240234375,-0.004582619294524193,0.03020906075835228,0.004612338729202747
1772642726578063400,6.0040634765625,-0.006820795591920614,0.027672141790390015,0.007605476304888725
1772642726588104200,6.014104248046875,-0.00725941825658083,0.024686738848686218,0.013819962739944458
1772642726598146300,6.024146240234375,-0.006801205687224865,0.02232147939503193,0.01641708053648472
1772642726608187100,6.034187255859375,-0.007470990996807814,0.022593121975660324,0.017847729846835136
1772642726618229500,6.0442294921875,-0.007968307472765446,0.021946236491203308,0.016825471073389053
1772642726628270300,6.054270263671875,-0.009210672229528427,0.018735263496637344,0.014073093421757221
1772642726638312400,6.0643125,-0.010858134366571903,0.019015904515981674,0.011812064796686172
1772642726648353300,6.074353271484375,-0.007227713707834482,0.016608938574790955,0.007210389245301485
1772642726658394400,6.084394287109375,-0.008274003863334656,0.014665595255792141,0.008227204903960228
1772642726668436200,6.094436279296875,-0.006508061662316322,0.012867162935435772,0.005276422947645187
1772642726678477300,6.104477294921875,-0.006670803762972355,0.00990485493093729,0.004938575439155102
1772642726688519200,6.114519287109375,-0.0051432144828140736,0.008295240812003613,0.0054709417745471
1772642726698560300,6.124560302734375,-0.004738277290016413,0.00569072924554348,0.006223694421350956
1772642726708602000,6.13460205078125,-0.004721765872091055,0.003733039367944002,0.005367488134652376
1772642726718643200,6.144643310546875,-0.003562937956303358,0.0007894961163401604,0.002512573031708598
1772642726728685300,6.154685302734375,-0.003592499066144228,0.0003162524080835283,0.001774344826117158
1772642726738726400,6.164726318359375,-0.002276439219713211,-0.0018552367109805346,0.004563871771097183
1772642726748768300,6.174768310546875,-0.0034375775139778852,-0.00317430030554533,0.007779371924698353
1772642726758809900,6.184809814453125,-0.001433369005098939,-0.003220687620341778,0.00734208757057786
1772642726768851700,6.194851806640625,-0.0026198073755949736,-0.002936794888228178,0.0077221207320690155
1772642726778892800,6.204892822265625,-0.002123035956174135,-0.004823476076126099,0.00530850887298584
1772642726788934700,6.2149345703125,-0.0017094468930736184,-0.005481809377670288,0.0027899572160094976
1772642726798975700,6.224975830078125,-0.0014011324383318424,-0.00842706672847271,0.002542131347581744
1772642726809017600,6.235017578125,-0.0045572444796562195,-0.009579683654010296,0.005408757831901312
1772642726819058700,6.24505859375,-0.005120323970913887,-0.010749658569693565,0.003834037808701396
1772642726829100500,6.2551005859375,-0.005414070561528206,-0.008673991076648235,0.003176769707351923
1772642726839141600,6.2651416015625,-0.00678385142236948,-0.009703939780592918,0.0009011006914079189
1772642726849183700,6.275183837890625,-0.008251253515481949,-0.008298322558403015,0.0018395986407995224
1772642726859224800,6.285224853515625,-0.009058352559804916,-0.006348619237542152,0.00033691455610096455
1772642726869266700,6.2952666015625,-0.008759546093642712,-0.005517979618161917,-0.0002180882729589939
1772642726879307800,6.305307861328125,-0.00796464178711176,-0.005044747143983841,-0.0022576863411813974
1772642726889349600,6.315349609375,-0.009449354372918606,-0.005022643133997917,0.0005663294577971101
1772642726899390700,6.325390625,-0.007887478917837143,-0.0054136887192726135,0.0007960456423461437
1772642726909432600,6.3354326171875,-0.009725060313940048,-0.0009457033593207598,0.0009012405062094331
1772642726919473700,6.3454736328125,-0.00904660951346159,0.0002730001579038799,-0.005658674985170364
1772642726929515500,6.355515625,-0.008193599060177803,0.0015936617273837328,-0.009038493037223816
1772642726939556600,6.365556640625,-0.008823095820844173,-0.0004082888481207192,-0.0096969585865736
1772642726949598700,6.3755986328125,-0.007856101728975773,-0.0037950307596474886,-0.00945301167666912
1772642726959639800,6.385639892578125,-0.00680571561679244,-0.0015852302312850952,-0.009964851662516594
1772642726969681700,6.395681640625,-0.0049809180200099945,-0.0011649834923446178,-0.008115552365779877
1772642726979722800,6.40572265625,-0.005934033077210188,-0.0015233892481774092,-0.0044853948056697845
1772642726989764600,6.4157646484375,-0.00836549885571003,0.0032828175462782383,-0.003160738619044423
1772642726999805700,6.4258056640625,-0.006818429566919804,0.0011163749732077122,-0.004491670988500118
1772642727009846800,6.4358466796875,-0.006457038223743439,0.0015302301617339253,-0.003337722970172763
1772642727019888600,6.445888671875,-0.005143994465470314,-0.0007803246844559908,-0.0030491643119603395
1772642727029929700,6.4559296875,-0.004180729389190674,-0.0015505107585340738,-0.0012805589940398932
1772642727039971600,6.4659716796875,-0.0009179860353469849,-0.003978244960308075,0.0014077736996114254
1772642727050012700,6.4760126953125,-0.0007147868163883686,-0.00233773747459054,0.0016080434434115887
1772642727060054800,6.4860546875,-0.0014258997980505228,0.001898274989798665,0.002187398262321949
1772642727070096000,6.496095947265625,-0.0009963319171220064,0.004498851951211691,0.0015394511865451932
1772642727080137700,6.5061376953125,-0.0012838358525186777,0.006610044278204441,0.00414375402033329
1772642727090178800,6.5161787109375,-0.0013152610044926405,0.006351185031235218,0.004041754640638828
1772642727100220700,6.526220703125,0.0001212357310578227,0.006396624259650707,0.007246744818985462
1772642727110261800,6.53626171875,0.0001337525900453329,0.0034168134443461895,0.005640858318656683
1772642727120303600,6.5463037109375,-0.0004667722969315946,0.005377387162297964,0.0027413524221628904
1772642727130344700,6.5563447265625,-0.0009631855064071715,0.0038186393212527037,0.0031426907517015934
1772642727140386600,6.566386474609375,-0.0026902512181550264,0.0038600643165409565,0.002851321827620268
1772642727150427600,6.576427734375,-0.0025709415785968304,0.0023929288145154715,0.0024593044072389603
1772642727160469800,6.5864697265625,-0.0033700456842780113,0.0011885046260431409,0.0006921867607161403
1772642727170510800,6.5965107421875,-0.0005420349771156907,0.0006787755410186946,0.0018487975466996431
1772642727180552700,6.606552734375,-0.002065734239295125,0.0006739785894751549,0.0025895521976053715
1772642727190593800,6.61659375,-0.0017192570958286524,-0.0009164611692540348,0.005508909467607737
1772642727200635600,6.6266357421875,-0.0022988838609308004,0.0008607074269093573,0.0033101870212703943
1772642727210676700,6.6366767578125,-0.0013334881514310837,-0.00027806026628240943,0.003175164572894573
1772642727220718600,6.646718505859375,-0.000376701180357486,-0.0010099452920258045,0.00479597132652998
1772642727230759700,6.656759765625,-0.00039427803130820394,-0.001556692412123084,0.004507550969719887
1772642727240801500,6.666801513671875,-0.0003659434150904417,0.0011842367239296436,0.0024533269461244345
1772642727250842600,6.676842529296875,0.00043673336040228605,0.0011323050130158663,0.0017939283279702067
1772642727260884700,6.686884765625,0.0014066621661186218,0.0006720898672938347,0.0012105306377634406
1772642727270925800,6.69692578125,0.0006204969249665737,0.001256387447938323,0.0003750971518456936
1772642727280967700,6.7069677734375,0.0028252173215150833,0.00026970350882038474,0.0007146772695705295
1772642727291008800,6.7170087890625,0.0020518354140222073,0.0010894244769588113,0.001076600863598287
1772642727301050600,6.727050537109375,0.003243884304538369,0.002151713939383626,-0.00020503508858382702
1772642727311091700,6.737091796875,0.001243583974428475,0.0023975237272679806,-0.0018370200414210558
1772642727321133600,6.747133544921875,0.0013318033888936043,0.003180586965754628,-0.0016041439957916737
1772642727331174700,6.757174560546875,0.00016134418547153473,0.0006609703414142132,-0.00026271003298461437
1772642727341215500,6.767215576171875,0.0005013914778828621,-0.00025226559955626726,0.0004743401659652591
1772642727351257900,6.7772578125,0.0009780973196029663,-0.00007143692346289754,0.0010698229307308793
1772642727361298700,6.787298583984375,0.0006257126806303859,0.000633491319604218,0.004240436479449272
1772642727371340800,6.7973408203125,-0.000030756520573049784,0.0006617208127863705,0.0043565500527620316
1772642727381381600,6.807381591796875,0.0005717924796044827,0.00022500223712995648,0.001799362013116479
1772642727391423700,6.817423828125,0.0023265492636710405,0.0022218404337763786,0.00004194187931716442
1772642727401464600,6.827464599609375,-0.0020694683771580458,-0.0009663825621828437,-0.0005990697536617517
1772642727411506700,6.837506591796875,-0.002408755011856556,-0.0013890262925997376,-0.0009660534560680389
1772642727421547800,6.8475478515625,-0.002769105602055788,-0.003061427269130945,-0.0011788243427872658
1772642727431589600,6.857589599609375,-0.0033097274135798216,-0.00284943962469697,-0.003084049792960286
1772642727441630700,6.867630615234375,-0.003959525842219591,-0.0006434419774450362,-0.0018399611581116915
1772642727451672800,6.8776728515625,-0.0032623102888464928,-0.0003092152182944119,-0.000755255576223135
1772642727461713700,6.887713623046875,-0.003822862636297941,0.0013532873708754778,-0.00017881742678582668
1772642727471755800,6.897755859375,-0.0040321871638298035,0.0015072179958224297,-0.002156481146812439
1772642727481796900,6.907796875,-0.004027200862765312,0.00042735866736620665,-0.0013060017954558134
1772642727491838700,6.917838623046875,-0.0020873546600341797,0.0006310904864221811,0.0003507507499307394
1772642727501879800,6.9278798828125,0.00046566134551540017,-0.0012047698255628347,-0.000607833731919527
1772642727511921700,6.937921630859375,0.00022864004131406546,-0.001505973283201456,-0.0022850926034152508
1772642727521962800,6.947962646484375,-0.0011307855602353811,-0.0004278204869478941,-0.001186006935313344
1772642727532004600,6.958004638671875,-0.0015148133970797062,0.001116546569392085,-0.0014049187302589417
1772642727542045700,6.968045654296875,-0.005156760569661856,0.000486495322547853,0.0010639639804139733
1772642727552087800,6.978087890625,-0.004420929122716188,-0.0010853023268282413,0.002392881317064166
1772642727562129000,6.98812890625,-0.004144820384681225,-0.0032497653737664223,0.003379043424502015
1772642727572170800,6.998170654296875,-0.005746445618569851,-0.0030116785783320665,0.002041071420535445
1772642727582211800,7.0082119140625,-0.0041774725541472435,-0.002825520234182477,0.0037080813199281693
1772642727592253700,7.018253662109375,-0.004740730859339237,-0.002334433374926448,0.0047331321984529495
1772642727602294800,7.028294677734375,-0.0026596246752887964,-0.0026114173233509064,0.004081169608980417
1772642727612336600,7.038336669921875,-0.0022316547110676765,-0.0018233876908198,0.003925374709069729
1772642727622377700,7.048377685546875,-0.0005140413995832205,-0.00035154575016349554,0.00052307837177068
1772642727632419600,7.058419677734375,0.0008308549295179546,-0.0004665942396968603,-0.004894323647022247
1772642727642460700,7.068460693359375,-0.0014319892507046461,-0.004628424532711506,-0.0017508631572127342
1772642727652501500,7.07850146484375,-0.000696424103807658,-0.00561912078410387,0.0007309364154934883
1772642727662544000,7.0885439453125,-0.0017593964003026485,-0.007666295859962702,-0.0008548463229089975
1772642727672584700,7.098584716796875,-0.003329063532873988,-0.007205302361398935,-0.0025107997935265303
1772642727682626800,7.108626708984375,-0.0012070934753865004,-0.0037894423585385084,-0.003675157902762294
1772642727692667600,7.118667724609375,-0.0006728633888997138,-0.0026203147135674953,-0.005343361757695675
1772642727702709800,7.128709716796875,0.0022079013288021088,-0.0005533606163226068,-0.007189835887402296
1772642727712750600,7.13875048828125,0.0036111208610236645,-0.0007810609531588852,-0.004498711787164211
1772642727722792700,7.148792724609375,0.0028449862729758024,-0.0018679036293178797,-0.003002554876729846
1772642727732833500,7.15883349609375,0.004650343209505081,-0.0029470163863152266,-0.0012395423837006092
1772642727742875600,7.168875732421875,0.004141753539443016,-0.0033004707656800747,-0.0016157131176441908
1772642727752916500,7.17891650390625,0.005756961181759834,-0.0027095149271190166,-0.000720358220860362
1772642727762958800,7.188958740234375,0.004712704569101334,-0.0034789585042744875,-0.00005244114436209202
1772642727772999700,7.198999755859375,0.005312981083989143,-0.006442524027079344,0.003524184226989746
1772642727783041800,7.209041748046875,0.0059719393029809,-0.007752897217869759,0.004747383296489716
1772642727793082600,7.21908251953125,0.006074737291783094,-0.00700854416936636,0.004160955082625151
1772642727803124700,7.229124755859375,0.0061608776450157166,-0.0064051165245473385,0.002828848548233509
1772642727813165600,7.23916552734375,0.004770441446453333,-0.0016031707637012005,-0.002092673210427165
1772642727823207700,7.249207763671875,0.004534718580543995,0.003011915134266019,-0.005551064386963844
1772642727833248500,7.25924853515625,0.0022923368960618973,0.004696897231042385,-0.005315374583005905
1772642727843290600,7.26929052734375,0.0020214191172271967,0.004578439053148031,-0.004453976172953844
1772642727853331500,7.27933154296875,0.0008807872072793543,0.003197323763743043,-0.00006881519220769405
1772642727863373800,7.289373779296875,-0.0006434198003262281,0.00422070873901248,0.0013720677234232426
1772642727873414700,7.29941455078125,-0.0014136058744043112,0.0071914647705852985,0.0019837957806885242
1772642727883456800,7.309456787109375,-0.003523108549416065,0.009476356208324432,-0.0008523287251591682
1772642727893497600,7.31949755859375,-0.005081590265035629,0.01183565054088831,-0.0028313237708061934
1772642727903539700,7.329539794921875,-0.005584141239523888,0.013988714665174484,-0.0062347035855054855
1772642727913580500,7.33958056640625,-0.009721893817186356,0.014539988711476326,-0.007549772970378399
1772642727923622700,7.34962255859375,-0.012103664688766003,0.01691339537501335,-0.009483898058533669
1772642727933663500,7.35966357421875,-0.014876014553010464,0.01840183511376381,-0.012089268304407597
1772642727943704600,7.36970458984375,-0.013669070787727833,0.01786973513662815,-0.012154782190918922
1772642727953746400,7.379746337890625,-0.015187871642410755,0.017126979306340218,-0.012110840529203415
1772642727963787500,7.38978759765625,-0.014533898793160915,0.015276199206709862,-0.012111494317650795
1772642727973829600,7.39982958984375,-0.013171426020562649,0.01599179022014141,-0.012547986581921577
1772642727983870700,7.40987060546875,-0.012226169928908348,0.014336519874632359,-0.01334761269390583
1772642727993912600,7.41991259765625,-0.011389404535293579,0.013142891228199005,-0.012752396054565907
1772642728003953700,7.42995361328125,-0.011926306411623955,0.010315962135791779,-0.012519218027591705
1772642728013995500,7.43999560546875,-0.010695925913751125,0.006785409525036812,-0.010885101743042469
1772642728024036600,7.45003662109375,-0.01296818908303976,0.0019769431091845036,-0.00752967968583107
1772642728034078700,7.46007861328125,-0.008926842361688614,-0.001696621417067945,-0.005752285942435265
1772642728044119600,7.47011962890625,-0.007858376018702984,-0.0017108821775764227,-0.004742396529763937
1772642728054161700,7.48016162109375,-0.0038761510513722897,-0.002669087378308177,0.000012677628546953201
1772642728064202500,7.490202392578125,-0.0035407848190516233,-0.0021389047615230083,0.0008911219192668796
1772642728074244900,7.500244873046875,-0.0012070569209754467,-0.0005013270420022309,-0.0005909272003918886
1772642728084285700,7.51028564453125,0.0006700875237584114,-0.001127274939790368,0.0014232229441404343
1772642728094327800,7.520327880859375,-0.0020958716049790382,-0.00035575730726122856,-0.0030658014584332705
1772642728104368600,7.53036865234375,0.0004976192722097039,-0.0029632551595568657,-0.0017487318255007267
1772642728114410800,7.54041064453125,0.0010800525778904557,-0.001267620362341404,-0.003541572019457817
1772642728124451600,7.55045166015625,-0.0001460229977965355,-0.001604618737474084,-0.002860469976440072
1772642728134493700,7.56049365234375,-0.0004248559707775712,-0.000780636677518487,-0.004882342182099819
1772642728144534500,7.570534423828125,-0.0005048734019510448,-0.0010354593396186829,-0.008101318962872028
1772642728154576600,7.58057666015625,-0.0011831806041300297,0.002147550927475095,-0.009917860850691795
1772642728164617500,7.590617431640625,0.0013017280725762248,0.0023823927622288465,-0.01074876170605421
1772642728174659800,7.600659912109375,-0.0006407815963029861,0.0029717504512518644,-0.0059691863134503365
1772642728184700700,7.61070068359375,-0.001635930733755231,0.0010768587235361338,-0.008026078343391418
1772642728194742800,7.62074267578125,-0.0037555403541773558,0.003255058079957962,-0.005668647587299347
1772642728204783600,7.63078369140625,-0.002746573882177472,0.0014209354994818568,-0.00846617016941309
1772642728214825700,7.64082568359375,-0.0024554904084652662,-0.0009330325410701334,-0.006009137257933617
1772642728224866600,7.650866455078125,-0.0055578937754035,-0.0009634415036998689,-0.006523654796183109
1772642728234907600,7.66090771484375,-0.0060559045523405075,-0.0013016629964113235,-0.005201395135372877
1772642728244949500,7.670949462890625,-0.010491102002561092,-0.0010504708625376225,-0.008883478119969368
1772642728254990600,7.680990478515625,-0.012443732470273972,0.0016891229897737503,-0.007004084996879101
1772642728265032400,7.691032470703125,-0.014207233674824238,0.004662699997425079,-0.005285683088004589
1772642728275073800,7.70107373046875,-0.018133798614144325,0.007472867611795664,-0.0054811593145132065
1772642728285115600,7.71111572265625,-0.015690602362155914,0.009378993883728981,-0.0007717651315033436
1772642728295156700,7.72115673828125,-0.01669328287243843,0.009029054082930088,0.00198806868866086
1772642728305198600,7.731198486328125,-0.015252257697284222,0.009440943598747253,0.001973827602341771
1772642728315239700,7.74123974609375,-0.01506557036191225,0.009543742053210735,0.0029509414453059435
1772642728325281500,7.751281494140625,-0.011760544031858444,0.008985966444015503,0.00812559388577938
1772642728335322600,7.761322509765625,-0.010357324033975601,0.01116203609853983,0.007000141777098179
1772642728345364500,7.771364501953125,-0.008499665185809135,0.015566907823085785,0.004977076314389706
1772642728355405600,7.781405517578125,-0.006227456033229828,0.016403939574956894,0.005741403438150883
1772642728365447700,7.79144775390625,-0.0045394571498036385,0.015162423253059387,0.004905697889626026
1772642728375488800,7.80148876953125,-0.003560745855793357,0.014436178840696812,0.0010995081393048167
1772642728385530600,7.811530517578125,-0.0030466376338154078,0.012557689100503922,-0.0023016168270260096
1772642728395571700,7.82157177734375,-0.003622946096584201,0.012143302708864212,-0.004845734685659409
1772642728405613600,7.831613525390625,-0.006383294705301523,0.0100569361820817,-0.0032319824676960707
1772642728415654700,7.841654541015625,-0.005171023774892092,0.009375966154038906,-0.004344651475548744
1772642728425696500,7.851696533203125,-0.007798053324222565,0.006685324478894472,-0.0018066547345370054
1772642728435737600,7.861737548828125,-0.006716810166835785,0.0055444263853132725,-0.0005680187605321407
1772642728445779500,7.871779541015625,-0.006314293015748262,0.003219207050278783,-0.0018016116227954626
1772642728455820500,7.881820556640625,-0.0046713887713849545,0.0009451336227357388,-0.0028437066357582808
1772642728465862700,7.891862548828125,-0.005282313097268343,0.0006056997226551175,-0.002850082702934742
1772642728475903700,7.90190380859375,-0.002475607907399535,-0.0008803441887721419,-0.003043428063392639
1772642728485945600,7.911945556640625,-0.0011093677021563053,-0.0029415925964713097,-0.00025578285567462444
1772642728495986700,7.921986572265625,-0.002697144402191043,-0.0014062800910323858,-0.0016211853362619877
1772642728506027800,7.93202783203125,-0.0025016632862389088,-0.001119604567065835,-0.004171145614236593
1772642728516069600,7.942069580078125,-0.002642011735588312,-0.002137731062248349,-0.004241453018039465
1772642728526110700,7.95211083984375,-0.004731218330562115,-0.0025951042771339417,-0.004693260416388512
1772642728536152600,7.962152587890625,-0.0049687717109918594,-0.004313642159104347,-0.004876486025750637
1772642728546193700,7.972193603515625,-0.00434733834117651,-0.0015318650985136628,-0.006691431626677513
1772642728556235500,7.982235595703125,-0.0036381385289132595,0.002150221262127161,-0.0068871742114424706
1772642728566276600,7.992276611328125,-0.0015075792325660586,0.004748723469674587,-0.00919213704764843
1772642728576318700,8.002318603515626,-0.0009834691882133484,0.007609491236507893,-0.008662167936563492
1772642728586359800,8.01235986328125,-0.0009015051182359457,0.007608580403029919,-0.007147368974983692
1772642728596401700,8.022401611328124,-0.00020934955682605505,0.0077675711363554,-0.007298369891941547
1772642728606442800,8.03244287109375,0.002288726158440113,0.007725548930466175,-0.006793697364628315
1772642728616484600,8.042484619140625,0.0034474674612283707,0.009576446376740932,-0.005843214690685272
1772642728626525700,8.052525634765624,0.00486002117395401,0.007244151085615158,-0.004737077280879021
1772642728636567600,8.062567626953125,0.005298377480357885,0.004330919124186039,-0.0019383614417165518
1772642728646608600,8.072608642578125,0.006336141377687454,0.002687121042981744,0.0006900585722178221
1772642728656650500,8.082650390625,0.0073372237384319305,0.0006985386717133224,0.005270695313811302
1772642728666691600,8.092691650390625,0.005410719197243452,0.00002949003828689456,0.003963871859014034
1772642728676733700,8.102733642578125,0.007047231774777174,0.0005940801929682493,0.0015103016048669815
1772642728686774800,8.11277490234375,0.005414643790572882,0.00034631078597158194,0.0023679849691689014
1772642728696816600,8.122816650390625,0.007753431797027588,-0.001483014551922679,0.00025210343301296234
1772642728706857700,8.132857666015624,0.00802431907504797,-0.0021670227870345116,0.0002077601384371519
1772642728716899600,8.142899658203126,0.005774480756372213,-0.0005092049250379205,-0.0008788094855844975
1772642728726940700,8.152940673828125,0.004203215707093477,-0.003390745259821415,0.00016355165280401707
1772642728736982500,8.162982421875,0.002757119480520487,-0.006358571816235781,-0.0016282231081277132
1772642728747023600,8.173023681640625,0.002290577394887805,-0.007550711743533611,-0.0003282027319073677
1772642728757065200,8.183065185546875,0.0031134942546486855,-0.0074188848957419395,0.0006366604939103127
1772642728767106300,8.193106201171876,0.0031054436694830656,-0.0066221789456903934,0.0005106870085000992
1772642728777147400,8.2031474609375,0.005039164796471596,-0.004836795385926962,-0.00027467915788292885
1772642728787189200,8.213189208984375,0.0014061718247830868,-0.0031875986605882645,-0.0015154378488659859
1772642728797230300,8.223230224609376,-0.0012183734215795994,-0.005780186038464308,-0.00344489817507565
1772642728807272200,8.233272216796875,-0.0028306376188993454,-0.009157770313322544,-0.0014503279235213995
1772642728817313300,8.243313232421874,-0.0018410071497783065,-0.010083485394716263,0.0016053831204771996
1772642728827355400,8.25335546875,-0.0010773662943392992,-0.011134116910398006,0.004683711100369692
1772642728837396500,8.263396484375,-0.0009537956793792546,-0.010113327763974667,0.00489756278693676
1772642728847438300,8.273438232421874,-0.00271293125115335,-0.009399705566465855,0.0027760914526879787
1772642728857479400,8.2834794921875,-0.0013770896475762129,-0.00835414882749319,-0.0027401139959692955
1772642728867521300,8.293521240234375,-0.002524239243939519,-0.007551292888820171,-0.005854791030287743
1772642728877562400,8.303562255859376,-0.0028709827456623316,-0.007209610193967819,-0.008945922367274761
1772642728887604200,8.313604248046875,-0.0039093405939638615,-0.008426425978541374,-0.005703677423298359
1772642728897645300,8.323645263671875,-0.004338642116636038,-0.009505804628133774,-0.0038647649344056845
1772642728907687200,8.333687255859376,-0.004912178032100201,-0.00607686210423708,-0.003174320561811328
1772642728917728300,8.343728271484375,-0.003278861055150628,-0.0037215626798570156,-0.0066273752599954605
1772642728927770400,8.353770263671874,-0.00409458763897419,-0.003780684433877468,-0.0039804596453905106
1772642728937811500,8.3638115234375,-0.003806167049333453,0.0025600355584174395,-0.0016970655415207148
1772642728947853300,8.373853271484375,-0.005880341399461031,0.007863451726734638,-0.0006809390615671873
1772642728957894400,8.383894287109374,-0.007998885586857796,0.011762585490942001,-0.002643422456458211
1772642728967936300,8.393936279296875,-0.007544388994574547,0.009139901027083397,0.00434004794806242
1772642728977977300,8.403977294921875,-0.007903116755187511,0.00903497263789177,0.00912468321621418
1772642728988019200,8.414019287109374,-0.006426647771149874,0.006939432583749294,0.008090704679489136
1772642728998060300,8.424060302734375,-0.0036194096319377422,0.004212888423353434,0.007737569510936737
1772642729008102100,8.43410205078125,-0.0034995933528989553,0.004952244460582733,0.006291483994573355
1772642729018143200,8.444143310546876,-0.003951797727495432,0.003989512100815773,0.0034677344374358654
1772642729028184000,8.45418408203125,-0.004172783810645342,0.0063767628744244576,0.0033833044581115246
1772642729038226400,8.464226318359374,-0.0039261747151613235,0.00891448836773634,0.001694860402494669
1772642729048267300,8.474267333984375,-0.004461835138499737,0.007877951487898827,0.0015235005412250757
1772642729058309400,8.484309326171875,-0.003747841576114297,0.009767730720341206,0.0016361523885279894
1772642729068350200,8.49435009765625,-0.0026190318167209625,0.00767927709966898,0.0035524293780326843
1772642729078392300,8.504392333984375,-0.0034222411923110485,0.006745573133230209,0.0027505517937242985
1772642729088433200,8.51443310546875,-0.0002477531088516116,0.006466207560151815,0.0027976897545158863
1772642729098475300,8.524475341796874,0.0011629234068095684,0.006235311273485422,0.0021470794454216957
1772642729108516000,8.53451611328125,-0.0009663507807999849,0.005499416030943394,-0.00038120103999972343
1772642729118558200,8.54455810546875,-0.0006667451234534383,0.007483471184968948,0.0003716745413839817
1772642729128599000,8.55459912109375,-0.0018064433243125677,0.00419612368568778,0.001479155384004116
1772642729138641400,8.564641357421875,-0.0033526746556162834,0.0028717336244881153,0.001916180131956935
1772642729148682200,8.57468212890625,-0.0020378888584673405,0.002416113391518593,0.0012686257250607014
1772642729158724400,8.584724365234376,-0.005966850556433201,0.0012736172648146749,-0.0003164876252412796
1772642729168765200,8.59476513671875,-0.003456980222836137,0.00142473797313869,0.00045064615551382303
1772642729178807300,8.604807373046874,-0.004177898168563843,0.0024761538952589035,0.0019758385606110096
1772642729188848400,8.614848388671875,-0.00477211270481348,0.002935054711997509,-0.000494522275403142
1772642729198890200,8.62489013671875,-0.001248750719241798,0.004073822405189276,-0.0019616575445979834
1772642729208931300,8.634931396484374,-0.0008879537344910204,0.0027506519109010696,-0.005388088524341583
1772642729218973200,8.64497314453125,-0.001963071757927537,0.003623103490099311,-0.004614706616848707
1772642729229014300,8.65501416015625,-0.0033852234482765198,0.0015063362661749125,-0.0025238387752324343
1772642729239056400,8.665056396484376,-0.001584127196110785,-0.0024436642415821552,-0.004493778571486473
1772642729249097500,8.675097412109375,-0.003185115521773696,-0.0033589904196560383,-0.004792718682438135
1772642729259138300,8.68513818359375,-0.0021789735183119774,-0.00454276567324996,-0.004844650160521269
1772642729269180400,8.695180419921876,-0.0027261506766080856,-0.00447629950940609,-0.008498110808432102
1772642729279221200,8.70522119140625,-0.00508384732529521,-0.007199381478130817,-0.004050897434353828
1772642729289263400,8.715263427734374,-0.0025465358048677444,-0.008932728320360184,-0.00032593519426882267
1772642729299304200,8.72530419921875,-0.002125489991158247,-0.007127636577934027,0.00015103700570762157
1772642729309346300,8.73534619140625,-0.00031349743949249387,-0.005451516713947058,0.0006667332490906119
1772642729319387100,8.74538720703125,-0.0009188339463435113,-0.0019292202778160572,0.0006214595632627606
1772642729329429500,8.755429443359375,-0.0008833915926516056,0.002058404264971614,-0.0009680232033133507
1772642729339470300,8.76547021484375,-0.001834140159189701,0.004795601591467857,-0.005016027949750423
1772642729349512400,8.775512451171876,-0.0029973385389894247,0.008243691176176071,-0.002593229291960597
1772642729359553300,8.78555322265625,-0.0048026954755187035,0.00669080251827836,-0.0004035781603306532
1772642729369595400,8.795595458984375,-0.005611628293991089,0.0057936422526836395,0.0015446646139025688
1772642729379636200,8.80563623046875,-0.006310175638645887,0.005562214180827141,0.0030368338339030743
1772642729389678300,8.81567822265625,-0.005901913158595562,0.005522000603377819,0.005565771367400885
1772642729399719200,8.82571923828125,-0.007281696889549494,0.007337477058172226,0.005266432184726
1772642729409761300,8.83576123046875,-0.005647965241223574,0.007837247103452682,0.0033939648419618607
1772642729419802000,8.845802001953125,-0.004877246450632811,0.008701443672180176,0.0012895349645987153
1772642729429844500,8.855844482421874,-0.004277384839951992,0.007387544959783554,-0.0007112992461770773
1772642729439885300,8.86588525390625,-0.003158590756356716,0.006559833884239197,-0.00013286061584949493
1772642729449927400,8.875927490234375,-0.0015026372857391834,0.005353688262403011,-0.0017768300604075193
1772642729459968300,8.88596826171875,-0.0016792048700153828,0.002794390544295311,-0.0013983948156237602
1772642729470010400,8.89601025390625,-0.0030259350314736366,0.0036527831107378006,-0.0014180997386574745
1772642729480051200,8.90605126953125,-0.004611847456544638,0.0009059989242814481,0.001120958011597395
1772642729490092300,8.91609228515625,-0.005507437977939844,0.001790756592527032,0.0005771426949650049
1772642729500134100,8.926134033203125,-0.004791047889739275,0.004523692652583122,-0.003515869379043579
1772642729510175200,8.93617529296875,-0.004343963693827391,0.005016799084842205,-0.006354536861181259
1772642729520217000,8.946217041015625,-0.0038334359414875507,0.003491606330499053,-0.004809903912246227
1772642729530258200,8.956258056640625,-0.0004998362273909152,0.002646540990099311,-0.003597093280404806
1772642729540300300,8.96630029296875,-0.0006497721769846976,0.001656377804465592,-0.00447886623442173
1772642729550341400,8.97634130859375,-0.0014669508673250675,-0.0011247170623391867,-0.002863399451598525
1772642729560383200,8.98638330078125,-0.0015015718527138233,-0.001441100612282753,-0.0009520489256829023
1772642729570424300,8.99642431640625,-0.00114738498814404,-0.0032489565201103687,0.00040417001582682133
1772642729580466200,9.006466064453125,0.00040124316001310945,-0.004239918664097786,0.00039538159035146236
1772642729590507300,9.01650732421875,-0.001303642289713025,-0.002813967177644372,0.001711370307020843
1772642729600549000,9.026549072265626,0.0008388707065023482,-0.0010304481256753206,-0.00005856645293533802
1772642729610590200,9.036590087890625,0.0005800592480227351,0.00034401926677674055,-0.0006080986931920052
1772642729620632000,9.046632080078124,0.001427477109245956,0.0013355141272768378,-0.00019850465469062328
1772642729630673200,9.056673095703125,0.002005426911637187,0.001752456882968545,-0.00220692902803421
1772642729640715300,9.06671533203125,0.0011505521833896637,-0.0009354716166853905,-0.0018085204064846039
1772642729650756400,9.07675634765625,0.0027242139913141727,0.00004297378472983837,-0.003626394085586071
1772642729660798200,9.086798095703125,0.003472296055406332,0.001172154094092548,-0.003688978496938944
1772642729670839300,9.09683935546875,0.005023971665650606,0.00009820645209401846,-0.0027227846439927816
1772642729680881200,9.106881103515626,0.004844474606215954,-0.002012615092098713,-0.0014228958170861006
1772642729690922200,9.116922119140625,0.00506368326023221,-0.005627800710499287,-0.0020093212369829416
1772642729700964000,9.126964111328125,0.0052066948264837265,-0.005992920137941837,-0.00418911874294281
1772642729711005200,9.137005126953126,0.0055630998685956,-0.005512005649507046,-0.0027458181139081717
1772642729721046300,9.14704638671875,0.003299413016065955,-0.005481645464897156,-0.0036502277944236994
1772642729731088100,9.157088134765624,0.0027128090150654316,-0.005577352829277515,-0.0015010521747171879
1772642729741129200,9.167129150390625,0.0045860763639211655,-0.004100630059838295,-0.0025258364621549845
1772642729751171300,9.17717138671875,0.0031915551517158747,-0.003996666986495256,-0.00023871823213994503
1772642729761212400,9.18721240234375,0.0025982027873396873,-0.003838208969682455,0.00019617588259279728
1772642729771254500,9.197254638671875,0.0022530434653162956,-0.002297672675922513,-0.0004915823228657246
1772642729781295600,9.207295654296875,0.0016245373990386724,-0.004342181608080864,-0.0010037082247436047
1772642729791337500,9.21733740234375,0.0023014219477772713,-0.004273639060556889,-0.0022229093592613935
1772642729801378600,9.227378662109375,0.0036143604665994644,-0.004584163427352905,-0.0035382446367293596
1772642729811420400,9.23742041015625,0.00203257380053401,-0.00521192979067564,-0.004101909697055817
1772642729821461500,9.24746142578125,0.0010184419807046652,-0.004101924132555723,-0.00692033302038908
1772642729831503400,9.25750341796875,0.00269314250908792,-0.005090486258268356,-0.0068456269800662994
1772642729841544400,9.26754443359375,-0.0009681712836027145,-0.004915516823530197,-0.0035792600829154253
1772642729851586300,9.27758642578125,0.000007139227818697691,-0.004063725937157869,-0.003864479484036565
1772642729861627400,9.28762744140625,-0.00047143083065748215,-0.003951074555516243,-0.003934253938496113
1772642729871669500,9.29766943359375,0.00011619366705417633,-0.00478603458032012,-0.004532272927463055
1772642729881710600,9.307710693359375,-0.00024945841869339347,-0.002799848560243845,-0.007108082063496113
1772642729891751400,9.31775146484375,-0.0003783685970120132,-0.003600763389840722,-0.0072826482355594635
1772642729901793500,9.32779345703125,0.0010070077842101455,-0.003516340861096978,-0.0071846432983875275
1772642729911834400,9.33783447265625,-0.001392884529195726,-0.0037044654600322247,-0.005681288428604603
1772642729921876500,9.34787646484375,-0.0004312171367928386,-0.003321769181638956,-0.006175571121275425
1772642729931917300,9.357917236328126,-0.0010978063801303506,-0.003379293717443943,-0.003955027088522911
1772642729941959400,9.36795947265625,-0.0007947385311126709,-0.001674337894655764,-0.005354784429073334
1772642729952000300,9.378000244140624,-0.0005833256873302162,0.00006120174657553434,-0.0032158605754375458
1772642729962042400,9.38804248046875,0.0007072421722114086,-0.0008019287488423288,-0.000531394500285387
1772642729972083500,9.39808349609375,0.0008007173310033977,0.0018656442407518625,0.002190618310123682
1772642729982124300,9.408124267578126,0.00212537357583642,0.0025468808598816395,0.0025589335709810257
1772642729992166400,9.41816650390625,0.0033004041761159897,0.006725005805492401,-0.00020343204960227013
1772642730002207500,9.42820751953125,0.005272475071251392,0.008813989348709583,-0.0027092003729194403
1772642730012249300,9.438249267578126,0.005705312360078096,0.007437881547957659,-0.002336223842576146
1772642730022290400,9.44829052734375,0.0034618659410625696,0.007155586499720812,-0.0010057087056338787
1772642730032332500,9.45833251953125,0.003011997090652585,0.006453732028603554,0.0007833978161215782
1772642730042373400,9.468373291015626,0.002354728989303112,0.009037796407938004,0.0030417584348469973
1772642730052415500,9.47841552734375,0.0003069672384299338,0.012361960485577583,0.0022907531820237637
1772642730062456300,9.488456298828124,0.0013410727260634303,0.01624618098139763,0.000012152595445513725
1772642730072498400,9.49849853515625,-0.0007054964080452919,0.017069991677999496,0.0006905806949362159
1772642730082539500,9.50853955078125,-0.0006248026620596647,0.01799064688384533,-0.0014402144588530064
1772642730092581600,9.51858154296875,-0.0007684610900469124,0.014547725208103657,-0.0011469870805740356
1772642730102622500,9.52862255859375,-0.00008376239566132426,0.010903721675276756,0.001639744732528925
1772642730112664600,9.53866455078125,0.0006005216855555773,0.008373292163014412,0.0008836726192384958
1772642730122705400,9.548705322265626,-0.00014116859529167414,0.00898874830454588,-0.0012300782836973667
1772642730132747500,9.55874755859375,-0.0009283417603000998,0.009267575107514858,-0.006641361862421036
1772642730142788400,9.568788330078124,-0.0022719064727425575,0.009417777881026268,-0.00525278877466917
1772642730152830500,9.57883056640625,-0.003579960437491536,0.008474652655422688,-0.004492715932428837
1772642730162871300,9.588871337890625,-0.005036177113652229,0.005213345866650343,-0.004535060375928879
1772642730172913700,9.59891357421875,-0.002975290874019265,0.0034742432180792093,-0.003984456416219473
1772642730182954500,9.60895458984375,-0.0019193475600332022,0.0031788984779268503,-0.0025013419799506664
1772642730192996600,9.61899658203125,-0.0005532475770451128,0.0002175773261114955,-0.0007493756711483002
1772642730203037400,9.629037353515624,-0.0009282206301577389,0.00008548458572477102,-0.0008447167929261923
1772642730213078500,9.63907861328125,-0.00028867757646366954,-0.0036031543277204037,-0.0010380628518760204
1772642730223120400,9.649120361328125,-0.0015614021103829145,-0.0036971638910472393,-0.002476436085999012
1772642730233161500,9.659161376953126,-0.0012184036895632744,-0.004310443066060543,-0.004514958243817091
1772642730243203300,9.669203369140625,-0.001723072724416852,-0.00504547543823719,-0.002699481323361397
1772642730253244400,9.679244384765624,-0.0012371615739539266,-0.0065277800895273685,-0.002395074814558029
1772642730263286300,9.689286376953126,-0.001819062395952642,-0.005031083710491657,0.00005929451435804367
1772642730273328600,9.69932861328125,-0.002022875240072608,-0.0031361605506390333,0.0001840412151068449
1772642730283369500,9.709369384765624,-0.0026343369390815496,-0.00033025414450094104,0.00040774676017463207
1772642730293411600,9.71941162109375,-0.003500008024275303,0.0013847795780748129,0.001631217310205102
1772642730303452400,9.729452392578125,-0.0019069050904363394,0.0027373991906642914,0.0020549262408167124
1772642730313494500,9.73949462890625,-0.0007582094403915107,0.002649195957928896,0.0057174391113221645
1772642730323535400,9.749535400390625,-0.00040640594670549035,0.0019631655886769295,0.008431732654571533
1772642730333577500,9.759577392578125,0.00033931166399270296,0.0018837085226550698,0.010790768079459667
1772642730343618300,9.769618408203126,-0.0008290171390399337,0.002922873944044113,0.009310317225754261
1772642730353660400,9.779660400390625,-0.002116823336109519,0.004203623626381159,0.0076859076507389545
1772642730363701200,9.789701171875,-0.001818815479055047,0.006320304237306118,0.006071499548852444
1772642730373743600,9.79974365234375,-0.00335023389197886,0.005241572391241789,0.004819157067686319
1772642730383784400,9.809784423828125,-0.004585141781717539,0.005735855083912611,0.004931009840220213
1772642730393826600,9.81982666015625,-0.005113111808896065,0.00811384990811348,0.00785556435585022
1772642730403867400,9.829867431640626,-0.003225463442504406,0.0100433100014925,0.0036685424856841564
1772642730413908500,9.839908447265625,-0.004787377547472715,0.01047453097999096,0.0011380077339708805
1772642730423950300,9.849950439453124,-0.00642522145062685,0.011962438933551311,-0.0021523276809602976
1772642730433991400,9.859991455078125,-0.005654088221490383,0.01145233865827322,-0.0059646423906087875
1772642730444033300,9.870033203125,-0.00864455197006464,0.012244628742337227,-0.0065790340304374695
1772642730454074400,9.880074462890626,-0.009344032034277916,0.009301512502133846,-0.006340815685689449
1772642730464116200,9.8901162109375,-0.00801085401326418,0.005770426243543625,-0.004828940145671368
1772642730474157300,9.9001572265625,-0.005700589623302221,0.0019083702936768532,-0.004546908661723137
1772642730484199400,9.910199462890626,-0.005167691502720118,-0.0030349893495440483,-0.0031154598109424114
1772642730494240500,9.920240478515625,-0.006015849765390158,-0.007231603376567364,-0.0051551759243011475
1772642730504282400,9.930282470703125,-0.005656855646520853,-0.01452040858566761,-0.008827941492199898
1772642730514323500,9.940323486328126,-0.004470848012715578,-0.01918797940015793,-0.004962502047419548
1772642730524365300,9.950365234375,-0.0026963839773088694,-0.022644229233264923,-0.005211773794144392
1772642730534406400,9.960406494140624,0.0022497260943055153,-0.02081299014389515,0.012337654829025269
1772642730544448300,9.9704482421875,-0.0011673758272081614,-0.02894655056297779,0.06167590618133545
1772642730554489300,9.9804892578125,-0.0027738213539123535,-0.034704774618148804,0.09106709808111191
1772642730564531200,9.99053125,-0.005517942830920219,-0.03577589616179466,0.0841069296002388
1772642730574572300,10.000572265625,-0.0033140014857053757,-0.032009556889534,0.05736318603157997
1772642730584614400,10.010614501953125,-0.0006013056263327599,-0.025339137762784958,0.01566634140908718
1772642730594655500,10.020655517578126,0.002470960607752204,-0.014594988897442818,-0.01645630970597267
1772642730604697300,10.030697265625,0.00683321850374341,-0.009199691005051136,-0.027379265055060387
1772642730614738400,10.040738525390625,0.010291572660207748,-0.002838668879121542,-0.0526377409696579
1772642730624779500,10.050779541015626,0.006563679780811071,0.00768614374101162,-0.0863078162074089
1772642730634821400,10.0608212890625,-0.010750195011496544,0.017303409054875374,-0.09732012450695038
1772642730644862500,10.070862548828124,-0.023167714476585388,0.01970052160322666,-0.04159187898039818
1772642730654904300,10.080904296875,-0.012175919488072395,0.00886033196002245,0.013419304974377155
1772642730664945400,10.0909453125,-0.011791625060141087,0.009517866186797619,0.01558099314570427
