time,seconds_elapsed,z,y,x
1772648303479468500,0.181468505859375,-0.16884426772594452,0.07816371321678162,0.2700442969799042
1772648303489473300,0.191473388671875,-0.14966952800750732,0.046205803751945496,0.25140219926834106
1772648303499478300,0.201478271484375,-0.10226529836654663,0.01105210930109024,0.21837902069091797
1772648303509483300,0.211483154296875,-0.05273054540157318,-0.003328948514536023,0.1885516494512558
1772648303519488300,0.22148828125,-0.023435797542333603,0.0057257916778326035,0.15819163620471954
1772648303529493000,0.231492919921875,0.003728422336280346,0.03448790684342384,0.13315793871879578
1772648303539498000,0.241498046875,0.030360009521245956,0.08189213275909424,0.10599371790885925
1772648303549503000,0.2515029296875,0.04953475296497345,0.12183951586484909,0.0756337121129036
1772648303559508000,0.261508056640625,0.04527369886636734,0.13781847059726715,0.0564589649438858
1772648303569512700,0.2715126953125,0.07297055423259735,0.12982898950576782,0.04048001393675804
1772648303579517700,0.281517578125,0.07297055423259735,0.13249215483665466,0.027164220809936523
1772648303589522700,0.291522705078125,0.0756337121129036,0.1495363712310791,0.01651158556342125
1772648303599527400,0.30152734375,0.07616633921861649,0.15752583742141724,0.002130527049303055
1772648303609532400,0.311532470703125,0.07243791967630386,0.16285216808319092,-0.01651158556342125
1772648303619537400,0.321537353515625,0.0798947662115097,0.17084163427352905,-0.038882117718458176
1772648303629542400,0.33154248046875,0.10120003670454025,0.16178689897060394,-0.06764423102140427
1772648303639547100,0.341547119140625,0.10918951034545898,0.16231952607631683,-0.09640634804964066
1772648303649552100,0.35155224609375,0.11717899143695831,0.1777658462524414,-0.1278316229581833
1772648303659557000,0.36155712890625,0.12303793430328369,0.19108164310455322,-0.1608547866344452
1772648303669562000,0.37156201171875,0.12836425006389618,0.20865848660469055,-0.18748638033866882
1772648303679566800,0.38156689453125,0.12996214628219604,0.2304963916540146,-0.20133480429649353
1772648303689571800,0.39157177734375,0.12570109963417053,0.24274691939353943,-0.20666112005710602
1772648303699576800,0.401576904296875,0.11238530278205872,0.27097639441490173,-0.2029327005147934
1772648303709581800,0.411581787109375,0.10013477504253387,0.3050648272037506,-0.19973690807819366
1772648303719586600,0.421586669921875,0.07669897377490997,0.34128379821777344,-0.1976063847541809
1772648303729591600,0.431591552734375,0.052197910845279694,0.3956122398376465,-0.1784316450357437
1772648303739596500,0.441596435546875,0.0282294824719429,0.43449434638023376,-0.1507347822189331
1772648303749601300,0.451601318359375,-0.011185267008841038,0.4760396480560303,-0.11025477200746536
1772648303759606300,0.461606201171875,-0.05006738752126694,0.5074648857116699,-0.07297055423259735
1772648303769611300,0.471611328125,-0.08628634363412857,0.5309007167816162,-0.04580633342266083
1772648303779616300,0.4816162109375,-0.11611372232437134,0.544216513633728,-0.021305270493030548
1772648303789621000,0.49162109375,-0.141680046916008,0.5463470220565796,0
1772648303799626000,0.5016259765625,-0.16777899861335754,0.5367596745491028,0.015446321107447147
1772648303809631000,0.511630859375,-0.19068217277526855,0.506932258605957,0.03355580195784569
1772648303819636000,0.521635986328125,-0.21518322825431824,0.4696480631828308,0.04953475296497345
1772648303829641000,0.531640869140625,-0.23276008665561676,0.4462122619152069,0.06551370769739151
1772648303839645700,0.541645751953125,-0.24341271817684174,0.4339617192745209,0.0756337121129036
1772648303849650700,0.551650634765625,-0.24927166104316711,0.4323638379573822,0.07350318133831024
1772648303859655700,0.56165576171875,-0.2503369152545929,0.43502700328826904,0.07456845045089722
1772648303869660400,0.571660400390625,-0.24607586860656738,0.4478101432323456,0.07243791967630386
1772648303879665400,0.58166552734375,-0.24341271817684174,0.46219122409820557,0.07350318133831024
1772648303889670400,0.59167041015625,-0.23861902952194214,0.47710490226745605,0.12090741097927094
1772648303899675100,0.601675048828125,-0.2215748131275177,0.48243123292922974,0.22530323266983032
1772648303909680000,0.61168017578125,-0.1938779652118683,0.4717785716056824,0.3685811758041382
1772648303919685000,0.62168505859375,-0.14434321224689484,0.4691154360771179,0.5475454330444336
1772648303929690000,0.631690185546875,-0.08255792409181595,0.43449434638023376,0.6801707744598389
1772648303939695000,0.641695068359375,-0.03568632900714874,0.301336407661438,0.5997433662414551
1772648303949699800,0.651699951171875,0.0005326317623257637,0.14793847501277924,0.4090611934661865
1772648303959704800,0.661704833984375,-0.003195790573954582,0.054195281118154526,0.260456919670105
1772648303969709800,0.671709716796875,-0.07776423543691635,-0.08162581920623779,0.20133480429649353
1772648303979714600,0.681714599609375,-0.15286532044410706,-0.18655426800251007,0.19654111564159393
1772648303989719600,0.691719482421875,-0.1422126740217209,-0.18815216422080994,0.1267663538455963
1772648303999724500,0.701724609375,-0.035153694450855255,-0.15885742008686066,-0.011185267008841038
1772648304009729500,0.7117294921875,-0.03568632900714874,-0.08162581920623779,-0.16724637150764465
1772648304019734300,0.721734375,-0.03728422522544861,0.04780369997024536,-0.31425273418426514
1772648304029739300,0.7317392578125,0.0010652635246515274,0.14367741346359253,-0.41758328676223755
1772648304039744300,0.741744140625,0.07243791967630386,0.14793847501277924,-0.4442148804664612
1772648304049749000,0.7517490234375,0.1608547866344452,0.11917635798454285,-0.4016043543815613
1772648304059754000,0.76175390625,0.2540653645992279,0.1122521460056305,-0.31425273418426514
1772648304069758700,0.7717587890625,0.32277485728263855,0.18149426579475403,-0.21837902069091797
1772648304079763700,0.781763671875,0.3195790648460388,0.28429219126701355,-0.15020215511322021
1772648304089768400,0.7917685546875,0.260456919670105,0.3535343408584595,-0.11984214931726456
1772648304099773400,0.8017734375,0.2593916654586792,0.3572627604007721,-0.11504846066236496
1772648304109778200,0.811778076171875,0.31744852662086487,0.39135119318962097,-0.1272989958524704
1772648304119783000,0.821782958984375,0.38988643884658813,0.4568648934364319,-0.15819163620471954
1772648304129788000,0.831787841796875,0.4431496262550354,0.4834964871406555,-0.1890842765569687
1772648304139792600,0.841792724609375,0.4420843720436096,0.46219122409820557,-0.21411797404289246
1772648304149797400,0.85179736328125,0.3952127695083618,0.40679749846458435,-0.24660851061344147
1772648304159802400,0.86180224609375,0.32277485728263855,0.33968591690063477,-0.2876211404800415
1772648304169807000,0.87180712890625,0.2540653645992279,0.26991114020347595,-0.3440801203250885
1772648304179812000,0.88181201171875,0.17683374881744385,0.19587533175945282,-0.40266960859298706
1772648304189816800,0.89181689453125,0.07137265801429749,0.09627319127321243,-0.45540016889572144
1772648304199821600,0.901821533203125,-0.04953475296497345,-0.02623211406171322,-0.48256438970565796
1772648304209826600,0.91182666015625,-0.1597895324230194,-0.1141163557767868,-0.4628570079803467
1772648304219831300,0.921831298828125,-0.23222744464874268,-0.15353110432624817,-0.41172435879707336
1772648304229836000,0.9318359375,-0.2689790427684784,-0.16311848163604736,-0.34248220920562744
1772648304239841000,0.941841064453125,-0.2732400894165039,-0.14980268478393555,-0.28122955560684204
1772648304249845800,0.951845703125,-0.2503369152545929,-0.13009530305862427,-0.24714113771915436
1772648304259850800,0.961850830078125,-0.20559586584568024,-0.09494160860776901,-0.23222744464874268
1772648304269855500,0.97185546875,-0.13209268450737,-0.031025800853967667,-0.24288007616996765
1772648304279860200,0.981860107421875,-0.06764423102140427,0.00519315991550684,-0.2647179961204529
1772648304289865200,0.991865234375,0.01704421639442444,0.041944749653339386,-0.2870885133743286
1772648304299870000,1.001869873046875,0.09321055561304092,0.06271739304065704,-0.3211769461631775
1772648304309874700,1.011874755859375,0.17683374881744385,0.08881634473800659,-0.36432012915611267
1772648304319879700,1.021879638671875,0.23808640241622925,0.11917635798454285,-0.4042675197124481
1772648304329884400,1.031884521484375,0.2737727165222168,0.0978710874915123,-0.4138548672199249
1772648304339889200,1.04188916015625,0.2972085177898407,0.07709844410419464,-0.39361485838890076
1772648304349894100,1.05189404296875,0.314785361289978,0.05632580816745758,-0.3632548749446869
1772648304359899000,1.06189892578125,0.3259706497192383,0.04940159618854523,-0.3499390780925751
1772648304369903900,1.07190380859375,0.3158506453037262,0.025965798646211624,-0.358993798494339
1772648304379908600,1.08190869140625,0.31744852662086487,0.02383527159690857,-0.37497276067733765
1772648304389913300,1.091913330078125,0.3312969505786896,0.02010684832930565,-0.3808317184448242
1772648304399918300,1.10191845703125,0.35579800605773926,0.05739107355475426,-0.3856253921985626
1772648304409923000,1.111923095703125,0.3435474932193756,0.0025300008710473776,-0.38402751088142395
1772648304419927800,1.121927734375,0.36059170961380005,-0.016644742339849472,-0.371244341135025
1772648304429932800,1.131932861328125,0.37870118021965027,-0.04593949019908905,-0.35526537895202637
1772648304439937500,1.1419375,0.36538538336753845,-0.08215844631195068,-0.32224223017692566
1772648304449942500,1.151942626953125,0.3531348705291748,-0.13435636460781097,-0.2679137885570526
1772648304459947300,1.161947265625,0.329166442155838,-0.16844479739665985,-0.23009692132472992
1772648304469952000,1.171951904296875,0.2934800982475281,-0.22596903145313263,-0.20186743140220642
1772648304479957000,1.18195703125,0.26738113164901733,-0.27177536487579346,-0.1890842765569687
1772648304489961700,1.191961669921875,0.25246745347976685,-0.28455850481987,-0.18056216835975647
1772648304499966700,1.201966796875,0.23435798287391663,-0.29574379324913025,-0.17576847970485687
1772648304509971500,1.211971435546875,0.1976063847541809,-0.3117227256298065,-0.18535585701465607
1772648304519976200,1.22197607421875,0.17630110681056976,-0.3042658865451813,-0.1928126960992813
1772648304529981200,1.231981201171875,0.15819163620471954,-0.2520679831504822,-0.19707375764846802
1772648304539986000,1.24198583984375,0.1656484752893448,-0.1806953251361847,-0.18056216835975647
1772648304549990700,1.25199072265625,0.15339794754981995,-0.09014792740345001,-0.15659373998641968
1772648304559995400,1.261995361328125,0.1368863582611084,-0.04540685936808586,-0.1464737355709076
1772648304570000000,1.271999755859375,0.13102741539478302,0.0014647373463958502,-0.14008215069770813
1772648304580004400,1.28200439453125,0.1038631945848465,0.014247899875044823,-0.17150743305683136
1772648304590008800,1.2920087890625,0.0798947662115097,0.02809632569551468,-0.16777899861335754
1772648304600013300,1.302013427734375,0.03728422522544861,0.04301001504063606,-0.12037477642297745
1772648304610017800,1.312017822265625,-0.011185267008841038,0.08615318685770035,-0.10546109080314636
1772648304620022000,1.32202197265625,-0.070840023458004,0.1633847951889038,-0.09853687882423401
1772648304630026500,1.332026611328125,-0.15393057465553284,0.2864227294921875,-0.06285054981708527
1772648304640031000,1.342031005859375,-0.26418536901474,0.4616585671901703,-0.034621063619852066
1772648304650035500,1.352035400390625,-0.3723095953464508,0.649677574634552,-0.009054739959537983
1772648304660040000,1.3620400390625,-0.4852275252342224,0.8249134421348572,0.003728422336280346
1772648304670044400,1.37204443359375,-0.5922865271568298,0.9490166306495667,0.042610540986061096
1772648304680049000,1.382048828125,-0.6801707744598389,0.9649956226348877,0.14061477780342102
1772648304690053400,1.392053466796875,-0.7275750041007996,0.8739155530929565,0.2785664200782776
1772648304700057900,1.402057861328125,-0.7749792337417603,0.6837660074234009,0.42237699031829834
1772648304710062000,1.41206201171875,-0.8122634291648865,0.41105857491493225,0.5305012464523315
1772648304720066600,1.422066650390625,-0.8362318873405457,0.20812585949897766,0.6269075870513916
1772648304730071000,1.432071044921875,-0.8708529472351074,0.1351553052663803,0.6791055202484131
1772648304740075500,1.442075439453125,-0.8964192271232605,0.05366265028715134,0.688160240650177
1772648304750080000,1.452080078125,-0.8878971338272095,0.008921582251787186,0.658332884311676
1772648304760084500,1.46208447265625,-0.893756091594696,-0.12317109853029251,0.6593981385231018
1772648304770089000,1.4720888671875,-0.8586024045944214,-0.22863218188285828,0.6620612740516663
1772648304780093400,1.482093505859375,-0.776044487953186,-0.3117227256298065,0.6551370620727539
1772648304790098000,1.492097900390625,-0.6578001976013184,-0.44275015592575073,0.6402233839035034
1772648304800102100,1.50210205078125,-0.5358275771141052,-0.5237101912498474,0.5741770267486572
1772648304810106600,1.512106689453125,-0.415452778339386,-0.5391564965248108,0.4580633044242859
1772648304820111000,1.522111083984375,-0.3009369373321533,-0.5141227841377258,0.3206443190574646
1772648304830115600,1.532115478515625,-0.20825901627540588,-0.4352933168411255,0.20879164338111877
1772648304840120000,1.5421201171875,-0.14540846645832062,-0.30533117055892944,0.15659373998641968
1772648304850124500,1.55212451171875,-0.11930951476097107,-0.1753690093755722,0.18162743747234344
1772648304860129000,1.56212890625,-0.11398319900035858,-0.08269108086824417,0.24714113771915436
1772648304870133500,1.572133544921875,-0.11025477200746536,-0.04700475186109543,0.3201116919517517
1772648304880138000,1.582137939453125,-0.09001477062702179,0.02756369300186634,0.3717769682407379
1772648304890142200,1.59214208984375,-0.07616633921861649,0.08721844851970673,0.4069306552410126
1772648304900146700,1.602146728515625,-0.066046342253685,0.13675320148468018,0.42770329117774963
1772648304910151200,1.612151123046875,-0.06924212723970413,0.20865848660469055,0.43143174052238464
1772648304920155600,1.62215576171875,-0.1038631945848465,0.24647535383701324,0.4250401556491852
1772648304930160000,1.63216015625,-0.13475583493709564,0.2917490601539612,0.4324969947338104
1772648304940164600,1.64216455078125,-0.13209268450737,0.34181642532348633,0.45060646533966064
1772648304950169000,1.652169189453125,-0.1129179298877716,0.36898064613342285,0.4623243808746338
1772648304960173300,1.66217333984375,-0.09693898260593414,0.3476753830909729,0.46072646975517273
1772648304970177800,1.672177734375,-0.07723160833120346,0.33009853959083557,0.43143174052238464
1772648304980182300,1.682182373046875,-0.06444844603538513,0.3391532599925995,0.3771032989025116
1772648304990186800,1.692186767578125,-0.04207791015505791,0.3194459080696106,0.31744852662086487
1772648305000191200,1.702191162109375,-0.02077263966202736,0.2528669238090515,0.27057692408561707
1772648305010195700,1.71219580078125,-0.0026631588116288185,0.16231952607631683,0.2306295484304428
1772648305020200200,1.7222001953125,0.01438105758279562,0.026498429477214813,0.1928126960992813
1772648305030204700,1.73220458984375,0.03142527490854263,-0.07576686888933182,0.14966952800750732
1772648305040209200,1.742209228515625,0.051132649183273315,-0.13542161881923676,0.11078740656375885
1772648305050213400,1.75221337890625,0.07243791967630386,-0.14074794948101044,0.06338317692279816
1772648305060217900,1.7622177734375,0.07936213165521622,-0.11677951365709305,0.007456844672560692
1772648305070222600,1.77222265625,0.09001477062702179,-0.10080055892467499,-0.052197910845279694
1772648305080227000,1.78222705078125,0.09640634804964066,-0.07150581479072571,-0.10492845624685287
1772648305090231600,1.7922314453125,0.10439582169055939,-0.04700475186109543,-0.14700636267662048
1772648305100236000,1.802236083984375,0.11238530278205872,-0.02623211406171322,-0.18109479546546936
1772648305110240500,1.812240478515625,0.10918951034545898,-0.005459475331008434,-0.2029327005147934
1772648305120245000,1.822244873046875,0.1086568832397461,0.011584741063416004,-0.21411797404289246
1772648305130249500,1.83224951171875,0.1134505644440651,0.004660528153181076,-0.22530323266983032
1772648305140254000,1.84225390625,0.11930951476097107,-0.009720529429614544,-0.24288007616996765
1772648305150258700,1.8522587890625,0.13315793871879578,0.010519477538764477,-0.26738113164901733
1772648305160263200,1.86226318359375,0.14008215069770813,0.05952160060405731,-0.2737727165222168
1772648305170267600,1.872267578125,0.1278316229581833,0.15219952166080475,-0.2593916654586792
1772648305180272000,1.882272216796875,0.10120003670454025,0.22676797211170197,-0.2173137664794922
1772648305190276600,1.892276611328125,0.06551370769739151,0.2869553565979004,-0.16351795196533203
1772648305200281000,1.902281005859375,0.059654757380485535,0.3466101288795471,-0.11877688020467758
1772648305210285600,1.91228564453125,0.07776423543691635,0.3817638158798218,-0.07243791967630386
1772648305220290000,1.9222900390625,0.08202528953552246,0.36898064613342285,-0.023968428373336792
1772648305230294800,1.932294677734375,0.07297055423259735,0.30826061964035034,0.014913689345121384
1772648305240299300,1.94229931640625,0.058589495718479156,0.2209090292453766,0.07936213165521622
1772648305250303700,1.9523037109375,0.039414748549461365,0.12769846618175507,0.18269269168376923
1772648305260308200,1.96230810546875,0.03408843278884888,0.05366265028715134,0.325437992811203
1772648305270312700,1.972312744140625,0.043675802648067474,-0.001731053227558732,0.46338963508605957
1772648305280317200,1.982317138671875,0.07350318133831024,0.010519477538764477,0.5326317548751831
1772648305290321700,1.99232177734375,0.0942758247256279,0.05632580816745758,0.5464801788330078
1772648305300326100,2.002326171875,0.14860425889492035,0.1074584573507309,0.533164381980896
1772648305310331000,2.012330810546875,0.18695375323295593,0.03981422260403633,0.5150549411773682
1772648305320335400,2.02233544921875,0.16831164062023163,-0.14341109991073608,0.4197138249874115
1772648305330339800,2.03233984375,0.11930951476097107,-0.2510027289390564,0.2167811244726181
1772648305340344300,2.04234423828125,0.09800424426794052,-0.288286954164505,0.034621063619852066
1772648305350348800,2.052348876953125,0.11717899143695831,-0.318114310503006,-0.013315794058144093
1772648305360353300,2.062353271484375,0.15233267843723297,-0.33356064558029175,0
1772648305370357800,2.072357666015625,0.13475583493709564,-0.2898848354816437,-0.007989476434886456
1772648305380362200,2.0823623046875,0.1177116185426712,-0.20040270686149597,-0.058589495718479156
1772648305390367000,2.092366943359375,0.09534108638763428,-0.0864195004105568,-0.13262531161308289
1772648305400371500,2.102371337890625,0.08149266242980957,0.0073236869648098946,-0.20026955008506775
1772648305410376000,2.1123759765625,0.08096002787351608,0.054195281118154526,-0.23702113330364227
1772648305420380400,2.12238037109375,0.08841687440872192,0.05579317733645439,-0.23808640241622925
1772648305430385000,2.132385009765625,0.10599371790885925,0.07603318244218826,-0.21837902069091797
1772648305440389400,2.142389404296875,0.13049478828907013,0.11278477311134338,-0.18216006457805634
1772648305450393900,2.152393798828125,0.18109479546546936,0.1633847951889038,-0.1272989958524704
1772648305460398600,2.162398681640625,0.24714113771915436,0.22836586833000183,-0.0756337121129036
1772648305470403000,2.172403076171875,0.31372010707855225,0.2949448525905609,-0.047404225915670395
1772648305480407600,2.182407470703125,0.3920169770717621,0.3620564341545105,-0.055393703281879425
1772648305490412000,2.192412109375,0.46338963508605957,0.4430164694786072,-0.07936213165521622
1772648305500416500,2.20241650390625,0.49694544076919556,0.4605933129787445,-0.12357056885957718
1772648305510421000,2.2124208984375,0.5086633563041687,0.41585224866867065,-0.1794968992471695
1772648305520425500,2.222425537109375,0.49321702122688293,0.33169642090797424,-0.2354232370853424
1772648305530430000,2.232429931640625,0.446878045797348,0.24008376896381378,-0.2817622125148773
1772648305540434700,2.2424345703125,0.3440801203250885,0.13249215483665466,-0.3249053657054901
1772648305550439200,2.252439208984375,0.23915165662765503,-0.00013315794058144093,-0.36059170961380005
1772648305560443600,2.262443603515625,0.11238530278205872,-0.1386174112558365,-0.38828855752944946
1772648305570448100,2.2724482421875,-0.019174743443727493,-0.26218798756599426,-0.4063980281352997
1772648305580452600,2.28245263671875,-0.1225053071975708,-0.33782169222831726,-0.40852856636047363
1772648305590457000,2.29245703125,-0.19174742698669434,-0.37191012501716614,-0.38882118463516235
1772648305600461600,2.302461669921875,-0.2508695721626282,-0.37617117166519165,-0.3478085398674011
1772648305610466000,2.312466064453125,-0.2737727165222168,-0.38522592186927795,-0.295610636472702
1772648305620470800,2.322470703125,-0.2775011360645294,-0.3910848796367645,-0.240216925740242
1772648305630475300,2.332475341796875,-0.26525062322616577,-0.3798995912075043,-0.19174742698669434
1772648305640479700,2.342479736328125,-0.2269011288881302,-0.31917959451675415,-0.1651158481836319
1772648305650484200,2.352484130859375,-0.1555284708738327,-0.24301324784755707,-0.16245268285274506
1772648305660488700,2.36248876953125,-0.07297055423259735,-0.15832479298114777,-0.18002954125404358
1772648305670493200,2.3724931640625,0.006391581147909164,-0.08535423874855042,-0.20985691249370575
1772648305680497700,2.38249755859375,0.0798947662115097,-0.044874224811792374,-0.26152220368385315
1772648305690502400,2.39250244140625,0.15659373998641968,-0.03848264366388321,-0.31851378083229065
1772648305700507000,2.4025068359375,0.1832253336906433,-0.06617949903011322,-0.3627222180366516
1772648305710511400,2.412511474609375,0.19547586143016815,-0.15299847722053528,-0.3728422224521637
1772648305720515800,2.422515869140625,0.20026955008506775,-0.19134795665740967,-0.3579285442829132
1772648305730520300,2.432520263671875,0.19707375764846802,-0.21212059259414673,-0.3344927430152893
1772648305740524800,2.44252490234375,0.19920428097248077,-0.21638165414333344,-0.3211769461631775
1772648305750529500,2.452529541015625,0.21145480871200562,-0.17909742891788483,-0.3201116919517517
1772648305760534000,2.462533935546875,0.2029327005147934,-0.16844479739665985,-0.3339601159095764
1772648305770538500,2.47253857421875,0.2173137664794922,-0.16045531630516052,-0.34088432788848877
1772648305780543000,2.48254296875,0.2503369152545929,-0.12263846397399902,-0.33768853545188904
1772648305790547500,2.49254736328125,0.2732400894165039,-0.0906805545091629,-0.32756853103637695
1772648305800552000,2.502552001953125,0.2775011360645294,-0.13701951503753662,-0.295610636472702
1772648305810556400,2.512556396484375,0.2822948396205902,-0.18282584846019745,-0.2455432415008545
1772648305820561200,2.52256103515625,0.29401272535324097,-0.18229322135448456,-0.1938779652118683
1772648305830565600,2.532565673828125,0.32384011149406433,-0.18282584846019745,-0.16777899861335754
1772648305840570000,2.542570068359375,0.3067958950996399,-0.21638165414333344,-0.15339794754981995
1772648305850574600,2.55257470703125,0.30306747555732727,-0.2648511528968811,-0.13209268450737
1772648305860579000,2.5625791015625,0.3073285222053528,-0.2611227333545685,-0.11717899143695831
1772648305870583600,2.57258349609375,0.33662328124046326,-0.25260061025619507,-0.0990695059299469
1772648305880588000,2.582588134765625,0.3115895688533783,-0.254731148481369,-0.11185266822576523
1772648305890592800,2.5925927734375,0.3195790648460388,-0.23502376675605774,-0.13315793871879578
1772648305900597200,2.60259716796875,0.3259706497192383,-0.2083921730518341,-0.1464737355709076
1772648305910601700,2.612601806640625,0.3190464377403259,-0.17323848605155945,-0.16724637150764465
1772648305920606200,2.622606201171875,0.3163832724094391,-0.13542161881923676,-0.19441059231758118
1772648305930610700,2.632610595703125,0.2961432635784149,-0.11358372122049332,-0.1976063847541809
1772648305940615200,2.642615234375,0.24767376482486725,-0.11145319789648056,-0.20026955008506775
1772648305950619600,2.65261962890625,0.19867165386676788,-0.09973529726266861,-0.17097479104995728
1772648305960624400,2.662624267578125,0.13741900026798248,-0.15033531188964844,-0.11451582610607147
1772648305970628900,2.67262890625,0.07723160833120346,-0.15459637343883514,-0.052197910845279694
1772648305980633300,2.68263330078125,0.018109479919075966,-0.12530162930488586,-0.022903166711330414
1772648305990637800,2.692637939453125,-0.03834948688745499,-0.04274369776248932,-0.03195790573954582
1772648306000642300,2.702642333984375,-0.10546109080314636,0.0696416050195694,-0.06338317692279816
1772648306010646800,2.712646728515625,-0.18056216835975647,0.2246374487876892,-0.08894950151443481
1772648306020651300,2.7226513671875,-0.24873903393745422,0.3769701421260834,-0.09374319016933441
1772648306030656000,2.732656005859375,-0.3403517007827759,0.5351617336273193,-0.09480845183134079
1772648306040660500,2.742660400390625,-0.4394212067127228,0.6518081426620483,-0.09853687882423401
1772648306050665000,2.7526650390625,-0.5299686193466187,0.7061365842819214,-0.09747160971164703
1772648306060669400,2.76266943359375,-0.5906886458396912,0.6805702447891235,-0.05326317623257637
1772648306070674000,2.772673828125,-0.6370275616645813,0.5633912682533264,0.038882117718458176
1772648306080678400,2.782678466796875,-0.6519412994384766,0.3945469856262207,0.14913690090179443
1772648306090683000,2.792682861328125,-0.6817686557769775,0.14687320590019226,0.25246745347976685
1772648306100687000,2.80268701171875,-0.6940191984176636,-0.012383688241243362,0.32224223017692566
1772648306110691600,2.812691650390625,-0.7520760297775269,-0.14341109991073608,0.37071171402931213
1772648306120696000,2.822696044921875,-0.7909581661224365,-0.2275669276714325,0.3904190957546234
1772648306130700500,2.832700439453125,-0.8293076753616333,-0.27603641152381897,0.3861580193042755
1772648306140705000,2.842705078125,-0.8602002859115601,-0.34368064999580383,0.41278961300849915
1772648306150709500,2.85270947265625,-0.8697876930236816,-0.4640554189682007,0.4564654231071472
1772648306160714000,2.8627138671875,-0.822383463382721,-0.5684512257575989,0.48362964391708374
1772648306170718500,2.872718505859375,-0.7046718001365662,-0.6547375917434692,0.4852275252342224
1772648306180722700,2.88272265625,-0.5651223063468933,-0.6792386770248413,0.41705065965652466
1772648306190727200,2.89272705078125,-0.4186485707759857,-0.6036049723625183,0.28122955560684204
1772648306200731600,2.902731689453125,-0.2865558862686157,-0.47896912693977356,0.14061477780342102
1772648306210736000,2.912736083984375,-0.19068217277526855,-0.3687143325805664,0.0564589649438858
1772648306220740600,2.92274072265625,-0.12037477642297745,-0.24940481781959534,0.07403581589460373
1772648306230745000,2.9327451171875,-0.09054739773273468,-0.13009530305862427,0.19014954566955566
1772648306240749600,2.94274951171875,-0.09054739773273468,-0.10133319348096848,0.3440801203250885
1772648306250754000,2.952754150390625,-0.08735160529613495,-0.06831002235412598,0.47777068614959717
1772648306260758500,2.962758544921875,-0.09853687882423401,0.008921582251787186,0.5406212210655212
1772648306270762800,2.9727626953125,-0.13422320783138275,0.011584741063416004,0.5555348992347717
1772648306280767200,2.982767333984375,-0.1933453232049942,-0.008655265904963017,0.5432844161987305
1772648306290771700,2.992771728515625,-0.23861902952194214,-0.023036323487758636,0.5145222544670105
1772648306300776200,3.002776123046875,-0.2359558641910553,0.04460791125893593,0.480433851480484
1772648306310780700,3.01278076171875,-0.21411797404289246,0.18096163868904114,0.45966121554374695
1772648306320785200,3.02278515625,-0.1693768948316574,0.2816290557384491,0.4479433000087738
1772648306330789600,3.03278955078125,-0.11877688020467758,0.32637012004852295,0.4293012022972107
1772648306340794000,3.042794189453125,-0.06870950013399124,0.36471959948539734,0.39734330773353577
1772648306350798600,3.052798583984375,-0.018642112612724304,0.4004059135913849,0.35100433230400085
1772648306360803000,3.062802978515625,0.029827378690242767,0.41159120202064514,0.30413272976875305
1772648306370807300,3.072807373046875,0.06285054981708527,0.39774277806282043,0.2695116698741913
1772648306380811800,3.082811767578125,0.09321055561304092,0.34554484486579895,0.24394534528255463
1772648306390816300,3.092816162109375,0.11664635688066483,0.2635195553302765,0.2258358597755432
1772648306400820700,3.10282080078125,0.13422320783138275,0.17030900716781616,0.20612849295139313
1772648306410825200,3.1128251953125,0.15020215511322021,0.08508792519569397,0.16831164062023163
1772648306420829700,3.12282958984375,0.15180005133152008,0.058456335216760635,0.11398319900035858
1772648306430834200,3.132834228515625,0.13209268450737,0.06591317802667618,0.03675159066915512
1772648306440838700,3.142838623046875,0.10279793292284012,0.07603318244218826,-0.050600018352270126
1772648306450843100,3.152843017578125,0.070840023458004,0.08242476731538773,-0.13901689648628235
1772648306460847400,3.162847412109375,0.046871595084667206,0.0930773988366127,-0.2119874358177185
1772648306470851800,3.172851806640625,0.03249053657054901,0.09840371459722519,-0.2679137885570526
1772648306480856300,3.182856201171875,0.026098955422639847,0.1026647686958313,-0.3153179883956909
1772648306490860800,3.19286083984375,0.022903166711330414,0.10692582279443741,-0.3435474932193756
1772648306500865300,3.202865234375,0.030360009521245956,0.12450267374515533,-0.3595264256000519
1772648306510869800,3.212869873046875,0.030360009521245956,0.16658058762550354,-0.36112433671951294
1772648306520874200,3.222874267578125,0.019707374274730682,0.2107890248298645,-0.34248220920562744
1772648306530878700,3.232878662109375,-0.0005326317623257637,0.2390184998512268,-0.30466535687446594
1772648306540883200,3.24288330078125,-0.0282294824719429,0.2619216740131378,-0.26152220368385315
1772648306550887400,3.252887451171875,-0.04846949130296707,0.3050648272037506,-0.2215748131275177
1772648306560892000,3.262891845703125,-0.051665280014276505,0.3466101288795471,-0.1842905879020691
1772648306570896600,3.272896728515625,-0.029294747859239578,0.3769701421260834,-0.13369056582450867
1772648306580901000,3.282901123046875,-0.00852210819721222,0.42011329531669617,-0.08788423985242844
1772648306590905900,3.29290576171875,0.021305270493030548,0.4281027913093567,-0.0612526535987854
1772648306600910300,3.302910400390625,0.03675159066915512,0.3466101288795471,-0.0378168560564518
1772648306610915000,3.3129150390625,0.042610540986061096,0.23262691497802734,-0.015446321107447147
1772648306620919600,3.32291943359375,0.03142527490854263,0.10905635356903076,0.013315794058144093
1772648306630924000,3.332924072265625,0.011185267008841038,0.03874896094202995,0.050600018352270126
1772648306640928800,3.3429287109375,-0.0330231711268425,0.0014647373463958502,0.10759161412715912
1772648306650933200,3.352933349609375,-0.07829686999320984,-0.005992107093334198,0.2125200778245926
1772648306660938000,3.36293798828125,-0.11877688020467758,-0.003861580276861787,0.32863378524780273
1772648306670942500,3.3729423828125,-0.16618111729621887,0.02383527159690857,0.41651803255081177
1772648306680947000,3.382947021484375,-0.15819163620471954,0.07976160943508148,0.49268439412117004
1772648306690951700,3.39295166015625,-0.13315793871879578,0.10586056113243103,0.5576654672622681
1772648306700956200,3.4029560546875,-0.09214529395103455,0.1266331970691681,0.591221272945404
1772648306710961000,3.4129609375,-0.03834948688745499,0.062184758484363556,0.4799012243747711
1772648306720965400,3.42296533203125,0.022903166711330414,-0.044341593980789185,0.20985691249370575
1772648306730969900,3.432969970703125,0.07350318133831024,-0.018242638558149338,-0.009587371721863747
1772648306740974600,3.442974609375,0.13528846204280853,0.042477384209632874,-0.02876211516559124
1772648306750979000,3.45297900390625,0.1890842765569687,-0.012383688241243362,0.08681897819042206
1772648306760983800,3.46298388671875,0.21038953959941864,-0.08162581920623779,0.16138742864131927
1772648306770988300,3.47298828125,0.1747032105922699,-0.0720384493470192,0.12836425006389618
1772648306780992800,3.48299267578125,0.13422320783138275,-0.02516685053706169,0.02876211516559124
1772648306790997500,3.49299755859375,0.09534108638763428,-0.001731053227558732,-0.07776423543691635
1772648306801002000,3.503001953125,0.059654757380485535,-0.003861580276861787,-0.1512674242258072
1772648306811006700,3.5130068359375,0.019707374274730682,0.006258423440158367,-0.1885516494512558
1772648306821011200,3.52301123046875,0.023968428373336792,0.01957421749830246,-0.20080217719078064
1772648306831015700,3.533015625,0.06924212723970413,0.054727911949157715,-0.17630110681056976
1772648306841020400,3.5430205078125,0.11930951476097107,0.08135949820280075,-0.1363537311553955
1772648306851025000,3.55302490234375,0.16724637150764465,0.111719511449337,-0.09693898260593414
1772648306861029600,3.563029541015625,0.22956429421901703,0.1314268857240677,-0.0612526535987854
1772648306871034000,3.5730341796875,0.2966758906841278,0.19108164310455322,-0.0564589649438858
1772648306881038600,3.58303857421875,0.33822116255760193,0.22197428345680237,-0.10492845624685287
1772648306891043300,3.593043212890625,0.3781685531139374,0.17510269582271576,-0.2167811244726181
1772648306901047800,3.6030478515625,0.404800146818161,0.07603318244218826,-0.3579285442829132
1772648306911052500,3.613052490234375,0.4298338294029236,-0.02996053732931614,-0.47297701239585876
1772648306921057000,3.62305712890625,0.42131173610687256,-0.13062794506549835,-0.5480780601501465
1772648306931061500,3.6330615234375,0.3808317184448242,-0.20040270686149597,-0.5773728489875793
1772648306941066200,3.643066162109375,0.3014695644378662,-0.23555639386177063,-0.5842970609664917
1772648306951070700,3.65307080078125,0.1938779652118683,-0.28615641593933105,-0.5917539000511169
1772648306961075500,3.663075439453125,0.08149266242980957,-0.3633880317211151,-0.5853623151779175
1772648306971080000,3.673079833984375,-0.013315794058144093,-0.43263015151023865,-0.5523391366004944
1772648306981084400,3.68308447265625,-0.08522108197212219,-0.4304996132850647,-0.4857601523399353
1772648306991089200,3.693089111328125,-0.12836425006389618,-0.3926827609539032,-0.3808317184448242
1772648307001093600,3.70309375,-0.1315600425004959,-0.3511374890804291,-0.2636527121067047
1772648307011098400,3.713098388671875,-0.1038631945848465,-0.30533117055892944,-0.1789642721414566
1772648307021102800,3.723102783203125,-0.05752423033118248,-0.26378586888313293,-0.14008215069770813
1772648307031107300,3.733107421875,-0.00852210819721222,-0.23395849764347076,-0.1603221595287323
1772648307041112000,3.743112060546875,0.05379580706357956,-0.2227732390165329,-0.19654111564159393
1772648307051116500,3.753116455078125,0.11930951476097107,-0.20732691884040833,-0.2455432415008545
1772648307061121300,3.763121337890625,0.18695375323295593,-0.1753690093755722,-0.30945906043052673
1772648307071126300,3.773126220703125,0.25193482637405396,-0.12689951062202454,-0.3621895909309387
1772648307081131000,3.783131103515625,0.2961432635784149,-0.08428897708654404,-0.3856253921985626
1772648307091135700,3.7931357421875,0.29401272535324097,-0.1663142740726471,-0.36964643001556396
1772648307101140700,3.803140625,0.2977411448955536,-0.18761953711509705,-0.32810115814208984
1772648307111145500,3.8131455078125,0.27590325474739075,-0.21105533838272095,-0.2876211404800415
1772648307121150500,3.823150390625,0.2508695721626282,-0.2419479787349701,-0.24714113771915436
1772648307131155200,3.8331552734375,0.24660851061344147,-0.25260061025619507,-0.21891164779663086
1772648307141160200,3.84316015625,0.26098957657814026,-0.21691428124904633,-0.21465060114860535
1772648307151165000,3.8531650390625,0.28016430139541626,-0.17696690559387207,-0.22956429421901703
1772648307161169700,3.863169677734375,0.3051980137825012,-0.16365110874176025,-0.24447797238826752
1772648307171174700,3.873174560546875,0.3355579972267151,-0.10825740545988083,-0.25672850012779236
1772648307181179400,3.883179443359375,0.3813643455505371,-0.06458160281181335,-0.26578325033187866
1772648307191184400,3.893184326171875,0.3962780237197876,-0.09494160860776901,-0.2647179961204529
1772648307201189000,3.903189208984375,0.3904190957546234,-0.15885742008686066,-0.24927166104316711
1772648307211194000,3.913194091796875,0.38988643884658813,-0.1902827024459839,-0.22370533645153046
1772648307221198800,3.92319873046875,0.38189697265625,-0.21904481947422028,-0.1890842765569687
1772648307231203800,3.933203857421875,0.3584611713886261,-0.24035008251667023,-0.1603221595287323
1772648307241208600,3.94320849609375,0.34621065855026245,-0.24354587495326996,-0.11824425309896469
1772648307251213600,3.953213623046875,0.3542001247406006,-0.23502376675605774,-0.08841687440872192
1772648307261218300,3.96321826171875,0.32703590393066406,-0.24514377117156982,-0.07243791967630386
1772648307271223300,3.973223388671875,0.31372010707855225,-0.2648511528968811,-0.06977476179599762
1772648307281228000,3.98322802734375,0.3078611493110657,-0.24567639827728271,-0.09108003228902817
1772648307291232800,3.993232666015625,0.3121222257614136,-0.21158796548843384,-0.12197267264127731
1772648307301237800,4.00323779296875,0.306263267993927,-0.13701951503753662,-0.16831164062023163
1772648307311242500,4.013242431640625,0.2918822169303894,-0.11251845955848694,-0.19600848853588104
1772648307321247500,4.02324755859375,0.2966758906841278,-0.035819485783576965,-0.20506322383880615
1772648307331252200,4.033252197265625,0.26684850454330444,-0.003861580276861787,-0.20080217719078064
1772648307341257200,4.04325732421875,0.24181482195854187,-0.009720529429614544,-0.18961690366268158
1772648307351262000,4.053261962890625,0.20825901627540588,-0.03688475117087364,-0.18535585701465607
1772648307361267000,4.063266845703125,0.1784316450357437,-0.07736476510763168,-0.16618111729621887
1772648307371271700,4.073271728515625,0.15286532044410706,-0.133291095495224,-0.15286532044410706
1772648307381276700,4.083276611328125,0.13369056582450867,-0.133291095495224,-0.1842905879020691
1772648307391281400,4.093281494140625,0.10546109080314636,-0.09494160860776901,-0.23915165662765503
1772648307401286100,4.1032861328125,0.06924212723970413,-0.015579478815197945,-0.2886864244937897
1772648307411291100,4.113291015625,0.001597895286977291,0.1308942586183548,-0.2966758906841278
1772648307421295900,4.1232958984375,-0.07190528512001038,0.22144165635108948,-0.240216925740242
1772648307431300900,4.13330078125,-0.16777899861335754,0.33542484045028687,-0.20612849295139313
1772648307441305600,4.1433056640625,-0.29933905601501465,0.433429092168808,-0.1890842765569687
1772648307451310600,4.153310546875,-0.4143875241279602,0.5000080466270447,-0.1507347822189331
1772648307461315300,4.1633154296875,-0.5225117802619934,0.5101280808448792,-0.07723160833120346
1772648307471320300,4.1733203125,-0.6317012906074524,0.35513222217559814,0.059654757380485535
1772648307481325000,4.183324951171875,-0.7414234280586243,0.20812585949897766,0.2119874358177185
1772648307491330000,4.193330078125,-0.8165245056152344,-0.0022636849898844957,0.3440801203250885
1772648307501334800,4.203334716796875,-0.893756091594696,-0.19081532955169678,0.4159854054450989
1772648307511339500,4.213339599609375,-0.9747161269187927,-0.4113248884677887,0.5006738305091858
1772648307521344500,4.223344482421875,-1.0279792547225952,-0.5540701746940613,0.5858949422836304
1772648307531349200,4.233349365234375,-1.0562087297439575,-0.668586015701294,0.6865623593330383
1772648307541354200,4.243354248046875,-1.0141308307647705,-0.7607313394546509,0.7510107755661011
1772648307551359000,4.25335888671875,-0.8905603289604187,-0.7607313394546509,0.7462170720100403
1772648307561363700,4.26336376953125,-0.7057371139526367,-0.7346323728561401,0.6833665370941162
1772648307571368200,4.2733681640625,-0.5171854496002197,-0.6403565406799316,0.5677854418754578
1772648307581372700,4.28337255859375,-0.35526537895202637,-0.46938174962997437,0.42290961742401123
1772648307591377200,4.293377197265625,-0.18961690366268158,-0.24567639827728271,0.2817622125148773
1772648307601381600,4.303381591796875,-0.05805686116218567,-0.052863702178001404,0.207726389169693
1772648307611385900,4.3133857421875,0.0005326317623257637,0.0648479163646698,0.20825901627540588
1772648307621390300,4.323390380859375,0.011717898771166801,0.11118687689304352,0.2775011360645294
1772648307631394800,4.333394775390625,-0.006391581147909164,0.11917635798454285,0.3637875020503998
1772648307641399300,4.3433994140625,-0.051132649183273315,0.08082687109708786,0.4250401556491852
1772648307651403800,4.35340380859375,-0.0846884474158287,0.050466857850551605,0.4330296218395233
1772648307661408000,4.363407958984375,-0.11717899143695831,0.03981422260403633,0.4234422445297241
1772648307671412500,4.37341259765625,-0.14008215069770813,0.0744352862238884,0.4197138249874115
1772648307681417000,4.3834169921875,-0.1651158481836319,0.10532793402671814,0.4330296218395233
1772648307691421400,4.39342138671875,-0.1794968992471695,0.13728584349155426,0.4724443852901459
1772648307701426000,4.403426025390625,-0.17683374881744385,0.1596563756465912,0.524642288684845
1772648307711430400,4.413430419921875,-0.16245268285274506,0.1830921620130539,0.5619264841079712
1772648307721435000,4.423434814453125,-0.1363537311553955,0.2059953361749649,0.5629917979240417
1772648307731439000,4.433439208984375,-0.10279793292284012,0.22836586833000183,0.5305012464523315
1772648307741443600,4.443443603515625,-0.060187388211488724,0.259258508682251,0.47883594036102295
1772648307751448000,4.453447998046875,-0.022903166711330414,0.2816290557384491,0.42131173610687256
1772648307761452500,4.46345263671875,0.013848425820469856,0.2757700979709625,0.358993798494339
1772648307771457000,4.47345703125,0.03994738310575485,0.2539321780204773,0.30360010266304016
1772648307781461500,4.48346142578125,0.054861072450876236,0.20493006706237793,0.2503369152545929
1772648307791466000,4.493466064453125,0.06231791526079178,0.1585911065340042,0.18961690366268158
1772648307801470200,4.50347021484375,0.06178528442978859,0.14314478635787964,0.11717899143695831
1772648307811474700,4.513474609375,0.059122126549482346,0.17084163427352905,0.025566324591636658
1772648307821479200,4.523479248046875,0.05752423033118248,0.22303955256938934,-0.08149266242980957
1772648307831483600,4.533483642578125,0.054861072450876236,0.27097639441490173,-0.18002954125404358
1772648307841488100,4.543488037109375,0.05379580706357956,0.2869553565979004,-0.24767376482486725
1772648307851492600,4.55349267578125,0.05752423033118248,0.25180166959762573,-0.2828274667263031
1772648307861497000,4.5634970703125,0.05752423033118248,0.18841849267482758,-0.29081693291664124
1772648307871501300,4.573501220703125,0.059122126549482346,0.1399489939212799,-0.2785664200782776
1772648307881505800,4.583505859375,0.066046342253685,0.1122521460056305,-0.26258745789527893
1772648307891510300,4.59351025390625,0.07137265801429749,0.07976160943508148,-0.24714113771915436
1772648307901514800,4.6035146484375,0.06231791526079178,0.08295739442110062,-0.22477060556411743
1772648307911519200,4.613519287109375,0.042610540986061096,0.111719511449337,-0.207726389169693
1772648307921523700,4.623523681640625,0.005858949385583401,0.1548626869916916,-0.1837579607963562
1772648307931528200,4.633528076171875,-0.03728422522544861,0.216115340590477,-0.14753900468349457
1772648307941532400,4.643532470703125,-0.07350318133831024,0.22730059921741486,-0.10066740214824677
1772648307951537000,4.653536865234375,-0.09054739773273468,0.2949448525905609,-0.047404225915670395
1772648307961541400,4.663541259765625,-0.09161266684532166,0.34447959065437317,0.013848425820469856
1772648307971545900,4.6735458984375,-0.09001477062702179,0.3487406373023987,0.07936213165521622
1772648307981550300,4.68355029296875,-0.07510107755661011,0.30666273832321167,0.1411474198102951
1772648307991554600,4.693554443359375,-0.059122126549482346,0.21771323680877686,0.18642111122608185
1772648308001559000,4.70355908203125,-0.051665280014276505,0.1170458272099495,0.23382534086704254
1772648308011563500,4.7135634765625,-0.04527369886636734,-0.016112111508846283,0.3387537896633148
1772648308021568000,4.723568115234375,-0.04207791015505791,-0.1514005810022354,0.4862928092479706
1772648308031572500,4.733572509765625,-0.07137265801429749,-0.2749711573123932,0.6189181208610535
1772648308041577000,4.743576904296875,-0.10759161412715912,-0.3207774758338928,0.730238139629364
1772648308051581400,4.75358154296875,-0.07030738890171051,-0.30000483989715576,0.8335686922073364
1772648308061586000,4.7635859375,-0.022903166711330414,-0.3649859130382538,0.809600293636322
1772648308071590700,4.773590576171875,0.006391581147909164,-0.5301017761230469,0.5688506960868835
1772648308081595400,4.783595458984375,-0.023435797542333603,-0.5061333179473877,0.27110958099365234
1772648308091600100,4.79360009765625,-0.09267792850732803,-0.450206995010376,0.14540846645832062
1772648308101604900,4.80360498046875,-0.08628634363412857,-0.43689119815826416,0.1890842765569687
1772648308111609900,4.81360986328125,-0.007989476434886456,-0.3490069508552551,0.2306295484304428
1772648308121614600,4.823614501953125,0.010652635246515274,-0.1892174333333969,0.17736637592315674
1772648308131619300,4.833619384765625,0.001597895286977291,0.04886896535754204,0.043675802648067474
1772648308141624000,4.8436240234375,-0.005858949385583401,0.2502037584781647,-0.10492845624685287
1772648308151628800,4.85362890625,-0.0010652635246515274,0.31784799695014954,-0.20506322383880615
1772648308161633500,4.863633544921875,0.018109479919075966,0.2613890469074249,-0.25193482637405396
1772648308171638300,4.87363818359375,0.051132649183273315,0.16977638006210327,-0.2775011360645294
1772648308181643300,4.883643310546875,0.11558109521865845,0.16018900275230408,-0.27696850895881653
1772648308191648000,4.89364794921875,0.2024000734090805,0.3002711534500122,-0.2258358597755432
1772648308201652700,4.90365283203125,0.26738113164901733,0.4557996392250061,-0.1272989958524704
1772648308211657500,4.913657470703125,0.392549604177475,0.5175849199295044,-0.030360009521245956
1772648308221662200,4.923662109375,0.4708464741706848,0.5309007167816162,0.029294747859239578
1772648308231667200,4.933667236328125,0.5145222544670105,0.4882901608943939,0.03195790573954582
1772648308241672000,4.943671875,0.5305012464523315,0.4611259400844574,-0.023435797542333603
1772648308251676700,4.9536767578125,0.5193159580230713,0.4089280366897583,-0.15020215511322021
1772648308261681400,4.963681396484375,0.46445488929748535,0.2917490601539612,-0.3057306408882141
1772648308271686100,4.97368603515625,0.39308223128318787,0.12823109328746796,-0.4484759569168091
1772648308281691000,4.98369091796875,0.3105243146419525,-0.04913527891039848,-0.5427517890930176
1772648308291695600,4.993695556640625,0.20985691249370575,-0.2179795503616333,-0.5757749080657959
1772648308301700600,5.00370068359375,0.08575371652841568,-0.3394196033477783,-0.5688506960868835
1772648308311705300,5.013705322265625,-0.046871595084667206,-0.4342280328273773,-0.5592633485794067
1772648308321710000,5.0237099609375,-0.16618111729621887,-0.4858933389186859,-0.5406212210655212
1772648308331714800,5.03371484375,-0.2599242925643921,-0.48855647444725037,-0.49641281366348267
1772648308341719600,5.043719482421875,-0.31744852662086487,-0.46139225363731384,-0.4101264476776123
1772648308351724500,5.053724609375,-0.3334274888038635,-0.40919435024261475,-0.29933905601501465
1772648308361729300,5.063729248046875,-0.33289486169815063,-0.3506048619747162,-0.20026955008506775
1772648308371734000,5.073734130859375,-0.3211769461631775,-0.3271690607070923,-0.12303793430328369
1772648308381738800,5.08373876953125,-0.27643588185310364,-0.28562378883361816,-0.07616633921861649
1772648308391743500,5.093743408203125,-0.21518322825431824,-0.19294585287570953,-0.06285054981708527
1772648308401748200,5.103748291015625,-0.13315793871879578,-0.0864195004105568,-0.07936213165521622
1772648308411753000,5.1137529296875,-0.0330231711268425,-0.02516685053706169,-0.1315600425004959
1772648308421758000,5.123758056640625,0.052197910845279694,0.03448790684342384,-0.20186743140220642
1772648308431762700,5.1337626953125,0.13475583493709564,0.08295739442110062,-0.2684464156627655
1772648308441767400,5.143767333984375,0.20080217719078064,0.09893634915351868,-0.32330748438835144
1772648308451772200,5.153772216796875,0.2498043030500412,0.08615318685770035,-0.3547327518463135
1772648308461777000,5.16377685546875,0.27963167428970337,0.05259738489985466,-0.3691138029098511
1772648308471781600,5.17378173828125,0.30466535687446594,0.024900535121560097,-0.3717769682407379
1772648308481786600,5.18378662109375,0.31318747997283936,0.003595264395698905,-0.371244341135025
1772648308491791400,5.193791259765625,0.3307643234729767,0.029161589220166206,-0.3632548749446869
1772648308501796000,5.203796142578125,0.3435474932193756,0.025433165952563286,-0.35206958651542664
1772648308511800800,5.21380078125,0.36112433671951294,0.04940159618854523,-0.3456780016422272
1772648308521805600,5.2238056640625,0.3760380148887634,0.057923704385757446,-0.34194958209991455
1772648308531810300,5.233810302734375,0.40852856636047363,0.033955276012420654,-0.3355579972267151
1772648308541815300,5.243815185546875,0.42717066407203674,0.007856318727135658,-0.3201116919517517
1772648308551820000,5.253820068359375,0.43729066848754883,-0.03475422412157059,-0.2870885133743286
1772648308561824500,5.263824462890625,0.4447475075721741,-0.09867003560066223,-0.24288007616996765
1772648308571829200,5.273829345703125,0.4538022577762604,-0.1428784728050232,-0.1976063847541809
1772648308581833700,5.283833740234375,0.4532696306705475,-0.15086795389652252,-0.1555284708738327
1772648308591838500,5.29383837890625,0.45859596133232117,-0.18389111757278442,-0.10599371790885925
1772648308601843000,5.303843017578125,0.4378232955932617,-0.23023007810115814,-0.07030738890171051
1772648308611847700,5.31384765625,0.42557278275489807,-0.27177536487579346,-0.06870950013399124
1772648308621852200,5.32385205078125,0.4111917316913605,-0.2941458821296692,-0.0846884474158287
1772648308631857000,5.33385693359375,0.3861580193042755,-0.33728906512260437,-0.10705898702144623
1772648308641861400,5.343861328125,0.36485275626182556,-0.32876694202423096,-0.13262531161308289
1772648308651866000,5.3538662109375,0.34088432788848877,-0.36711645126342773,-0.1459411084651947
1772648308661870600,5.36387060546875,0.3099916875362396,-0.3820301294326782,-0.17523585259914398
1772648308671875300,5.373875244140625,0.24714113771915436,-0.3964111804962158,-0.20026955008506775
1772648308681879800,5.3838798828125,0.18642111122608185,-0.41824910044670105,-0.17150743305683136
1772648308691884500,5.393884521484375,0.11025477200746536,-0.428901731967926,-0.13422320783138275
1772648308701889000,5.403888916015625,0.030360009521245956,-0.374573290348053,-0.12037477642297745
1772648308711893800,5.413893798828125,-0.034621063619852066,-0.3032006323337555,-0.13262531161308289
1772648308721898200,5.423898193359375,-0.11984214931726456,-0.1471395194530487,-0.17363795638084412
1772648308731903000,5.433903076171875,-0.19920428097248077,0.01531316339969635,-0.1794968992471695
1772648308741907500,5.443907470703125,-0.27963167428970337,0.20013637840747833,-0.16777899861335754
1772648308751912200,5.453912109375,-0.38029909133911133,0.414254367351532,-0.16884426772594452
1772648308761916700,5.463916748046875,-0.4953475296497345,0.6006754636764526,-0.16245268285274506
1772648308771921400,5.47392138671875,-0.5922865271568298,0.7189196944236755,-0.11025477200746536
1772648308781926000,5.48392578125,-0.6593981385231018,0.7263765931129456,-0.00426105409860611
1772648308791930400,5.493930419921875,-0.730238139629364,0.6166543960571289,0.13102741539478302
1772648308801935000,5.50393505859375,-0.7856318354606628,0.4552670121192932,0.26205483078956604
1772648308811939600,5.513939697265625,-0.8287750482559204,0.2528669238090515,0.36112433671951294
1772648308821944300,5.5239443359375,-0.8900277018547058,0.12183951586484909,0.4111917316913605
1772648308831948800,5.53394873046875,-0.9289097785949707,-0.0768321305513382,0.46338963508605957
1772648308841953500,5.54395361328125,-0.9614003300666809,-0.21212059259414673,0.5012065172195435
1772648308851958000,5.5539580078125,-0.9869666695594788,-0.30959221720695496,0.5534043908119202
1772648308861962800,5.563962646484375,-0.9784445762634277,-0.43689119815826416,0.6189181208610535
1772648308871967200,5.57396728515625,-0.8942887187004089,-0.5338301658630371,0.650875985622406
1772648308881972000,5.583971923828125,-0.7499455213546753,-0.5934849381446838,0.64608234167099
1772648308891976400,5.5939765625,-0.5699160099029541,-0.5668533444404602,0.5683180689811707
1772648308901981200,5.603981201171875,-0.38882118463516235,-0.44275015592575073,0.4191811978816986
1772648308911985700,5.613985595703125,-0.20666112005710602,-0.22543638944625854,0.25300008058547974
1772648308921990400,5.623990478515625,-0.06977476179599762,-0.02516685053706169,0.14327794313430786
1772648308931995000,5.633994873046875,0.015446321107447147,0.1399489939212799,0.1267663538455963
1772648308941999600,5.64399951171875,0.05432844161987305,0.28322693705558777,0.21518322825431824
1772648308952004000,5.654004150390625,0.05752423033118248,0.35513222217559814,0.33609065413475037
1772648308962008800,5.6640087890625,0.030892642214894295,0.36312171816825867,0.4234422445297241
1772648308972013300,5.674013427734375,-0.01651158556342125,0.3940143585205078,0.4580633044242859
1772648308982017800,5.684017822265625,-0.09587371349334717,0.43875542283058167,0.4538022577762604
1772648308992022500,5.6940224609375,-0.1880190074443817,0.47923544049263,0.4484759569168091
1772648309002027000,5.704027099609375,-0.27483800053596497,0.5346291065216064,0.4527370035648346
1772648309012031700,5.71403173828125,-0.32703590393066406,0.5767070651054382,0.47883594036102295
1772648309022036500,5.724036376953125,-0.3627222180366516,0.6107954978942871,0.52091383934021
1772648309032041000,5.734041015625,-0.3728422224521637,0.6507428288459778,0.5645896792411804
1772648309042045700,5.744045654296875,-0.3542001247406006,0.6384923458099365,0.5880254507064819
1772648309052050200,5.75405029296875,-0.32863378524780273,0.628372311592102,0.5773728489875793
1772648309062055000,5.764054931640625,-0.3014695644378662,0.6070670485496521,0.5384907126426697
1772648309072059600,5.7740595703125,-0.26205483078956604,0.5628586411476135,0.4761728048324585
1772648309082064400,5.784064453125,-0.21092218160629272,0.5026712417602539,0.3946801424026489
1772648309092069000,5.794069091796875,-0.1651158481836319,0.42543962597846985,0.3073285222053528
1772648309102073900,5.804073974609375,-0.1177116185426712,0.30186906456947327,0.22370533645153046
1772648309112078800,5.814078857421875,-0.07350318133831024,0.16498269140720367,0.14327794313430786
1772648309122083600,5.82408349609375,-0.02503369376063347,0.06751107424497604,0.04900212213397026
1772648309132088300,5.83408837890625,0.026098955422639847,0.03235737979412079,-0.06231791526079178
1772648309142093000,5.844093017578125,0.05273054540157318,0.05153212323784828,-0.17523585259914398
1772648309152097800,5.854097900390625,0.07190528512001038,0.06111949309706688,-0.27164220809936523
1772648309162102800,5.864102783203125,0.08575371652841568,0.0744352862238884,-0.3392864465713501
1772648309172107500,5.874107421875,0.09374319016933441,0.0648479163646698,-0.3771032989025116
1772648309182112300,5.8841123046875,0.09960214048624039,0.01957421749830246,-0.39734330773353577
1772648309192117000,5.894116943359375,0.10492845624685287,-0.031025800853967667,-0.4143875241279602
1772648309202122000,5.9041220703125,0.10918951034545898,-0.06617949903011322,-0.4330296218395233
1772648309212126700,5.914126708984375,0.11132004112005234,-0.07736476510763168,-0.43675804138183594
1772648309222131500,5.92413134765625,0.1129179298877716,-0.07257107645273209,-0.4181159436702728
1772648309232136200,5.93413623046875,0.10333056002855301,-0.060320548713207245,-0.3728422224521637
1772648309242141000,5.944140869140625,0.08202528953552246,-0.020373165607452393,-0.3121222257614136
1772648309252146000,5.95414599609375,0.035153694450855255,0.06910897046327591,-0.24873903393745422
1772648309262150700,5.964150634765625,0.012250530533492565,0.14580795168876648,-0.20825901627540588
1772648309272155400,5.9741552734375,0.029827378690242767,0.17670059204101562,-0.1555284708738327
1772648309282160000,5.98416015625,0.07829686999320984,0.19800585508346558,-0.09108003228902817
1772648309292164900,5.994164794921875,0.14061477780342102,0.20493006706237793,-0.046871595084667206
1772648309302169900,6.004169921875,0.20399796962738037,0.17030900716781616,-0.022370534017682076
1772648309312174600,6.014174560546875,0.25193482637405396,0.06857633590698242,0.026631588116288185
1772648309322179300,6.024179443359375,0.28975167870521545,-0.023568956181406975,0.14753900468349457
1772648309332184000,6.03418408203125,0.2828274667263031,-0.14341109991073608,0.3243727385997772
1772648309342188800,6.044188720703125,0.26684850454330444,-0.17749953269958496,0.4703138470649719
1772648309352193800,6.05419384765625,0.24447797238826752,-0.19347849488258362,0.5070654153823853
1772648309362198500,6.064198486328125,0.21305270493030548,-0.17270584404468536,0.5049349069595337
1772648309372203300,6.074203369140625,0.18216006457805634,-0.18815216422080994,0.5017391443252563
1772648309382208000,6.0842080078125,0.15765899419784546,-0.19081532955169678,0.4937496483325958
1772648309392213000,6.094212890625,0.09640634804964066,-0.2696448266506195,0.4564654231071472
1772648309402217700,6.1042177734375,0.03994738310575485,-0.3490069508552551,0.38988643884658813
1772648309412222500,6.114222412109375,0.054861072450876236,-0.2696448266506195,0.2844253480434418
1772648309422227200,6.124227294921875,0.06072001904249191,-0.21584902703762054,0.2269011288881302
1772648309432232000,6.13423193359375,0.07829686999320984,-0.19241322576999664,0.21411797404289246
1772648309442236700,6.144236572265625,0.07669897377490997,-0.13009530305862427,0.1459411084651947
1772648309452241700,6.15424169921875,0.05432844161987305,-0.08428897708654404,-0.007989476434886456
1772648309462246400,6.164246337890625,0.0378168560564518,-0.07523423433303833,-0.18109479546546936
1772648309472251100,6.174251220703125,0.04527369886636734,-0.09174582362174988,-0.3217095732688904
1772648309482256000,6.184255859375,0.0378168560564518,-0.1098553016781807,-0.41705065965652466
1772648309492260600,6.194260498046875,0.0330231711268425,-0.12689951062202454,-0.4708464741706848
1772648309502265600,6.204265625,0.05699159950017929,-0.14128057658672333,-0.4852275252342224
1772648309512270300,6.214270263671875,0.12410320341587067,-0.11571425199508667,-0.446878045797348
1772648309522275000,6.224275146484375,0.21411797404289246,-0.031558431684970856,-0.3637875020503998
1772648309532279800,6.23427978515625,0.3163832724094391,0.06644581258296967,-0.26525062322616577
1772648309542284800,6.244284912109375,0.4095938205718994,0.17030900716781616,-0.1794968992471695
1772648309552289500,6.25428955078125,0.4809664785861969,0.2677806317806244,-0.1225053071975708
1772648309562294300,6.264294189453125,0.5198485851287842,0.3247722089290619,-0.11185266822576523
1772648309572299000,6.274299072265625,0.5145222544670105,0.35939326882362366,-0.141680046916008
1772648309582303700,6.2843037109375,0.4772380590438843,0.30346694588661194,-0.1880190074443817
1772648309592308500,6.29430859375,0.42610540986061096,0.22197428345680237,-0.24341271817684174
1772648309602313200,6.304313232421875,0.3771032989025116,0.1255679428577423,-0.29933905601501465
1772648309612318000,6.31431787109375,0.3217095732688904,0.0366184338927269,-0.3526022136211395
1772648309622323000,6.324322998046875,0.2775011360645294,-0.056592125445604324,-0.3909517228603363
1772648309632327700,6.33432763671875,0.21038953959941864,-0.13595426082611084,-0.4250401556491852
1772648309642332400,6.34433251953125,0.11185266822576523,-0.1711079478263855,-0.44954121112823486
1772648309652337200,6.354337158203125,0.03195790573954582,-0.2174469232559204,-0.46072646975517273
1772648309662342000,6.364341796875,-0.03621895983815193,-0.25366586446762085,-0.46924859285354614
1772648309672346600,6.3743466796875,-0.070840023458004,-0.2755037844181061,-0.4516717195510864
1772648309682351400,6.384351318359375,-0.08681897819042206,-0.2792322039604187,-0.40852856636047363
1772648309692356000,6.394356201171875,-0.08681897819042206,-0.2648511528968811,-0.3430148661136627
1772648309702361000,6.404361083984375,-0.06657896935939789,-0.23608903586864471,-0.26152220368385315
1772648309712365800,6.41436572265625,-0.027164220809936523,-0.19720691442489624,-0.17363795638084412
1772648309722370600,6.42437060546875,0.0282294824719429,-0.15512900054454803,-0.09587371349334717
1772648309732375300,6.434375244140625,0.08681897819042206,-0.0954742431640625,-0.052197910845279694
1772648309742380000,6.444380126953125,0.14274531602859497,-0.044341593980789185,-0.04474106803536415
1772648309752384800,6.454384765625,0.1933453232049942,0.004127896390855312,-0.06231791526079178
1772648309762389500,6.464389404296875,0.2269011288881302,0.014780531637370586,-0.10226529836654663
1772648309772394200,6.474394287109375,0.2577937841415405,0.018508953973650932,-0.15339794754981995
1772648309782399200,6.484399169921875,0.27963167428970337,-0.00918789766728878,-0.21411797404289246
1772648309792404000,6.494404052734375,0.28975167870521545,-0.04540685936808586,-0.2721748352050781
1772648309802408700,6.50440869140625,0.29081693291664124,-0.09334371984004974,-0.3105243146419525
1772648309812413400,6.514413330078125,0.2929474711418152,-0.13116057217121124,-0.32384011149406433
1772648309822418200,6.524418212890625,0.3009369373321533,-0.15459637343883514,-0.31851378083229065
1772648309832423000,6.5344228515625,0.32277485728263855,-0.1615205854177475,-0.30040431022644043
1772648309842427600,6.544427734375,0.32863378524780273,-0.14341109991073608,-0.27483800053596497
1772648309852432400,6.554432373046875,0.32384011149406433,-0.13222584128379822,-0.24181482195854187
1772648309862437000,6.56443701171875,0.3217095732688904,-0.10932266712188721,-0.20932428538799286
1772648309872441900,6.57444189453125,0.3201116919517517,-0.08428897708654404,-0.17789900302886963
1772648309882446800,6.58444677734375,0.3163832724094391,-0.0762995034456253,-0.14913690090179443
1772648309892451600,6.59445166015625,0.3025348484516144,-0.08482161164283752,-0.12303793430328369
1772648309902456300,6.604456298828125,0.2918822169303894,-0.09281108528375626,-0.09374319016933441
1772648309912461000,6.6144609375,0.29401272535324097,-0.11145319789648056,-0.06764423102140427
1772648309922465800,6.6244658203125,0.28016430139541626,-0.1386174112558365,-0.04953475296497345
1772648309932470500,6.634470458984375,0.2790990471839905,-0.1806953251361847,-0.03728422522544861
1772648309942475300,6.644475341796875,0.283360093832016,-0.21531638503074646,-0.03195790573954582
1772648309952480000,6.65447998046875,0.28975167870521545,-0.2515353560447693,-0.03408843278884888
1772648309962485000,6.664485107421875,0.28975167870521545,-0.2802974581718445,-0.04048001393675804
1772648309972489700,6.67448974609375,0.2790990471839905,-0.27603641152381897,-0.05699159950017929
1772648309982494500,6.684494384765625,0.2721748352050781,-0.2467416673898697,-0.08149266242980957
1772648309992499200,6.694499267578125,0.2636527121067047,-0.18282584846019745,-0.11025477200746536
1772648310002504000,6.70450390625,0.24873903393745422,-0.11944267153739929,-0.13582110404968262
1772648310012508700,6.7145087890625,0.21305270493030548,-0.06511422991752625,-0.1411474198102951
1772648310022513400,6.724513427734375,0.16351795196533203,-0.0294279046356678,-0.12303793430328369
1772648310032518100,6.73451806640625,0.1038631945848465,-0.013981583528220654,-0.07510107755661011
1772648310042523100,6.744523193359375,0.043143171817064285,-0.005992107093334198,-0.023968428373336792
1772648310052527900,6.75452783203125,-0.02876211516559124,-0.003328948514536023,0.0010652635246515274
1772648310062532400,6.764532470703125,-0.10226529836654663,0.04087948799133301,0.027696851640939713
1772648310072537000,6.774537109375,-0.18162743747234344,0.1314268857240677,0.07297055423259735
1772648310082541600,6.78454150390625,-0.2679137885570526,0.2576606273651123,0.12463583052158356
1772648310092546300,6.79454638671875,-0.36112433671951294,0.3849596083164215,0.14807163178920746
1772648310102550800,6.80455078125,-0.449008584022522,0.4808333218097687,0.1315600425004959
1772648310112555300,6.81455517578125,-0.545414924621582,0.5005406737327576,0.1134505644440651
1772648310122560000,6.82456005859375,-0.6407560110092163,0.3854922354221344,0.141680046916008
1772648310132564500,6.834564453125,-0.7334339618682861,0.13941636681556702,0.21571587026119232
1772648310142569200,6.8445693359375,-0.8106655478477478,-0.15566162765026093,0.3025348484516144
1772648310152573700,6.85457373046875,-0.8761792778968811,-0.41878172755241394,0.3664506673812866
1772648310162578200,6.864578125,-0.9060066342353821,-0.6462154984474182,0.40746331214904785
1772648310172583000,6.8745830078125,-0.9246487617492676,-0.8171902894973755,0.4191811978816986
1772648310182587400,6.88458740234375,-0.9299750328063965,-0.916259765625,0.41172435879707336
1772648310192592100,6.894592041015625,-0.9134634733200073,-0.9375650882720947,0.40213698148727417
1772648310202596600,6.9045966796875,-0.8511455655097961,-0.8757797479629517,0.3952127695083618
1772648310212601000,6.91460107421875,-0.7510107755661011,-0.7458176016807556,0.38828855752944946
1772648310222605800,6.924605712890625,-0.621048629283905,-0.5807017683982849,0.3664506673812866
1772648310232610300,6.9346103515625,-0.4900212287902832,-0.439554363489151,0.3302316963672638
1772648310242615000,6.944614990234375,-0.3968106508255005,-0.33728906512260437,0.2918822169303894
1772648310252619500,6.95461962890625,-0.3105243146419525,-0.24035008251667023,0.2599242925643921
1772648310262624000,6.9646240234375,-0.25246745347976685,-0.1375521570444107,0.2556632459163666
1772648310272628700,6.974628662109375,-0.2173137664794922,-0.03688475117087364,0.283360093832016
1772648310282633200,6.98463330078125,-0.2125200778245926,0.06431528180837631,0.32650327682495117
1772648310292638000,6.994637939453125,-0.1976063847541809,0.16018900275230408,0.3595264256000519
1772648310302642400,7.004642333984375,-0.18216006457805634,0.259258508682251,0.3488737940788269
1772648310312647000,7.01464697265625,-0.1747032105922699,0.34075117111206055,0.3057306408882141
1772648310322651600,7.024651611328125,-0.17097479104995728,0.35939326882362366,0.2695116698741913
1772648310332656000,7.03465625,-0.1794968992471695,0.24967113137245178,0.260456919670105
1772648310342660900,7.044660888671875,-0.19174742698669434,0.23315955698490143,0.2700442969799042
1772648310352665300,7.054665283203125,-0.19600848853588104,0.315717488527298,0.2929474711418152
1772648310362669800,7.064669921875,-0.18482321500778198,0.3844269812107086,0.31425273418426514
1772648310372674600,7.074674560546875,-0.15393057465553284,0.37430697679519653,0.32863378524780273
1772648310382679000,7.084678955078125,-0.14327794313430786,0.2683132588863373,0.3872233033180237
1772648310392683800,7.094683837890625,-0.1459411084651947,0.24754060804843903,0.4197138249874115
1772648310402688300,7.104688232421875,-0.14860425889492035,0.2613890469074249,0.38509276509284973
1772648310412693000,7.11469287109375,-0.13954952359199524,0.2576606273651123,0.30892643332481384
1772648310422697500,7.124697509765625,-0.13262531161308289,0.2246374487876892,0.2263685017824173
1772648310432702000,7.134701904296875,-0.12410320341587067,0.15699321031570435,0.15925689041614532
1772648310442706700,7.144706787109375,-0.11877688020467758,0.08135949820280075,0.09480845183134079
1772648310452711200,7.154711181640625,-0.10080055892467499,0.011584741063416004,0.019174743443727493
1772648310462716000,7.1647158203125,-0.06404896825551987,-0.039547909051179886,-0.05805686116218567
1772648310472720400,7.174720458984375,-0.03049316816031933,-0.06777739524841309,-0.1278316229581833
1772648310482724900,7.184724853515625,-0.012383688241243362,-0.07523423433303833,-0.174170583486557
1772648310492729600,7.1947294921875,0.012783162295818329,-0.07470160722732544,-0.2034653276205063
1772648310502734000,7.204734130859375,0.03621895983815193,-0.06937528401613235,-0.21944428980350494
1772648310512738800,7.21473876953125,0.06285054981708527,-0.06617949903011322,-0.2306295484304428
1772648310522743300,7.224743408203125,0.08415582031011581,-0.060853179544210434,-0.24181482195854187
1772648310532747800,7.234747802734375,0.10546109080314636,-0.06564686447381973,-0.24873903393745422
1772648310542752500,7.24475244140625,0.1177116185426712,-0.07576686888933182,-0.2556632459163666
1772648310552757000,7.254757080078125,0.12996214628219604,-0.1045289859175682,-0.2631200850009918
1772648310562761700,7.26476171875,0.13262531161308289,-0.18389111757278442,-0.2775011360645294
1772648310572766200,7.27476611328125,0.12410320341587067,-0.40919435024261475,-0.2881537973880768
1772648310582771000,7.28477099609375,0.1411474198102951,-0.42730382084846497,-0.29987168312072754
1772648310592775400,7.294775390625,0.14753900468349457,-0.39001959562301636,-0.30040431022644043
1772648310602780200,7.3047802734375,0.15872426331043243,-0.29095008969306946,-0.27643588185310364
1772648310612784600,7.31478466796875,0.16831164062023163,-0.14181320369243622,-0.24820640683174133
1772648310622789400,7.324789306640625,0.16405057907104492,-0.02516685053706169,-0.2125200778245926
1772648310632793900,7.3347939453125,0.14860425889492035,0.033955276012420654,-0.17310532927513123
1772648310642798600,7.344798583984375,0.15020215511322021,0.017976321280002594,-0.16245268285274506
1772648310652803000,7.354802978515625,0.14487583935260773,-0.027830010280013084,-0.18216006457805634
1772648310662807800,7.364807861328125,0.1368863582611084,-0.0954742431640625,-0.19441059231758118
1772648310672812300,7.374812255859375,0.12144003808498383,-0.17963005602359772,-0.16192005574703217
1772648310682817000,7.384817138671875,0.10279793292284012,-0.2595248222351074,-0.09480845183134079
1772648310692821500,7.394821533203125,0.07829686999320984,-0.3207774758338928,-0.03249053657054901
1772648310702826200,7.404826171875,0.04474106803536415,-0.35699644684791565,0.027696851640939713
1772648310712830700,7.414830810546875,0.019174743443727493,-0.3458111584186554,0.09747160971164703
1772648310722835500,7.42483544921875,0.005858949385583401,-0.31385326385498047,0.18109479546546936
1772648310732840000,7.43483984375,-0.0282294824719429,-0.2648511528968811,0.22317270934581757
1772648310742844700,7.4448447265625,-0.05432844161987305,-0.17164058983325958,0.23222744464874268
1772648310752849200,7.45484912109375,-0.07510107755661011,-0.07523423433303833,0.2551306188106537
1772648310762854000,7.46485400390625,-0.07669897377490997,-0.027297377586364746,0.314785361289978
1772648310772858400,7.4748583984375,-0.014913689345121384,0.037683695554733276,0.348341166973114
1772648310782863000,7.484863037109375,-0.011185267008841038,0.00945421401411295,0.3206443190574646
1772648310792867600,7.49486767578125,0.07030738890171051,0.022237375378608704,0.24714113771915436
1772648310802872300,7.504872314453125,0.13049478828907013,0.0366184338927269,0.18642111122608185
1772648310812876800,7.514876708984375,0.15872426331043243,0.042477384209632874,0.19014954566955566
1772648310822881500,7.524881591796875,0.13901689648628235,0.011584741063416004,0.19600848853588104
1772648310832886300,7.53488623046875,0.12516845762729645,0.03342264145612717,0.1597895324230194
1772648310842890800,7.544890869140625,0.09161266684532166,0.021704744547605515,0.1315600425004959
1772648310852895500,7.5548955078125,0.07616633921861649,0.02436790242791176,0.10173266381025314
1772648310862900000,7.56489990234375,0.07882949709892273,0.04087948799133301,0.058589495718479156
1772648310872904700,7.57490478515625,0.09001477062702179,0.050466857850551605,0.013848425820469856
1772648310882909200,7.5849091796875,0.0990695059299469,0.05739107355475426,-0.01438105758279562
1772648310892914000,7.594913818359375,0.13209268450737,0.054195281118154526,-0.03408843278884888
1772648310902918400,7.60491845703125,0.17097479104995728,0.01957421749830246,-0.05006738752126694
1772648310912923100,7.614923095703125,0.20612849295139313,-0.02197105996310711,-0.06072001904249191
1772648310922927600,7.624927734375,0.23861902952194214,-0.06138581037521362,-0.06338317692279816
1772648310932932400,7.634932373046875,0.27110958099365234,-0.08215844631195068,-0.07190528512001038
1772648310942936800,7.644936767578125,0.3067958950996399,-0.10559424757957458,-0.08309055864810944
1772648310952941600,7.654941650390625,0.3387537896633148,-0.13435636460781097,-0.09747160971164703
1772648310962946000,7.664946044921875,0.36112433671951294,-0.16045531630516052,-0.11877688020467758
1772648310972950800,7.67495068359375,0.3760380148887634,-0.19081532955169678,-0.13582110404968262
1772648310982955300,7.684955322265625,0.3808317184448242,-0.23129534721374512,-0.1363537311553955
1772648310992960000,7.6949599609375,0.39308223128318787,-0.23555639386177063,-0.13582110404968262
1772648311002964500,7.704964599609375,0.3781685531139374,-0.28615641593933105,-0.12889689207077026
1772648311012969200,7.71496923828125,0.3499390780925751,-0.3223753869533539,-0.12623372673988342
1772648311022973700,7.7249736328125,0.2918822169303894,-0.3559311628341675,-0.12463583052158356
1772648311032978400,7.734978515625,0.2407495528459549,-0.36711645126342773,-0.11877688020467758
1772648311042983000,7.74498291015625,0.1890842765569687,-0.35646381974220276,-0.10972214490175247
1772648311052987600,7.754987548828125,0.14540846645832062,-0.33356064558029175,-0.0942758247256279
1772648311062992000,7.764991943359375,0.12303793430328369,-0.3042658865451813,-0.07723160833120346
1772648311072996000,7.77499609375,0.11451582610607147,-0.2749711573123932,-0.07190528512001038
1772648311083000300,7.785000244140625,0.11451582610607147,-0.2366216629743576,-0.07510107755661011
1772648311093004300,7.79500439453125,0.12996214628219604,-0.19188059866428375,-0.07829686999320984
1772648311103008500,7.805008544921875,0.15872426331043243,-0.14660689234733582,-0.0846884474158287
1772648311113012700,7.8150126953125,0.1837579607963562,-0.1189100444316864,-0.09693898260593414
1772648311123016700,7.8250166015625,0.2034653276205063,-0.11038793623447418,-0.1134505644440651
1772648311133021000,7.83502099609375,0.21571587026119232,-0.11251845955848694,-0.13369056582450867
1772648311143025200,7.845025146484375,0.22477060556411743,-0.11358372122049332,-0.15286532044410706
1772648311153029000,7.855029052734375,0.21837902069091797,-0.12636688351631165,-0.16405057907104492
1772648311163033300,7.865033447265625,0.2071937620639801,-0.14021530747413635,-0.1603221595287323
1772648311173037600,7.87503759765625,0.19494321942329407,-0.13701951503753662,-0.14381057024002075
1772648311183041800,7.885041748046875,0.1789642721414566,-0.12050793319940567,-0.13475583493709564
1772648311193045800,7.895045654296875,0.1651158481836319,-0.09014792740345001,-0.12942951917648315
1772648311203050000,7.905050048828125,0.15286532044410706,-0.0576573871076107,-0.1267663538455963
1772648311213054200,7.91505419921875,0.14434321224689484,-0.019307902082800865,-0.12570109963417053
1772648311223058200,7.92505810546875,0.1363537311553955,0.012117372825741768,-0.12942951917648315
1772648311233062400,7.9350625,0.12303793430328369,0.0318247489631176,-0.14434321224689484
1772648311243066600,7.945066650390625,0.1081242486834526,0.050466857850551605,-0.16777899861335754
1772648311253070800,7.95507080078125,0.09640634804964066,0.06431528180837631,-0.18269269168376923
1772648311263074800,7.96507470703125,0.08735160529613495,0.0744352862238884,-0.18002954125404358
1772648311273079000,7.9750791015625,0.07776423543691635,0.0786963403224945,-0.141680046916008
