time,seconds_elapsed,z,y,x
1772642813767751700,0.193751708984375,0.010918950662016869,-0.009587371721863747,-0.0073236869648098946
1772642813787759900,0.213759765625,0.011984214186668396,-0.00426105409860611,-0.0003994738217443228
1772642813797763800,0.223763916015625,0.01411474123597145,-0.005858949385583401,0.0027963167522102594
1772642813807767800,0.233767822265625,0.012516846880316734,-0.00426105409860611,0.005459475331008434
1772642813817772000,0.24377197265625,0.011451583355665207,-0.007456844672560692,0.006524738855659962
1772642813827776000,0.25377587890625,0.01038631983101368,-0.010652635246515274,0.007590002380311489
1772642813837780000,0.263780029296875,0.008788423612713814,-0.012783162295818329,0.007590002380311489
1772642813847784200,0.2737841796875,0.005060001742094755,-0.01597895286977291,0.007590002380311489
1772642813857788200,0.2837880859375,0.008788423612713814,-0.015446321107447147,0.0022636849898844957
1772642813867792100,0.293792236328125,0.01038631983101368,-0.018642112612724304,0.00013315794058144093
1772642813877796400,0.30379638671875,0.011451583355665207,-0.01597895286977291,0.003328948514536023
1772642813887800300,0.31380029296875,0.011984214186668396,-0.011185267008841038,0.003328948514536023
1772642813897804300,0.32380419921875,0.012516846880316734,-0.009587371721863747,0.004394211806356907
1772642813907808300,0.333808349609375,0.012516846880316734,-0.010652635246515274,0.004394211806356907
1772642813917812500,0.3438125,0.013049477711319923,-0.006924212910234928,0.004394211806356907
1772642813927816400,0.35381640625,0.009853687137365341,0.0010652635246515274,0.003861580276861787
1772642813937820400,0.3638203125,0.001864211168140173,0.010652635246515274,0.001731053227558732
1772642813947824600,0.37382470703125,0.011451583355665207,0.0026631588116288185,-0.0009321055840700865
1772642813957828600,0.38382861328125,0.020506322383880615,-0.012250530533492565,-0.0009321055840700865
1772642813967832600,0.39383251953125,0.019973691552877426,-0.012250530533492565,-0.0009321055840700865
1772642813977836800,0.4038369140625,0.01784316450357437,-0.012783162295818329,-0.0014647373463958502
1772642813987840800,0.4138408203125,0.016777900978922844,-0.01012000348418951,0.0011984214652329683
1772642813997844700,0.4238447265625,0.01411474123597145,-0.007456844672560692,0.001731053227558732
1772642814007848700,0.4338486328125,0.012516846880316734,-0.002130527049303055,0.003861580276861787
1772642814017853000,0.44385302734375,0.01038631983101368,-0.0026631588116288185,0.0022636849898844957
1772642814027857000,0.45385693359375,0.009321056306362152,-0.004793685860931873,0.003328948514536023
1772642814037860900,0.46386083984375,0.007723160553723574,-0.006391581147909164,0.0006657897029072046
1772642814047865000,0.473864990234375,0.005592633504420519,-0.005326317623257637,0.00013315794058144093
1772642814057869000,0.483869140625,0.006125265266746283,-0.001597895286977291,-0.0003994738217443228
1772642814067873300,0.493873291015625,0.005060001742094755,-0.002130527049303055,-0.0009321055840700865
1772642814077877800,0.503877685546875,0.006125265266746283,-0.004793685860931873,-0.0003994738217443228
1772642814087882000,0.513882080078125,0.006657897029072046,-0.007989476434886456,-0.0057257916778326035
1772642814097886200,0.52388623046875,0.009321056306362152,-0.007456844672560692,-0.006258423440158367
1772642814107890700,0.533890625,0.009321056306362152,-0.007456844672560692,-0.006791055202484131
1772642814117895000,0.54389501953125,0.00719052879139781,-0.0026631588116288185,-0.003595264395698905
1772642814127899100,0.553899169921875,0.008255792781710625,-0.001597895286977291,-0.0014647373463958502
1772642814137903400,0.5639033203125,0.00719052879139781,-0.0026631588116288185,0.00013315794058144093
1772642814147907800,0.573907958984375,0.00719052879139781,-0.00426105409860611,-0.0003994738217443228
1772642814157912000,0.583912109375,0.006657897029072046,-0.007456844672560692,0.0027963167522102594
1772642814167916300,0.593916259765625,0.00719052879139781,-0.003195790573954582,0.003328948514536023
1772642814177920800,0.603920654296875,0.00719052879139781,-0.001597895286977291,0.0027963167522102594
1772642814187925000,0.613925048828125,0.008255792781710625,0.0026631588116288185,0.001731053227558732
1772642814197929200,0.62392919921875,0.008788423612713814,0.005326317623257637,0.0006657897029072046
1772642814207933700,0.63393359375,0.00719052879139781,0.009587371721863747,-0.0003994738217443228
1772642814217938000,0.64393798828125,0.0045273699797689915,0.01438105758279562,-0.0014647373463958502
1772642814227942100,0.653942138671875,0.001864211168140173,0.01438105758279562,-0.0014647373463958502
1772642814237946400,0.6639462890625,-0.001864211168140173,0.021305270493030548,-0.0030626326333731413
1772642814247950800,0.673950927734375,0.0013315794058144093,0.013848425820469856,0.0022636849898844957
1772642814257955000,0.683955078125,0.001864211168140173,0.011185267008841038,0.00918789766728878
1772642814267959300,0.693959228515625,-0.003462106455117464,0.015446321107447147,0.012916320003569126
1772642814277963800,0.7039638671875,-0.0029294746927917004,0.019707374274730682,0.014514215290546417
1772642814287968000,0.713968017578125,-0.005060001742094755,0.01438105758279562,0.009720529429614544
1772642814297972200,0.72397216796875,-0.008255792781710625,0.009054739959537983,0.003328948514536023
1772642814307976700,0.733976806640625,-0.011451583355665207,0.009054739959537983,0.003861580276861787
1772642814317981000,0.74398095703125,-0.009321056306362152,0.013848425820469856,0.003861580276861787
1772642814327985200,0.753985107421875,-0.00719052879139781,0.01651158556342125,0.005992107093334198
1772642814337989600,0.76398974609375,-0.00719052879139781,0.015446321107447147,0.00918789766728878
1772642814347993900,0.773993896484375,-0.006125265266746283,0.014913689345121384,0.009720529429614544
1772642814357998000,0.783998046875,-0.0045273699797689915,0.014913689345121384,0.008655265904963017
1772642814368002300,0.794002197265625,-0.0023968429304659367,0.014913689345121384,0.007057370617985725
1772642814378006800,0.8040068359375,-0.0013315794058144093,0.012783162295818329,0.004394211806356907
1772642814388011000,0.814010986328125,-0.00026631588116288185,0.009587371721863747,0.001731053227558732
1772642814398015200,0.82401513671875,-0.0007989476434886456,0.00426105409860611,0.0006657897029072046
1772642814408019700,0.834019775390625,-0.0013315794058144093,0.0005326317623257637,-0.001997369108721614
1772642814418024000,0.84402392578125,0.001864211168140173,-0.002130527049303055,0.0006657897029072046
1772642814428028200,0.854028076171875,0.0029294746927917004,-0.004793685860931873,-0.0003994738217443228
1772642814438032600,0.86403271484375,0.003462106455117464,-0.010652635246515274,0.00013315794058144093
1772642814448036900,0.874036865234375,0.003462106455117464,-0.01438105758279562,0.00013315794058144093
1772642814458041000,0.884041015625,0.0045273699797689915,-0.019174743443727493,0.0011984214652329683
1772642814468045600,0.894045654296875,0.008255792781710625,-0.019707374274730682,0.0006657897029072046
1772642814478049800,0.9040498046875,0.009853687137365341,-0.014913689345121384,0.001731053227558732
1772642814488054000,0.914053955078125,0.013049477711319923,-0.006924212910234928,0.0011984214652329683
1772642814498058200,0.924058349609375,0.015712637454271317,-0.003195790573954582,0.0022636849898844957
1772642814508062700,0.934062744140625,0.013582110404968262,-0.001597895286977291,0.00013315794058144093
1772642814518067000,0.94406689453125,0.011984214186668396,-0.005326317623257637,-0.0014647373463958502
1772642814528071200,0.9540712890625,0.007723160553723574,-0.005326317623257637,-0.001997369108721614
1772642814538075600,0.96407568359375,0.006125265266746283,-0.003728422336280346,0.00013315794058144093
1772642814548079900,0.974079833984375,0.003994738217443228,0.0026631588116288185,0.001731053227558732
1772642814558084400,0.98408447265625,0.00026631588116288185,0.003728422336280346,0.0006657897029072046
1772642814568089000,0.994089111328125,-0.0013315794058144093,0.007456844672560692,-0.003595264395698905
1772642814578093800,1.00409375,-0.005592633504420519,0.011185267008841038,-0.006791055202484131
1772642814588098600,1.0140986328125,-0.005060001742094755,0.019174743443727493,-0.008388950489461422
1772642814598103300,1.024103271484375,-0.003994738217443228,0.02450106106698513,-0.010519477538764477
1772642814608108000,1.03410791015625,-0.0007989476434886456,0.027164220809936523,-0.016911057755351067
1772642814618112800,1.04411279296875,0.00026631588116288185,0.012783162295818329,0.016112111508846283
1772642814628117500,1.054117431640625,-0.00719052879139781,0.019707374274730682,0.031558431684970856
1772642814638122200,1.064122314453125,-0.00719052879139781,0.029827378690242767,0.022503692656755447
1772642814648127000,1.074126953125,-0.007723160553723574,0.026098955422639847,0.008655265904963017
1772642814658132000,1.084132080078125,-0.008788423612713814,0.019707374274730682,0.0022636849898844957
1772642814668136700,1.09413671875,-0.011451583355665207,0.023435797542333603,-0.0003994738217443228
1772642814678141400,1.104141357421875,-0.011984214186668396,0.027164220809936523,-0.0014647373463958502
1772642814688146200,1.114146240234375,-0.012516846880316734,0.025566324591636658,-0.004660528153181076
1772642814698151000,1.12415087890625,-0.012516846880316734,0.022370534017682076,-0.0073236869648098946
1772642814708155600,1.13415576171875,-0.013049477711319923,0.01597895286977291,-0.010519477538764477
1772642814718160400,1.144160400390625,-0.013049477711319923,0.012783162295818329,-0.01105210930109024
1772642814728165000,1.1541650390625,-0.010918950662016869,0.010652635246515274,-0.012650004588067532
1772642814738169900,1.164169921875,-0.00719052879139781,0.009587371721863747,-0.011584741063416004
1772642814748174600,1.174174560546875,-0.0045273699797689915,0.01012000348418951,-0.006791055202484131
1772642814758179300,1.184179443359375,-0.006125265266746283,0.00426105409860611,-0.0057257916778326035
1772642814768184300,1.194184326171875,-0.006125265266746283,0.001597895286977291,-0.01105210930109024
1772642814778189000,1.20418896484375,-0.010918950662016869,0.007989476434886456,-0.014247899875044823
1772642814788193800,1.21419384765625,-0.01038631983101368,0.01438105758279562,-0.011584741063416004
1772642814798198500,1.224198486328125,-0.01038631983101368,0.018642112612724304,-0.008388950489461422
1772642814808203300,1.234203369140625,-0.0045273699797689915,0.026098955422639847,-0.006791055202484131
1772642814818208000,1.2442080078125,0.0023968429304659367,0.029294747859239578,-0.007856318727135658
1772642814828212700,1.254212646484375,0.005592633504420519,0.027696851640939713,-0.009986845776438713
1772642814838217500,1.264217529296875,0.009321056306362152,0.027164220809936523,-0.009986845776438713
1772642814848222200,1.27422216796875,0.009853687137365341,0.027696851640939713,-0.012117372825741768
1772642814858227000,1.28422705078125,0.008788423612713814,0.026098955422639847,-0.01584579423069954
1772642814868231700,1.294231689453125,0.005060001742094755,0.03249053657054901,-0.017976321280002594
1772642814878236700,1.304236572265625,0.0013315794058144093,0.03621895983815193,-0.017976321280002594
1772642814888241400,1.314241455078125,-0.00026631588116288185,0.04207791015505791,-0.021172111853957176
1772642814898246100,1.32424609375,-0.0007989476434886456,0.04633896425366402,-0.021704744547605515
1772642814908251000,1.3342509765625,-0.003994738217443228,0.03728422522544861,-0.025433165952563286
1772642814918255600,1.344255615234375,-0.00719052879139781,0.026631588116288185,-0.030226852744817734
1772642814928260400,1.35426025390625,-0.00719052879139781,0.023968428373336792,-0.0318247489631176
1772642814938265000,1.36426513671875,-0.003994738217443228,0.023435797542333603,-0.02703106217086315
1772642814948269800,1.374269775390625,-0.005060001742094755,0.018642112612724304,-0.024900535121560097
1772642814958274600,1.384274658203125,-0.0045273699797689915,0.013315794058144093,-0.02330263890326023
1772642814968279300,1.394279296875,-0.0029294746927917004,0.011185267008841038,-0.017443690448999405
1772642814978284300,1.4042841796875,-0.003462106455117464,0.003195790573954582,-0.014780531637370586
1772642814988289000,1.4142890625,-0.003462106455117464,0.0026631588116288185,-0.010519477538764477
1772642814998293800,1.424293701171875,-0.001864211168140173,0.003728422336280346,-0.0057257916778326035
1772642815008298500,1.434298583984375,0.0007989476434886456,0.0010652635246515274,-0.0009321055840700865
1772642815018303200,1.44430322265625,0.0013315794058144093,-0.001597895286977291,-0.0025300008710473776
1772642815028308000,1.454307861328125,0.0029294746927917004,-0.00426105409860611,-0.00519315991550684
1772642815038312700,1.464312744140625,0.0029294746927917004,-0.006391581147909164,-0.003595264395698905
1772642815048317400,1.4743173828125,0.003994738217443228,-0.011185267008841038,0.001731053227558732
1772642815058322200,1.484322265625,0.006125265266746283,-0.02024000696837902,0.0027963167522102594
1772642815068327000,1.494326904296875,0.003462106455117464,-0.030892642214894295,0.0022636849898844957
1772642815078331600,1.50433154296875,0.0013315794058144093,-0.04048001393675804,0.003328948514536023
1772642815088336100,1.514336181640625,0.0029294746927917004,-0.04048001393675804,0.005992107093334198
1772642815098340900,1.5243408203125,0.005060001742094755,-0.03621895983815193,0.005459475331008434
1772642815108345600,1.534345703125,0.006125265266746283,-0.03834948688745499,0.004394211806356907
1772642815118350000,1.54435009765625,0.007723160553723574,-0.03675159066915512,0.005459475331008434
1772642815128354800,1.554354736328125,0.008788423612713814,-0.034621063619852066,0.007590002380311489
1772642815138359600,1.564359619140625,0.009321056306362152,-0.03249053657054901,0.00918789766728878
1772642815148364000,1.574364013671875,0.008255792781710625,-0.0330231711268425,0.010785792954266071
1772642815158368800,1.58436865234375,0.008788423612713814,-0.03568632900714874,0.011318424716591835
1772642815168373500,1.59437353515625,0.006125265266746283,-0.03568632900714874,0.00918789766728878
1772642815178378200,1.604378173828125,0.006657897029072046,-0.03355580195784569,0.009720529429614544
1772642815188382700,1.6143828125,0.006125265266746283,-0.02876211516559124,0.007590002380311489
1772642815198387500,1.624387451171875,0.007723160553723574,-0.02077263966202736,0.0022636849898844957
1772642815208392200,1.63439208984375,0.00719052879139781,-0.010652635246515274,0.0006657897029072046
1772642815218396700,1.644396728515625,0.009321056306362152,0.0010652635246515274,-0.00519315991550684
1772642815228401400,1.6544013671875,0.009321056306362152,0.0005326317623257637,-0.00945421401411295
1772642815238406100,1.66440625,0.009853687137365341,0.0026631588116288185,-0.006791055202484131
1772642815248411000,1.674410888671875,0.011451583355665207,0.002130527049303055,-0.0073236869648098946
1772642815258415400,1.684415283203125,0.013049477711319923,0.003728422336280346,0.00013315794058144093
1772642815268420000,1.694420166015625,0.013582110404968262,0.0026631588116288185,0.0027963167522102594
1772642815278424800,1.7044248046875,0.011451583355665207,-0.003195790573954582,0.003861580276861787
1772642815288429300,1.71442919921875,0.010918950662016869,-0.005858949385583401,0.005992107093334198
1772642815298434000,1.72443408203125,0.008255792781710625,-0.005326317623257637,0.00918789766728878
1772642815308438800,1.734438720703125,0.006125265266746283,-0.006924212910234928,0.012383688241243362
1772642815318443300,1.744443359375,0.003462106455117464,-0.011185267008841038,0.00918789766728878
1772642815328448000,1.754447998046875,0.001864211168140173,-0.011717898771166801,0.009720529429614544
1772642815338452700,1.76445263671875,-0.0007989476434886456,-0.01438105758279562,0.011318424716591835
1772642815348457500,1.77445751953125,0.0013315794058144093,-0.013315794058144093,0.009720529429614544
1772642815358462000,1.7844619140625,0.003462106455117464,-0.012250530533492565,0.010785792954266071
1772642815368466700,1.794466796875,0.003994738217443228,-0.011185267008841038,0.010253161191940308
1772642815378471400,1.804471435546875,0.005060001742094755,-0.012250530533492565,0.010785792954266071
1772642815388476000,1.814475830078125,0.003994738217443228,-0.014913689345121384,0.004926843568682671
1772642815398480600,1.824480712890625,-0.00026631588116288185,-0.021305270493030548,0.00013315794058144093
1772642815408485400,1.8344853515625,0.001864211168140173,-0.021305270493030548,-0.0014647373463958502
1772642815418489900,1.84448974609375,0.001864211168140173,-0.018109479919075966,0.0006657897029072046
1772642815428494600,1.85449462890625,0.003462106455117464,-0.01651158556342125,0.0027963167522102594
1772642815438499300,1.864499267578125,0.005060001742094755,-0.01597895286977291,0.004394211806356907
1772642815448503800,1.87450390625,0.00719052879139781,-0.013315794058144093,0.00013315794058144093
1772642815458508500,1.884508544921875,0.009853687137365341,-0.012250530533492565,-0.004127896390855312
1772642815468513300,1.89451318359375,0.00719052879139781,-0.007989476434886456,-0.008388950489461422
1772642815478518000,1.90451806640625,0.00719052879139781,-0.003195790573954582,-0.008388950489461422
1772642815488522500,1.9145224609375,0.009321056306362152,-0.0005326317623257637,-0.008388950489461422
1772642815498527200,1.92452734375,0.008255792781710625,0.0026631588116288185,-0.008388950489461422
1772642815508532000,1.934531982421875,0.006657897029072046,0.005858949385583401,-0.009986845776438713
1772642815518536700,1.94453662109375,0.009321056306362152,0.00852210819721222,-0.00945421401411295
1772642815528541200,1.954541259765625,0.006125265266746283,0.01012000348418951,-0.0073236869648098946
1772642815538546000,1.9645458984375,0.008255792781710625,0.013315794058144093,-0.008921582251787186
1772642815548550700,1.974550537109375,0.007723160553723574,0.012783162295818329,-0.012650004588067532
1772642815558555400,1.984555419921875,0.006125265266746283,0.014913689345121384,-0.014780531637370586
1772642815568560400,1.994560302734375,0.0045273699797689915,0.01651158556342125,-0.014780531637370586
1772642815578565600,2.004565673828125,0.003462106455117464,0.019174743443727493,-0.011584741063416004
1772642815588571000,2.01457080078125,0.0013315794058144093,0.02024000696837902,-0.008388950489461422
1772642815598575900,2.024575927734375,0.0007989476434886456,0.01651158556342125,-0.00945421401411295
1772642815608581000,2.0345810546875,-0.0007989476434886456,0.01597895286977291,-0.008388950489461422
1772642815618586400,2.04458642578125,-0.003994738217443228,0.014913689345121384,-0.008388950489461422
1772642815628591400,2.05459130859375,-0.0013315794058144093,0.015446321107447147,-0.00519315991550684
1772642815638596600,2.0645966796875,-0.00026631588116288185,0.019174743443727493,-0.003595264395698905
1772642815648601900,2.074601806640625,-0.0023968429304659367,0.01651158556342125,-0.0025300008710473776
1772642815658607000,2.084607177734375,-0.0007989476434886456,0.013848425820469856,-0.0030626326333731413
1772642815668612000,2.094612060546875,0.00026631588116288185,0.009587371721863747,-0.004127896390855312
1772642815678617300,2.104617431640625,0.00026631588116288185,0.012783162295818329,-0.00519315991550684
1772642815688622600,2.11462255859375,0.00026631588116288185,0.011185267008841038,-0.004660528153181076
1772642815698627600,2.124627685546875,0.003994738217443228,0.009054739959537983,-0.0073236869648098946
1772642815708632800,2.1346328125,0.0029294746927917004,0.01012000348418951,-0.010519477538764477
1772642815718638000,2.14463818359375,0.0045273699797689915,0.01012000348418951,-0.011584741063416004
1772642815728643000,2.15464306640625,0.003994738217443228,0.009587371721863747,-0.012117372825741768
1772642815738648300,2.1646484375,0.0023968429304659367,0.003728422336280346,-0.01105210930109024
1772642815748653600,2.174653564453125,0.00026631588116288185,-0.003195790573954582,-0.011584741063416004
1772642815758658600,2.184658447265625,0.0007989476434886456,-0.00852210819721222,-0.008388950489461422
1772642815768663800,2.194663818359375,0.001864211168140173,-0.010652635246515274,-0.004660528153181076
1772642815778669000,2.2046689453125,0.003462106455117464,-0.01438105758279562,-0.0030626326333731413
1772642815788674300,2.21467431640625,0.006657897029072046,-0.01651158556342125,-0.004127896390855312
1772642815798679300,2.22467919921875,0.006125265266746283,-0.011717898771166801,-0.006791055202484131
1772642815808684500,2.2346845703125,0.0045273699797689915,-0.011185267008841038,-0.010519477538764477
1772642815818689500,2.244689453125,0.0045273699797689915,-0.00426105409860611,-0.010519477538764477
1772642815828694800,2.25469482421875,0.003994738217443228,0.0005326317623257637,-0.01531316339969635
1772642815838700000,2.264699951171875,0.005060001742094755,0.00426105409860611,-0.01584579423069954
1772642815848705300,2.274705322265625,0.003462106455117464,0.0005326317623257637,-0.01584579423069954
1772642815858710300,2.284710205078125,0.005060001742094755,0.002130527049303055,-0.012650004588067532
1772642815868715500,2.294715576171875,0.0023968429304659367,0.003728422336280346,-0.009986845776438713
1772642815878720800,2.304720703125,0.0045273699797689915,0.005858949385583401,-0.011584741063416004
1772642815888725800,2.314725830078125,0.001864211168140173,0.007456844672560692,-0.008921582251787186
1772642815898731000,2.32473095703125,-0.00026631588116288185,0.013315794058144093,-0.007856318727135658
1772642815908736300,2.334736328125,-0.001864211168140173,0.01597895286977291,-0.0073236869648098946
1772642815918741500,2.344741455078125,0.0029294746927917004,0.01012000348418951,-0.006791055202484131
1772642815928746500,2.35474658203125,0.0013315794058144093,0.006391581147909164,-0.003595264395698905
1772642815938751700,2.364751708984375,0.005060001742094755,0.01012000348418951,-0.0009321055840700865
1772642815948756700,2.3747568359375,0.005060001742094755,0.005326317623257637,-0.0014647373463958502
1772642815958762000,2.384761962890625,0.005060001742094755,0.003728422336280346,-0.0014647373463958502
1772642815968767200,2.394767333984375,0.006657897029072046,0.005858949385583401,-0.001997369108721614
1772642815978772500,2.4047724609375,0.007723160553723574,0.005326317623257637,0.0011984214652329683
1772642815988777500,2.414777587890625,0.006657897029072046,0.003728422336280346,0.0011984214652329683
1772642815998782700,2.42478271484375,0.006657897029072046,0,0.001731053227558732
1772642816008788000,2.4347880859375,0.006125265266746283,-0.00426105409860611,-0.0003994738217443228
1772642816018793000,2.44479296875,0.006657897029072046,-0.0005326317623257637,-0.0003994738217443228
1772642816028798200,2.454798095703125,0.00719052879139781,-0.0026631588116288185,0.0011984214652329683
1772642816038803500,2.464803466796875,0.007723160553723574,-0.002130527049303055,-0.0014647373463958502
1772642816048808400,2.474808349609375,0.005592633504420519,-0.003195790573954582,-0.0009321055840700865
1772642816058813700,2.484813720703125,0.00719052879139781,-0.003728422336280346,-0.0030626326333731413
1772642816068818200,2.494818115234375,0.008255792781710625,-0.005326317623257637,-0.0014647373463958502
1772642816078822700,2.50482275390625,0.003994738217443228,-0.006924212910234928,-0.0057257916778326035
1772642816088827400,2.514827392578125,0.003462106455117464,-0.010652635246515274,-0.003595264395698905
1772642816098832000,2.524831787109375,0.003994738217443228,-0.011185267008841038,0.00013315794058144093
1772642816108836600,2.534836669921875,0.005592633504420519,-0.012783162295818329,0.0011984214652329683
1772642816118841000,2.544841064453125,0.005592633504420519,-0.012250530533492565,0.001731053227558732
1772642816128845600,2.554845458984375,0.005592633504420519,-0.012783162295818329,0.0011984214652329683
1772642816138850300,2.564850341796875,0.006657897029072046,-0.01012000348418951,0.0022636849898844957
1772642816148854800,2.574854736328125,0.007723160553723574,-0.00852210819721222,-0.0009321055840700865
1772642816158859500,2.584859619140625,0.008788423612713814,-0.004793685860931873,-0.0014647373463958502
1772642816168864000,2.594864013671875,0.007723160553723574,-0.003728422336280346,0.0011984214652329683
1772642816178868500,2.604868408203125,0.00719052879139781,-0.002130527049303055,-0.0009321055840700865
1772642816188873200,2.614873291015625,0.006125265266746283,-0.0026631588116288185,-0.0009321055840700865
1772642816198877700,2.624877685546875,0.005060001742094755,-0.002130527049303055,-0.003595264395698905
1772642816208882400,2.63488232421875,0.005592633504420519,0.002130527049303055,-0.004127896390855312
1772642816218887000,2.644886962890625,0.003462106455117464,0.005858949385583401,-0.003595264395698905
1772642816228891400,2.654891357421875,0.003994738217443228,0.004793685860931873,-0.0057257916778326035
1772642816238896000,2.664896240234375,0.0023968429304659367,0.003195790573954582,-0.0057257916778326035
1772642816248900600,2.674900634765625,0.001864211168140173,0.0005326317623257637,-0.003595264395698905
1772642816258905000,2.684905029296875,0.0007989476434886456,0.003195790573954582,-0.001997369108721614
1772642816268909800,2.694909912109375,0.0013315794058144093,0.001597895286977291,-0.0014647373463958502
1772642816278914300,2.704914306640625,-0.00026631588116288185,0.0026631588116288185,-0.001997369108721614
1772642816288919000,2.7149189453125,-0.0007989476434886456,0.002130527049303055,-0.0030626326333731413
1772642816298923500,2.724923583984375,0.0007989476434886456,0.0005326317623257637,-0.0025300008710473776
1772642816308928000,2.734927978515625,0.0023968429304659367,0.0005326317623257637,-0.0014647373463958502
1772642816318932700,2.7449326171875,0.0029294746927917004,-0.0005326317623257637,0.00013315794058144093
1772642816328937200,2.754937255859375,0.0045273699797689915,0,0.001731053227558732
1772642816338942000,2.76494189453125,0.0045273699797689915,0,-0.0014647373463958502
1772642816348946400,2.774946533203125,0.005592633504420519,0.001597895286977291,-0.001997369108721614
1772642816358951000,2.784950927734375,0.003994738217443228,0.0010652635246515274,-0.004127896390855312
1772642816368955600,2.79495556640625,0.003462106455117464,0.003195790573954582,-0.004127896390855312
1772642816378960100,2.804960205078125,0.003994738217443228,-0.001597895286977291,-0.0057257916778326035
1772642816388964900,2.81496484375,0.003462106455117464,-0.0026631588116288185,-0.0057257916778326035
1772642816398969300,2.82496923828125,0.0029294746927917004,0.0026631588116288185,-0.004127896390855312
1772642816408973800,2.834973876953125,0.003994738217443228,0.0026631588116288185,-0.0009321055840700865
1772642816418978600,2.844978515625,0.0007989476434886456,-0.0005326317623257637,-0.0025300008710473776
1772642816428983000,2.854983154296875,0.0007989476434886456,-0.003195790573954582,-0.001997369108721614
1772642816438987800,2.86498779296875,0.0007989476434886456,-0.003195790573954582,-0.0030626326333731413
1772642816448992300,2.8749921875,-0.0013315794058144093,-0.005326317623257637,-0.001997369108721614
1772642816458996700,2.884996826171875,-0.00026631588116288185,-0.00426105409860611,-0.0014647373463958502
1772642816469001500,2.89500146484375,-0.0013315794058144093,-0.003195790573954582,-0.0014647373463958502
1772642816479006000,2.905005859375,-0.0007989476434886456,-0.0026631588116288185,0.0011984214652329683
1772642816489010700,2.9150107421875,-0.0007989476434886456,-0.001597895286977291,0.0022636849898844957
1772642816499015200,2.92501513671875,-0.00026631588116288185,-0.002130527049303055,0.0027963167522102594
1772642816509019600,2.93501953125,0.00026631588116288185,0.0005326317623257637,0.0022636849898844957
1772642816529028900,2.95502880859375,-0.003462106455117464,0,-0.0003994738217443228
1772642816539033600,2.96503369140625,-0.003462106455117464,0.0026631588116288185,-0.0025300008710473776
1772642816549038000,2.9750380859375,-0.0045273699797689915,0.00852210819721222,-0.0014647373463958502
1772642816559042600,2.98504248046875,-0.005592633504420519,0.004793685860931873,-0.0030626326333731413
1772642816569047300,2.99504736328125,-0.003462106455117464,0.003195790573954582,-0.0025300008710473776
1772642816579051800,3.0050517578125,-0.0013315794058144093,0.0026631588116288185,-0.0009321055840700865
1772642816589056300,3.01505615234375,0.00026631588116288185,0.005858949385583401,0.003328948514536023
1772642816599060700,3.025060791015625,0.003462106455117464,0.006924212910234928,0.001731053227558732
1772642816609065500,3.0350654296875,0.0045273699797689915,0.006924212910234928,-0.0025300008710473776
1772642816619070000,3.045070068359375,0.003462106455117464,0.006391581147909164,-0.00519315991550684
1772642816629074400,3.055074462890625,0.0023968429304659367,0.006391581147909164,-0.004127896390855312
1772642816639079000,3.065078857421875,0.0029294746927917004,0.006391581147909164,-0.003595264395698905
1772642816649083600,3.075083740234375,0.0007989476434886456,0.003728422336280346,-0.003595264395698905
1772642816659088100,3.085088134765625,0.0013315794058144093,0.002130527049303055,-0.0030626326333731413
1772642816669092600,3.095092529296875,0.0007989476434886456,0.0026631588116288185,-0.0003994738217443228
1772642816679097300,3.105097412109375,-0.0013315794058144093,0.002130527049303055,-0.0009321055840700865
1772642816689101800,3.115101806640625,0.00026631588116288185,0,-0.0009321055840700865
1772642816699106300,3.125106201171875,-0.005060001742094755,-0.0010652635246515274,-0.001997369108721614
1772642816709110800,3.13511083984375,-0.00719052879139781,-0.0010652635246515274,-0.0025300008710473776
1772642816719115500,3.145115478515625,-0.00719052879139781,-0.001597895286977291,0.003328948514536023
1772642816729120000,3.1551201171875,-0.005592633504420519,-0.003195790573954582,0.007057370617985725
1772642816739124500,3.16512451171875,-0.005060001742094755,-0.011717898771166801,0.00918789766728878
1772642816749129000,3.17512890625,-0.006125265266746283,-0.014913689345121384,0.010253161191940308
1772642816759133700,3.1851337890625,-0.0023968429304659367,-0.01438105758279562,0.010785792954266071
1772642816769138200,3.19513818359375,-0.001864211168140173,-0.01438105758279562,0.01344895176589489
1772642816779142700,3.205142578125,-0.0007989476434886456,-0.013848425820469856,0.009720529429614544
1772642816789147100,3.215147216796875,0.0013315794058144093,-0.015446321107447147,0.005992107093334198
1772642816799151600,3.225151611328125,0.0023968429304659367,-0.018642112612724304,0.003861580276861787
1772642816809156400,3.23515625,0.00026631588116288185,-0.02024000696837902,0.003328948514536023
1772642816819160800,3.245160888671875,0.0007989476434886456,-0.019707374274730682,0.004394211806356907
1772642816829165300,3.255165283203125,0.001864211168140173,-0.02024000696837902,0.005992107093334198
1772642816839169800,3.265169677734375,0.0045273699797689915,-0.02077263966202736,0.0027963167522102594
1772642816849174500,3.275174560546875,0.005592633504420519,-0.018109479919075966,-0.0003994738217443228
1772642816859179000,3.285178955078125,0.006657897029072046,-0.014913689345121384,-0.003595264395698905
1772642816869183500,3.29518359375,0.005592633504420519,-0.012250530533492565,-0.0030626326333731413
1772642816879188000,3.30518798828125,0.006657897029072046,-0.007989476434886456,-0.003595264395698905
1772642816889192700,3.315192626953125,0.00719052879139781,-0.00426105409860611,-0.0030626326333731413
1772642816899197200,3.325197265625,0.005592633504420519,-0.0026631588116288185,-0.0030626326333731413
1772642816909201700,3.33520166015625,0.003994738217443228,-0.0026631588116288185,0.00013315794058144093
1772642816919206100,3.3452060546875,0.003462106455117464,-0.001597895286977291,-0.0030626326333731413
1772642816929211000,3.3552109375,0.0023968429304659367,0,0.00013315794058144093
1772642816939215400,3.36521533203125,-0.0007989476434886456,0.001597895286977291,0.00013315794058144093
1772642816949219800,3.3752197265625,-0.0023968429304659367,0.005326317623257637,-0.0009321055840700865
1772642816959224300,3.385224365234375,-0.005592633504420519,0.007989476434886456,0.0011984214652329683
1772642816969229000,3.39522900390625,-0.005060001742094755,0.012250530533492565,-0.0009321055840700865
1772642816979233500,3.405233642578125,-0.006125265266746283,0.011717898771166801,-0.0003994738217443228
1772642816989238000,3.415238037109375,-0.009321056306362152,0.01438105758279562,0.00013315794058144093
1772642816999242500,3.425242431640625,-0.009321056306362152,0.009587371721863747,0.0006657897029072046
1772642817009247200,3.435247314453125,-0.00719052879139781,0.006391581147909164,0.0011984214652329683
1772642817019251700,3.445251708984375,-0.008788423612713814,0.002130527049303055,0.0011984214652329683
1772642817029256200,3.455256103515625,-0.008255792781710625,0.0026631588116288185,-0.0009321055840700865
1772642817039260700,3.4652607421875,-0.008255792781710625,0.002130527049303055,0.0022636849898844957
1772642817049265400,3.475265380859375,-0.009853687137365341,-0.003195790573954582,0.0011984214652329683
1772642817059270000,3.485269775390625,-0.01038631983101368,-0.002130527049303055,0.00013315794058144093
1772642817069274400,3.4952744140625,-0.011984214186668396,-0.004793685860931873,-0.0009321055840700865
1772642817079278800,3.50527880859375,-0.01038631983101368,-0.005858949385583401,-0.0003994738217443228
1772642817089283300,3.515283447265625,-0.008255792781710625,-0.001597895286977291,0.0006657897029072046
1772642817099287800,3.525287841796875,-0.006125265266746283,-0.002130527049303055,0.003861580276861787
1772642817109292300,3.535292236328125,-0.003462106455117464,-0.001597895286977291,0.005459475331008434
1772642817119296500,3.545296630859375,-0.003994738217443228,-0.004793685860931873,0.008655265904963017
1772642817129301000,3.555301025390625,-0.0029294746927917004,-0.004793685860931873,0.010785792954266071
1772642817139305500,3.565305419921875,-0.005592633504420519,-0.003728422336280346,0.012916320003569126
1772642817149310000,3.57531005859375,-0.0023968429304659367,-0.00426105409860611,0.010253161191940308
1772642817159314400,3.585314453125,-0.001864211168140173,-0.002130527049303055,0.00918789766728878
1772642817169319000,3.59531884765625,-0.00026631588116288185,-0.002130527049303055,0.007057370617985725
1772642817179323400,3.605323486328125,0.0013315794058144093,0.0010652635246515274,0.005459475331008434
1772642817189328000,3.615327880859375,0.0029294746927917004,0.001597895286977291,0.005992107093334198
1772642817199332400,3.625332275390625,0.005592633504420519,0.003728422336280346,0.0006657897029072046
1772642817209336800,3.6353369140625,0.006125265266746283,0.003728422336280346,-0.0014647373463958502
1772642817219341300,3.64534130859375,0.005592633504420519,0.00426105409860611,-0.0009321055840700865
1772642817229345800,3.655345703125,0.005060001742094755,0.0026631588116288185,-0.0003994738217443228
1772642817239350300,3.665350341796875,0.003994738217443228,0.007456844672560692,0.00013315794058144093
1772642817249354800,3.675354736328125,0.0013315794058144093,0.005858949385583401,0.00013315794058144093
1772642817259359000,3.68535888671875,0.0013315794058144093,0.006924212910234928,-0.0030626326333731413
1772642817269363500,3.695363525390625,0.003462106455117464,0.011185267008841038,-0.00519315991550684
1772642817279368000,3.705367919921875,0.001864211168140173,0.009587371721863747,-0.0057257916778326035
1772642817289372400,3.715372314453125,0.001864211168140173,0.010652635246515274,-0.0057257916778326035
1772642817299377000,3.725376953125,0.0013315794058144093,0.011185267008841038,-0.004127896390855312
1772642817309381400,3.73538134765625,0.0013315794058144093,0.013848425820469856,-0.0014647373463958502
1772642817319385900,3.7453857421875,0.0013315794058144093,0.01651158556342125,-0.001997369108721614
1772642817329390300,3.755390380859375,0.00026631588116288185,0.019174743443727493,-0.004127896390855312
1772642817339394800,3.765394775390625,-0.00026631588116288185,0.019174743443727493,-0.004127896390855312
1772642817349399300,3.7753994140625,-0.0029294746927917004,0.022370534017682076,-0.004127896390855312
1772642817359403800,3.78540380859375,-0.0045273699797689915,0.019707374274730682,-0.004660528153181076
1772642817369408300,3.795408203125,-0.006657897029072046,0.014913689345121384,-0.007856318727135658
1772642817379412700,3.805412841796875,-0.006657897029072046,0.01438105758279562,-0.004127896390855312
1772642817389417200,3.815417236328125,-0.003994738217443228,0.015446321107447147,-0.001997369108721614
1772642817399421700,3.825421630859375,-0.0045273699797689915,0.012783162295818329,-0.0009321055840700865
1772642817409426200,3.83542626953125,-0.0045273699797689915,0.011717898771166801,-0.0025300008710473776
1772642817419430400,3.845430419921875,-0.0045273699797689915,0.009587371721863747,-0.004127896390855312
1772642817429435000,3.855434814453125,-0.0023968429304659367,0.007456844672560692,-0.004127896390855312
1772642817439439400,3.865439453125,-0.003994738217443228,0.01012000348418951,-0.0003994738217443228
1772642817449443800,3.87544384765625,-0.0029294746927917004,0.009587371721863747,0.0011984214652329683
1772642817459448300,3.8854482421875,-0.005060001742094755,0.009587371721863747,-0.0003994738217443228
1772642817469452800,3.895452880859375,-0.005060001742094755,0.006391581147909164,-0.0009321055840700865
1772642817479457300,3.905457275390625,-0.003994738217443228,0.005858949385583401,0.00013315794058144093
1772642817489461800,3.915461669921875,-0.0045273699797689915,0.00426105409860611,-0.0009321055840700865
1772642817499466200,3.92546630859375,-0.0045273699797689915,-0.0005326317623257637,-0.001997369108721614
1772642817509470700,3.935470703125,-0.003994738217443228,0.0005326317623257637,-0.004660528153181076
1772642817519475200,3.94547509765625,-0.005060001742094755,0.002130527049303055,-0.004127896390855312
1772642817529479700,3.955479736328125,-0.0045273699797689915,0.0026631588116288185,-0.0009321055840700865
1772642817539484200,3.965484130859375,-0.003994738217443228,0.003728422336280346,-0.0009321055840700865
1772642817549488600,3.975488525390625,-0.003994738217443228,0.0026631588116288185,-0.0014647373463958502
1772642817559493000,3.9854931640625,-0.003462106455117464,0.001597895286977291,-0.0030626326333731413
1772642817569497600,3.99549755859375,-0.0023968429304659367,0.0010652635246515274,-0.0014647373463958502
1772642817579502000,4.005502197265625,-0.0029294746927917004,-0.0005326317623257637,-0.001997369108721614
1772642817589506600,4.015506591796875,-0.001864211168140173,-0.003728422336280346,0.00013315794058144093
1772642817599511000,4.025510986328125,-0.0007989476434886456,-0.004793685860931873,0.0011984214652329683
1772642817609515500,4.035515625,-0.00026631588116288185,-0.003728422336280346,0.0022636849898844957
1772642817619520000,4.04552001953125,0.0013315794058144093,-0.003195790573954582,0.003328948514536023
1772642817629524500,4.0555244140625,0.00026631588116288185,-0.00426105409860611,0.0027963167522102594
1772642817639529000,4.065529052734375,0.0013315794058144093,-0.004793685860931873,0.001731053227558732
1772642817649533700,4.07553369140625,-0.00026631588116288185,-0.009587371721863747,0.0022636849898844957
1772642817659538200,4.0855380859375,-0.00026631588116288185,-0.010652635246515274,0.0011984214652329683
1772642817669542700,4.095542724609375,-0.001864211168140173,-0.013848425820469856,0.003861580276861787
1772642817679547100,4.105547119140625,-0.0045273699797689915,-0.014913689345121384,0.003328948514536023
1772642817689551600,4.115551513671875,-0.0029294746927917004,-0.011185267008841038,0.0022636849898844957
1772642817699556000,4.12555615234375,-0.0013315794058144093,-0.009587371721863747,0.004394211806356907
1772642817709560600,4.135560546875,-0.001864211168140173,-0.00852210819721222,0.0022636849898844957
1772642817719565600,4.145565673828125,-0.0013315794058144093,-0.006391581147909164,-0.0009321055840700865
1772642817729570800,4.15557080078125,-0.00026631588116288185,-0.005326317623257637,-0.001997369108721614
1772642817739575800,4.165575927734375,0.0023968429304659367,-0.002130527049303055,-0.0014647373463958502
1772642817749580800,4.175580810546875,0.001864211168140173,-0.006391581147909164,0.0011984214652329683
1772642817759585800,4.185585693359375,-0.0007989476434886456,-0.007456844672560692,0.0027963167522102594
1772642817769591000,4.195591064453125,-0.00026631588116288185,-0.009054739959537983,0.001731053227558732
1772642817779596000,4.205595947265625,0.00026631588116288185,-0.012250530533492565,0.0006657897029072046
1772642817789601000,4.21560107421875,0.00026631588116288185,-0.009054739959537983,-0.0003994738217443228
1772642817799606000,4.22560595703125,0.00026631588116288185,-0.009054739959537983,-0.0003994738217443228
1772642817809611300,4.235611328125,-0.0023968429304659367,-0.00852210819721222,-0.0009321055840700865
1772642817819616300,4.2456162109375,-0.001864211168140173,-0.00852210819721222,0.0022636849898844957
1772642817829621200,4.255621337890625,-0.0007989476434886456,-0.007989476434886456,0.0022636849898844957
1772642817839626200,4.265626220703125,-0.00026631588116288185,-0.006924212910234928,0.004394211806356907
1772642817849631500,4.275631591796875,-0.00026631588116288185,-0.0026631588116288185,0.0022636849898844957
1772642817859636500,4.285636474609375,-0.0007989476434886456,-0.001597895286977291,0.0027963167522102594
1772642817869641500,4.295641357421875,-0.0013315794058144093,0.002130527049303055,0.001731053227558732
1772642817879646500,4.305646484375,0.00026631588116288185,0.002130527049303055,0.0011984214652329683
1772642817889651700,4.315651611328125,-0.0023968429304659367,0.0010652635246515274,0.00013315794058144093
1772642817899657000,4.325656982421875,-0.0007989476434886456,0.0010652635246515274,0.00013315794058144093
1772642817909662200,4.335662109375,0.0013315794058144093,0.003728422336280346,-0.0003994738217443228
1772642817919667500,4.34566748046875,0.0029294746927917004,0.003728422336280346,-0.0014647373463958502
1772642817929673000,4.3556728515625,0.0023968429304659367,0.00426105409860611,-0.004127896390855312
1772642817939678200,4.36567822265625,0.0029294746927917004,0.003728422336280346,-0.001997369108721614
1772642817949683500,4.375683349609375,0.0013315794058144093,0.00852210819721222,-0.0025300008710473776
1772642817959688700,4.385688720703125,0.0013315794058144093,0.006924212910234928,-0.0003994738217443228
1772642817969694000,4.39569384765625,0.0007989476434886456,0.012783162295818329,-0.0014647373463958502
1772642817979699200,4.40569921875,-0.0029294746927917004,0.00852210819721222,-0.003595264395698905
1772642817989704400,4.415704345703125,-0.0013315794058144093,0.007989476434886456,-0.00519315991550684
1772642817999709700,4.425709716796875,-0.0013315794058144093,0.004793685860931873,-0.00519315991550684
1772642818009715000,4.43571484375,-0.0023968429304659367,0.00852210819721222,-0.004660528153181076
1772642818019720200,4.44572021484375,-0.0007989476434886456,0.009054739959537983,-0.00519315991550684
1772642818029725400,4.455725341796875,0.00026631588116288185,0.012783162295818329,-0.008388950489461422
1772642818039730700,4.465730712890625,-0.0023968429304659367,0.012783162295818329,-0.00945421401411295
1772642818049736000,4.47573583984375,-0.003462106455117464,0.01012000348418951,-0.009986845776438713
1772642818059741000,4.485740966796875,-0.0023968429304659367,0.01012000348418951,-0.008388950489461422
1772642818069745000,4.495744873046875,-0.0029294746927917004,0.011185267008841038,-0.0073236869648098946
1772642818079749000,4.5057490234375,-0.003994738217443228,0.012250530533492565,-0.01105210930109024
1772642818089753000,4.515753173828125,-0.0023968429304659367,0.011185267008841038,-0.008921582251787186
1772642818099757300,4.52575732421875,-0.0023968429304659367,0.012783162295818329,-0.009986845776438713
1772642818109761500,4.535761474609375,-0.00026631588116288185,0.013315794058144093,-0.008921582251787186
1772642818119765500,4.545765625,-0.0023968429304659367,0.012783162295818329,-0.008921582251787186
1772642818129769700,4.555769775390625,-0.0023968429304659367,0.013315794058144093,-0.00945421401411295
1772642818139774000,4.56577392578125,-0.001864211168140173,0.012783162295818329,-0.0073236869648098946
1772642818149778000,4.57577783203125,-0.0029294746927917004,0.01012000348418951,-0.0025300008710473776
1772642818159782100,4.5857822265625,-0.003462106455117464,0.011717898771166801,-0.003595264395698905
1772642818169786000,4.5957861328125,-0.00026631588116288185,0.009587371721863747,-0.0014647373463958502
1772642818179790300,4.605790283203125,-0.001864211168140173,0.009587371721863747,-0.0014647373463958502
1772642818189794600,4.615794677734375,-0.0007989476434886456,0.006391581147909164,-0.0025300008710473776
1772642818199798500,4.625798583984375,-0.00026631588116288185,0.005326317623257637,-0.0014647373463958502
1772642818209802800,4.635802734375,-0.0007989476434886456,0.007456844672560692,-0.003595264395698905
1772642818219807000,4.645806884765625,-0.0007989476434886456,0.003195790573954582,-0.004660528153181076
1772642818229811000,4.65581103515625,-0.0013315794058144093,0.006924212910234928,-0.0025300008710473776
1772642818239815200,4.665815185546875,-0.0029294746927917004,0.004793685860931873,-0.0014647373463958502
1772642818249819100,4.675819091796875,-0.001864211168140173,0.006924212910234928,-0.0030626326333731413
1772642818259823400,4.6858232421875,-0.003994738217443228,0.007989476434886456,-0.0030626326333731413
1772642818269827600,4.69582763671875,-0.0029294746927917004,0.006924212910234928,-0.0014647373463958502
1772642818279831600,4.70583154296875,-0.0029294746927917004,0.006924212910234928,0.001731053227558732
1772642818289835800,4.715835693359375,-0.003994738217443228,0.007456844672560692,0.004926843568682671
1772642818299840000,4.725840087890625,-0.0023968429304659367,0.004793685860931873,0.003861580276861787
1772642818309844000,4.735843994140625,-0.003994738217443228,0.0010652635246515274,0.0027963167522102594
1772642818319848200,4.74584814453125,-0.003462106455117464,-0.002130527049303055,0.003861580276861787
1772642818329852200,4.75585205078125,-0.0029294746927917004,-0.004793685860931873,0.006524738855659962
1772642818339856400,4.7658564453125,-0.001864211168140173,-0.005326317623257637,0.004394211806356907
1772642818349860600,4.775860595703125,-0.0013315794058144093,-0.003728422336280346,0.004926843568682671
1772642818359864600,4.785864501953125,0.001864211168140173,-0.005858949385583401,0.003328948514536023
1772642818369868800,4.795868896484375,0.003462106455117464,-0.00852210819721222,0.0006657897029072046
1772642818379872800,4.805872802734375,0.003462106455117464,-0.009587371721863747,0.0006657897029072046
1772642818389877000,4.815876953125,0.006125265266746283,-0.012250530533492565,0.0011984214652329683
1772642818399881200,4.825881103515625,0.003994738217443228,-0.01012000348418951,0.0011984214652329683
1772642818409885200,4.83588525390625,0.006657897029072046,-0.012250530533492565,0.0011984214652329683
1772642818419889400,4.845889404296875,0.006657897029072046,-0.011185267008841038,0.00013315794058144093
1772642818429893600,4.8558935546875,0.0045273699797689915,-0.00852210819721222,0.0006657897029072046
1772642818439897600,4.865897705078125,0.005592633504420519,-0.009054739959537983,0.0006657897029072046
1772642818449901800,4.87590185546875,0.0029294746927917004,-0.007456844672560692,-0.001997369108721614
1772642818459905800,4.88590576171875,0.003994738217443228,-0.006391581147909164,-0.001997369108721614
1772642818469910000,4.895909912109375,0.003462106455117464,-0.00852210819721222,0.00013315794058144093
1772642818479914200,4.905914306640625,0.0029294746927917004,-0.011185267008841038,0.005992107093334198
1772642818489918200,4.915918212890625,0.003462106455117464,-0.01012000348418951,0.005992107093334198
1772642818499922400,4.92592236328125,0.0029294746927917004,-0.005858949385583401,0.007590002380311489
1772642818509926700,4.9359267578125,0.001864211168140173,-0.001597895286977291,0.008655265904963017
1772642818519930600,4.9459306640625,0.00026631588116288185,0.0010652635246515274,0.004926843568682671
1772642818529934800,4.955934814453125,-0.00026631588116288185,0.006391581147909164,0.0006657897029072046
1772642818539938800,4.965938720703125,-0.00026631588116288185,0.00852210819721222,-0.003595264395698905
1772642818549943000,4.975943115234375,-0.0013315794058144093,0.00852210819721222,-0.001997369108721614
1772642818559947300,4.985947265625,-0.0023968429304659367,0.006924212910234928,-0.0003994738217443228
1772642818569952000,4.995951904296875,-0.0013315794058144093,0.005326317623257637,0.004394211806356907
1772642818579956700,5.005956787109375,-0.00026631588116288185,0.007456844672560692,0.005992107093334198
1772642818589961200,5.015961181640625,0.003994738217443228,0.009054739959537983,0.003861580276861787
1772642818599966000,5.025966064453125,0.0045273699797689915,0.012250530533492565,0.0006657897029072046
1772642818609970400,5.035970458984375,0.0023968429304659367,0.01438105758279562,-0.001997369108721614
1772642818619975200,5.04597509765625,0.001864211168140173,0.013848425820469856,-0.0030626326333731413
1772642818629980000,5.05597998046875,0.00026631588116288185,0.011185267008841038,-0.004660528153181076
1772642818639984400,5.065984375,0.0007989476434886456,0.004793685860931873,-0.003595264395698905
1772642818649989000,5.075989013671875,0.0007989476434886456,0.002130527049303055,-0.003595264395698905
1772642818659993600,5.08599365234375,-0.0007989476434886456,0.003195790573954582,-0.003595264395698905
1772642818669998300,5.095998291015625,0.001864211168140173,0.0026631588116288185,0.0006657897029072046
1772642818680003000,5.106003173828125,0.0013315794058144093,0.003728422336280346,-0.0003994738217443228
1772642818690007600,5.116007568359375,0.0029294746927917004,0.001597895286977291,0.0011984214652329683
1772642818700012300,5.12601220703125,0.001864211168140173,0.003728422336280346,0.0006657897029072046
1772642818710017000,5.13601708984375,0.001864211168140173,0.0010652635246515274,0.001731053227558732
1772642818720021500,5.146021484375,0.00026631588116288185,0,0.004394211806356907
1772642818730026200,5.156026123046875,-0.001864211168140173,-0.0010652635246515274,0.008122634142637253
1772642818740031000,5.166031005859375,-0.0023968429304659367,-0.005858949385583401,0.00918789766728878
1772642818750035500,5.176035400390625,-0.0045273699797689915,-0.006391581147909164,0.010253161191940308
1772642818760040200,5.186040283203125,-0.005592633504420519,-0.007456844672560692,0.008122634142637253
1772642818770044700,5.196044677734375,-0.0045273699797689915,-0.006391581147909164,0.004394211806356907
1772642818780049400,5.20604931640625,-0.003462106455117464,-0.005326317623257637,0.003328948514536023
1772642818790054100,5.21605419921875,-0.0013315794058144093,-0.0005326317623257637,0.001731053227558732
1772642818800058600,5.22605859375,-0.0007989476434886456,0,0.0006657897029072046
1772642818810063400,5.2360634765625,0.001864211168140173,0.0005326317623257637,-0.001997369108721614
1772642818820067800,5.24606787109375,-0.00026631588116288185,0.004793685860931873,-0.003595264395698905
1772642818830072600,5.256072509765625,0.00026631588116288185,0.006391581147909164,-0.004127896390855312
1772642818840077300,5.266077392578125,0.00026631588116288185,0.00426105409860611,-0.0025300008710473776
1772642818850081800,5.276081787109375,0.0007989476434886456,0.0005326317623257637,0.0006657897029072046
1772642818860086500,5.28608642578125,-0.00026631588116288185,0.0005326317623257637,0.0011984214652329683
1772642818870091300,5.29609130859375,0.0013315794058144093,-0.0010652635246515274,0.0011984214652329683
1772642818880095700,5.306095703125,-0.0007989476434886456,0.004793685860931873,0.0022636849898844957
1772642818890100500,5.3161005859375,-0.0023968429304659367,0.007989476434886456,0.0006657897029072046
1772642818900105000,5.32610498046875,-0.0023968429304659367,0.00852210819721222,0.00013315794058144093
1772642818910109700,5.336109619140625,-0.003994738217443228,0.007989476434886456,-0.0025300008710473776
1772642818920114400,5.346114501953125,-0.0023968429304659367,0.009054739959537983,-0.0025300008710473776
1772642818930119000,5.356118896484375,-0.00026631588116288185,0.009054739959537983,-0.003595264395698905
1772642818940123600,5.36612353515625,0.0029294746927917004,0.01012000348418951,-0.0003994738217443228
1772642818950128400,5.37612841796875,0.003462106455117464,0.011185267008841038,-0.0014647373463958502
1772642818960132900,5.3861328125,0.005060001742094755,0.00852210819721222,-0.0003994738217443228
1772642818970137600,5.3961376953125,0.006125265266746283,0.00852210819721222,-0.0009321055840700865
1772642818980142000,5.40614208984375,0.007723160553723574,0.01438105758279562,-0.0014647373463958502
1772642818990146800,5.416146728515625,0.009321056306362152,0.01438105758279562,-0.001997369108721614
1772642819000151600,5.426151611328125,0.008788423612713814,0.01438105758279562,-0.0030626326333731413
1772642819010156000,5.436156005859375,0.008255792781710625,0.012783162295818329,-0.006258423440158367
1772642819020160800,5.446160888671875,0.009853687137365341,0.007456844672560692,-0.004127896390855312
1772642819030165500,5.45616552734375,0.005060001742094755,0.005858949385583401,-0.0014647373463958502
1772642819040170000,5.466169921875,0.005592633504420519,0.007989476434886456,0.0027963167522102594
1772642819050174700,5.4761748046875,0.003994738217443228,0.005326317623257637,0.005459475331008434
1772642819060179200,5.48617919921875,0.0007989476434886456,0.0010652635246515274,0.003861580276861787
1772642819070184200,5.49618408203125,-0.0013315794058144093,-0.0026631588116288185,0.004394211806356907
1772642819080189000,5.50618896484375,-0.0013315794058144093,-0.004793685860931873,0.0027963167522102594
1772642819090193700,5.516193603515625,-0.0013315794058144093,-0.00852210819721222,0.0027963167522102594
1772642819100198400,5.526198486328125,-0.001864211168140173,-0.007989476434886456,0.0027963167522102594
1772642819110203100,5.536203125,-0.0007989476434886456,-0.00852210819721222,0.0011984214652329683
1772642819120208000,5.546207763671875,0.003462106455117464,-0.009587371721863747,-0.001997369108721614
1772642819130212600,5.556212646484375,0.003462106455117464,-0.013315794058144093,-0.006258423440158367
1772642819140217300,5.56621728515625,0.005060001742094755,-0.012783162295818329,-0.008921582251787186
1772642819150222000,5.57622216796875,0.00719052879139781,-0.013315794058144093,-0.008921582251787186
1772642819160227000,5.58622705078125,0.007723160553723574,-0.011185267008841038,-0.008388950489461422
1772642819170231800,5.596231689453125,0.008255792781710625,-0.012250530533492565,-0.004660528153181076
1772642819180236500,5.606236572265625,0.008255792781710625,-0.009587371721863747,-0.0025300008710473776
1772642819190241300,5.6162412109375,0.008788423612713814,-0.011717898771166801,-0.0014647373463958502
1772642819200246000,5.62624609375,0.011451583355665207,-0.010652635246515274,0.00013315794058144093
1772642819210250800,5.636250732421875,0.010918950662016869,-0.00852210819721222,-0.001997369108721614
1772642819220255500,5.64625537109375,0.009321056306362152,-0.00852210819721222,-0.0025300008710473776
1772642819230260200,5.65626025390625,0.008255792781710625,-0.004793685860931873,-0.003595264395698905
1772642819240265000,5.666264892578125,0.007723160553723574,-0.0026631588116288185,-0.0025300008710473776
1772642819250269700,5.676269775390625,0.006657897029072046,-0.001597895286977291,-0.0030626326333731413
1772642819260274700,5.686274658203125,0.006125265266746283,-0.0010652635246515274,-0.0025300008710473776
1772642819270279400,5.696279541015625,0.005060001742094755,-0.00426105409860611,-0.0014647373463958502
1772642819280284200,5.7062841796875,0.0023968429304659367,-0.005326317623257637,0.00013315794058144093
1772642819290289000,5.716288818359375,0.006125265266746283,-0.005326317623257637,-0.0003994738217443228
1772642819300293600,5.726293701171875,0.00719052879139781,-0.006924212910234928,0.0006657897029072046
1772642819310298400,5.73629833984375,0.009853687137365341,-0.005326317623257637,0.0006657897029072046
1772642819320303000,5.74630322265625,0.015180004760622978,-0.0026631588116288185,0.001731053227558732
1772642819330307800,5.756307861328125,0.021038955077528954,0.0005326317623257637,-0.0009321055840700865
1772642819340312600,5.7663125,0.021571585908532143,0.0026631588116288185,-0.0014647373463958502
1772642819350317300,5.7763173828125,0.021571585908532143,0.01012000348418951,-0.001997369108721614
1772642819360322300,5.786322265625,0.01837579533457756,0.00852210819721222,-0.0030626326333731413
1772642819370327000,5.7963271484375,0.016245268285274506,0.01012000348418951,-0.0073236869648098946
1772642819380331800,5.806331787109375,0.012516846880316734,0.005326317623257637,-0.004127896390855312
1772642819390336500,5.81633642578125,0.009321056306362152,0.006391581147909164,-0.003595264395698905
1772642819400341200,5.82634130859375,0.006125265266746283,0.00426105409860611,-0.0014647373463958502
1772642819410346000,5.836345947265625,0.00719052879139781,0.004793685860931873,-0.0009321055840700865
1772642819420350700,5.846350830078125,0.00719052879139781,0.005858949385583401,-0.001997369108721614
1772642819430355500,5.85635546875,0.0029294746927917004,0.003728422336280346,-0.0030626326333731413
1772642819440360200,5.866360107421875,0.001864211168140173,0.0026631588116288185,-0.0030626326333731413
1772642819450365000,5.876364990234375,0.0023968429304659367,0.0026631588116288185,-0.0014647373463958502
1772642819460370000,5.886369873046875,0.003994738217443228,0.003728422336280346,0.0011984214652329683
1772642819470374700,5.896374755859375,0.00719052879139781,0.0010652635246515274,0.0027963167522102594
1772642819480379400,5.90637939453125,0.008788423612713814,0.002130527049303055,0.004926843568682671
1772642819490384100,5.916384033203125,0.012516846880316734,0.001597895286977291,0.001731053227558732
1772642819500388900,5.926388916015625,0.013049477711319923,0.005858949385583401,-0.0014647373463958502
1772642819510393600,5.9363935546875,0.014647373929619789,0.001597895286977291,-0.003595264395698905
1772642819520398300,5.9463984375,0.015712637454271317,0.001597895286977291,-0.003595264395698905
1772642819530403000,5.956403076171875,0.013582110404968262,0.0026631588116288185,-0.0030626326333731413
1772642819540407800,5.96640771484375,0.011451583355665207,0.006391581147909164,-0.0030626326333731413
1772642819550412800,5.976412841796875,0.011451583355665207,0.004793685860931873,-0.001997369108721614
1772642819560417300,5.986417236328125,0.009321056306362152,0.005326317623257637,-0.0009321055840700865
1772642819570421800,5.996421875,0.009321056306362152,0.006924212910234928,0.0006657897029072046
1772642819580426500,6.006426513671875,0.007723160553723574,0.004793685860931873,0.004926843568682671
1772642819590431000,6.016430908203125,0.006125265266746283,0.007989476434886456,0.011318424716591835
1772642819600435500,6.026435546875,0.005060001742094755,0.006924212910234928,0.012383688241243362
1772642819610440000,6.03643994140625,0.006125265266746283,0.004793685860931873,0.008655265904963017
1772642819620444400,6.0464443359375,0.005592633504420519,0.004793685860931873,0.003861580276861787
1772642819630449200,6.05644921875,0.001864211168140173,0.0026631588116288185,0.001731053227558732
1772642819640453600,6.06645361328125,0.0013315794058144093,-0.0026631588116288185,0.004394211806356907
1772642819650458000,6.0764580078125,0.0045273699797689915,-0.003195790573954582,0.007057370617985725
1772642819660462600,6.086462646484375,0.005592633504420519,-0.004793685860931873,0.008122634142637253
1772642819670467000,6.096467041015625,0.007723160553723574,-0.006391581147909164,0.008655265904963017
1772642819680471800,6.106471923828125,0.008255792781710625,-0.001597895286977291,0.008655265904963017
1772642819690476300,6.116476318359375,0.01038631983101368,-0.003195790573954582,0.008122634142637253
1772642819700480800,6.126480712890625,0.011451583355665207,-0.002130527049303055,0.007590002380311489
1772642819710485200,6.1364853515625,0.009321056306362152,-0.003195790573954582,0.008122634142637253
1772642819720489700,6.14648974609375,0.008255792781710625,-0.006391581147909164,0.005992107093334198
1772642819730494500,6.156494384765625,0.007723160553723574,-0.006924212910234928,0.007057370617985725
1772642819740499000,6.1664990234375,0.005592633504420519,-0.007456844672560692,0.004926843568682671
1772642819750503400,6.17650341796875,0.005592633504420519,-0.011717898771166801,0.004394211806356907
1772642819760508000,6.1865078125,0.006125265266746283,-0.012250530533492565,0.003328948514536023
1772642819770512400,6.196512451171875,0.007723160553723574,-0.011185267008841038,0.0027963167522102594
1772642819780517000,6.20651708984375,0.007723160553723574,-0.012783162295818329,0.003328948514536023
1772642819790521600,6.216521484375,0.0045273699797689915,-0.010652635246515274,0.0027963167522102594
1772642819800526000,6.226526123046875,0.003462106455117464,-0.007989476434886456,0.003328948514536023
1772642819810530600,6.236530517578125,-0.00026631588116288185,-0.006391581147909164,0.005992107093334198
1772642819820535000,6.24653515625,-0.003462106455117464,-0.011717898771166801,0.001731053227558732
1772642819830539800,6.256539794921875,-0.006657897029072046,-0.012783162295818329,-0.0003994738217443228
1772642819840544300,6.266544189453125,-0.007723160553723574,-0.018109479919075966,-0.0014647373463958502
1772642819850548700,6.276548828125,-0.006657897029072046,-0.01704421639442444,-0.0003994738217443228
1772642819860553200,6.28655322265625,-0.0045273699797689915,-0.015446321107447147,0.00013315794058144093
1772642819870557700,6.2965576171875,-0.0023968429304659367,-0.01012000348418951,-0.0014647373463958502
1772642819880562400,6.3065625,-0.0023968429304659367,-0.003195790573954582,-0.0009321055840700865
1772642819890567000,6.31656689453125,-0.0007989476434886456,0,-0.0003994738217443228
1772642819900571400,6.3265712890625,-0.001864211168140173,-0.001597895286977291,0.003861580276861787
1772642819910575900,6.336575927734375,-0.0013315794058144093,-0.003728422336280346,0.006524738855659962
1772642819920580400,6.346580322265625,-0.003462106455117464,-0.00852210819721222,0.010253161191940308
1772642819930585000,6.356585205078125,-0.005060001742094755,-0.011185267008841038,0.012383688241243362
1772642819940589600,6.366589599609375,-0.006657897029072046,-0.01651158556342125,0.012916320003569126
1772642819950594000,6.376593994140625,-0.006125265266746283,-0.013315794058144093,0.008122634142637253
1772642819960598500,6.3865986328125,-0.00719052879139781,-0.01012000348418951,0.003328948514536023
1772642819970603000,6.39660302734375,-0.006125265266746283,-0.004793685860931873,-0.003595264395698905
1772642819980607700,6.406607666015625,-0.007723160553723574,0.0010652635246515274,-0.009986845776438713
1772642819990612200,6.4166123046875,-0.009321056306362152,0.005326317623257637,-0.009986845776438713
1772642820000616700,6.42661669921875,-0.009853687137365341,0.003728422336280346,-0.009986845776438713
1772642820020625700,6.446625732421875,-0.008788423612713814,0.007456844672560692,0.0022636849898844957
1772642820030630100,6.456630126953125,-0.00719052879139781,0.003728422336280346,0.004394211806356907
1772642820040635000,6.466634765625,-0.006657897029072046,0.006924212910234928,0.004394211806356907
1772642820050639400,6.476639404296875,-0.005060001742094755,0.006924212910234928,0.005459475331008434
1772642820060643800,6.486643798828125,-0.003994738217443228,0.009054739959537983,0.004394211806356907
1772642820070648300,6.4966484375,-0.0013315794058144093,0.009587371721863747,0.0011984214652329683
1772642820080652800,6.50665283203125,0.00026631588116288185,0.010652635246515274,-0.0025300008710473776
1772642820090657300,6.5166572265625,0.0023968429304659367,0.012250530533492565,-0.00519315991550684
1772642820100661500,6.52666162109375,0.0029294746927917004,0.011717898771166801,-0.006258423440158367
1772642820110666000,6.536666015625,0.00719052879139781,0.012783162295818329,-0.008921582251787186
1772642820120670500,6.54667041015625,0.009321056306362152,0.01012000348418951,-0.012117372825741768
1772642820130675000,6.556675048828125,0.008788423612713814,0.007456844672560692,-0.009986845776438713
1772642820140679400,6.566679443359375,0.009853687137365341,0.003728422336280346,-0.007856318727135658
1772642820150684000,6.576683837890625,0.009321056306362152,0.006924212910234928,-0.00519315991550684
1772642820160688400,6.5866884765625,0.009321056306362152,0.00426105409860611,-0.004660528153181076
1772642820170692900,6.59669287109375,0.010918950662016869,0.0026631588116288185,-0.003595264395698905
1772642820180697300,6.606697265625,0.008255792781710625,0.001597895286977291,-0.001997369108721614
1772642820190701600,6.61670166015625,0.009853687137365341,0.001597895286977291,-0.001997369108721614
1772642820200706000,6.6267060546875,0.008255792781710625,-0.003195790573954582,-0.0003994738217443228
1772642820210710500,6.63671044921875,0.008255792781710625,-0.005858949385583401,-0.001997369108721614
1772642820220715000,6.646715087890625,0.00719052879139781,-0.009054739959537983,0.0011984214652329683
1772642820230719500,6.656719482421875,0.008788423612713814,-0.006391581147909164,0.003328948514536023
1772642820240724000,6.666723876953125,0.008255792781710625,-0.00426105409860611,0.006524738855659962
1772642820250728400,6.676728515625,0.00719052879139781,-0.001597895286977291,0.007590002380311489
1772642820260733000,6.68673291015625,0.006657897029072046,0,0.005459475331008434
1772642820270737400,6.6967373046875,0.005060001742094755,0.0010652635246515274,0.0011984214652329683
1772642820280742000,6.706741943359375,0.0023968429304659367,-0.0010652635246515274,-0.0009321055840700865
1772642820290746400,6.716746337890625,0.00026631588116288185,0.003728422336280346,-0.0030626326333731413
1772642820300750600,6.72675048828125,-0.00026631588116288185,0.007456844672560692,-0.0009321055840700865
1772642820310755000,6.736755126953125,-0.0023968429304659367,0.00852210819721222,0.0022636849898844957
1772642820320759600,6.746759521484375,-0.001864211168140173,0.011717898771166801,0.005459475331008434
1772642820330764000,6.756763916015625,-0.0013315794058144093,0.01012000348418951,0.006524738855659962
1772642820340768500,6.7667685546875,0.0013315794058144093,0.009054739959537983,0.005459475331008434
1772642820350773000,6.77677294921875,0.00026631588116288185,0.009054739959537983,0.0022636849898844957
1772642820360777500,6.786777587890625,-0.00026631588116288185,0.009587371721863747,0.00013315794058144093
1772642820370782000,6.796781982421875,-0.0013315794058144093,0.010652635246515274,-0.0030626326333731413
1772642820380786400,6.806786376953125,-0.0013315794058144093,0.009587371721863747,-0.006258423440158367
1772642820390791000,6.816791015625,-0.003462106455117464,0.012783162295818329,-0.00519315991550684
1772642820400795100,6.826795166015625,-0.003462106455117464,0.014913689345121384,-0.004660528153181076
1772642820410799600,6.836799560546875,-0.003462106455117464,0.017576847225427628,-0.003595264395698905
1772642820420804000,6.84680419921875,-0.001864211168140173,0.017576847225427628,-0.004660528153181076
1772642820430808600,6.85680859375,-0.0013315794058144093,0.01704421639442444,-0.004660528153181076
1772642820440813000,6.86681298828125,-0.00026631588116288185,0.01651158556342125,-0.0057257916778326035
1772642820450817500,6.876817626953125,-0.001864211168140173,0.017576847225427628,-0.004127896390855312
1772642820460822000,6.886822021484375,-0.001864211168140173,0.02024000696837902,-0.003595264395698905
1772642820470826500,6.896826416015625,-0.0023968429304659367,0.02024000696837902,-0.004660528153181076
1772642820480831000,6.9068310546875,-0.003994738217443228,0.019174743443727493,-0.006791055202484131
1772642820490835500,6.91683544921875,-0.006125265266746283,0.02024000696837902,-0.009986845776438713
1772642820500840000,6.92683984375,-0.006657897029072046,0.018109479919075966,-0.008921582251787186
1772642820510844200,6.93684423828125,-0.008788423612713814,0.011185267008841038,-0.006791055202484131
1772642820520848600,6.9468486328125,-0.010918950662016869,0.00852210819721222,-0.003595264395698905
1772642820530853000,6.95685302734375,-0.009321056306362152,0.006924212910234928,0.0011984214652329683
1772642820540857600,6.966857666015625,-0.00719052879139781,0.009054739959537983,0.003328948514536023
1772642820550862000,6.976862060546875,-0.007723160553723574,0.005858949385583401,-0.001997369108721614
1772642820560866600,6.986866455078125,-0.007723160553723574,0.007456844672560692,-0.006791055202484131
1772642820570870800,6.996870849609375,-0.006657897029072046,0.004793685860931873,-0.008921582251787186
1772642820580875000,7.006875,-0.00719052879139781,0.00852210819721222,-0.006258423440158367
1772642820590879500,7.01687939453125,-0.0045273699797689915,0.007456844672560692,-0.004127896390855312
1772642820600883700,7.0268837890625,-0.0023968429304659367,0.003195790573954582,-0.003595264395698905
1772642820610888200,7.03688818359375,-0.0045273699797689915,0.003728422336280346,-0.0003994738217443228
1772642820620892400,7.046892333984375,-0.003462106455117464,0.0026631588116288185,0.0011984214652329683
1772642820630897000,7.05689697265625,-0.0029294746927917004,0.0005326317623257637,-0.0003994738217443228
1772642820640901000,7.066901123046875,-0.0045273699797689915,-0.0005326317623257637,0.0006657897029072046
1772642820650905600,7.076905517578125,-0.0029294746927917004,0.0010652635246515274,0.00013315794058144093
1772642820660909800,7.086909912109375,-0.003462106455117464,-0.001597895286977291,0.001731053227558732
1772642820670914000,7.0969140625,-0.001864211168140173,-0.002130527049303055,-0.0009321055840700865
1772642820680918500,7.10691845703125,-0.0023968429304659367,-0.00426105409860611,-0.001997369108721614
1772642820690922800,7.1169228515625,-0.003462106455117464,-0.005326317623257637,0.0011984214652329683
1772642820700927200,7.12692724609375,-0.0029294746927917004,-0.005326317623257637,0.0027963167522102594
1772642820710931500,7.136931396484375,0.0007989476434886456,-0.003728422336280346,0.004926843568682671
1772642820720936000,7.14693603515625,0.0007989476434886456,-0.002130527049303055,0.0006657897029072046
1772642820730940200,7.156940185546875,-0.0029294746927917004,-0.00426105409860611,0.0006657897029072046
1772642820740944400,7.1669443359375,-0.001864211168140173,-0.001597895286977291,0.0022636849898844957
1772642820750948900,7.176948974609375,-0.0023968429304659367,-0.0010652635246515274,0.0027963167522102594
1772642820760953000,7.186953125,0.0013315794058144093,-0.00426105409860611,0.003861580276861787
1772642820770957600,7.19695751953125,0.0013315794058144093,-0.009587371721863747,0.004394211806356907
1772642820780961800,7.2069619140625,0.0029294746927917004,-0.012250530533492565,0.003328948514536023
1772642820790966000,7.216966064453125,0.003462106455117464,-0.010652635246515274,0.0022636849898844957
1772642820800970500,7.226970458984375,0.0045273699797689915,-0.011717898771166801,0.0022636849898844957
1772642820810974700,7.236974609375,0.003994738217443228,-0.00852210819721222,0.00013315794058144093
1772642820820979200,7.246979248046875,0.0045273699797689915,-0.004793685860931873,-0.0030626326333731413
1772642820830983400,7.2569833984375,0.0029294746927917004,-0.002130527049303055,-0.0030626326333731413
1772642820840988000,7.26698779296875,0.003994738217443228,-0.0026631588116288185,-0.004127896390855312
1772642820850992000,7.2769921875,0.0007989476434886456,-0.0010652635246515274,-0.003595264395698905
1772642820860996400,7.286996337890625,0.003462106455117464,-0.003195790573954582,-0.0003994738217443228
1772642820871000800,7.297000732421875,0.003462106455117464,-0.007456844672560692,-0.001997369108721614
1772642820881005000,7.307005126953125,0.0023968429304659367,-0.00852210819721222,-0.0025300008710473776
1772642820891009500,7.317009521484375,0.0013315794058144093,-0.011185267008841038,-0.0030626326333731413
1772642820901013800,7.327013671875,0.00026631588116288185,-0.014913689345121384,-0.004127896390855312
1772642820911018000,7.33701806640625,-0.001864211168140173,-0.01597895286977291,-0.0014647373463958502
1772642820921022500,7.3470224609375,-0.003994738217443228,-0.014913689345121384,-0.0014647373463958502
1772642820931026700,7.357026611328125,-0.003994738217443228,-0.01597895286977291,-0.0003994738217443228
1772642820941031200,7.36703125,-0.0045273699797689915,-0.012783162295818329,-0.001997369108721614
1772642820951035400,7.377035400390625,-0.003462106455117464,-0.009587371721863747,-0.0030626326333731413
1772642820961040000,7.387039794921875,-0.0023968429304659367,-0.006924212910234928,-0.003595264395698905
1772642820971044000,7.397044189453125,-0.005060001742094755,-0.006391581147909164,-0.003595264395698905
1772642820981048600,7.407048583984375,-0.0029294746927917004,-0.009054739959537983,-0.0025300008710473776
1772642820991052800,7.417052734375,-0.003462106455117464,-0.010652635246515274,-0.0003994738217443228
1772642821001057000,7.42705712890625,-0.0029294746927917004,-0.009587371721863747,-0.0003994738217443228
1772642821011061500,7.4370615234375,-0.0007989476434886456,-0.011185267008841038,-0.0009321055840700865
1772642821021065700,7.447065673828125,0.00026631588116288185,-0.011717898771166801,-0.001997369108721614
1772642821031070200,7.4570703125,-0.003462106455117464,-0.011717898771166801,-0.0057257916778326035
1772642821041074400,7.467074462890625,-0.003462106455117464,-0.009587371721863747,-0.006258423440158367
1772642821051078700,7.47707861328125,-0.0023968429304659367,-0.007456844672560692,-0.01105210930109024
1772642821061083400,7.48708349609375,-0.0029294746927917004,-0.003195790573954582,-0.012117372825741768
1772642821071088400,7.49708837890625,-0.0013315794058144093,-0.0005326317623257637,-0.01105210930109024
1772642821081093400,7.50709326171875,-0.0023968429304659367,0.0026631588116288185,-0.008388950489461422
1772642821091098400,7.517098388671875,-0.003462106455117464,0.00426105409860611,-0.00519315991550684
1772642821101103400,7.527103271484375,-0.003994738217443228,0.00426105409860611,-0.0030626326333731413
1772642821111108400,7.5371083984375,-0.003994738217443228,0.00426105409860611,0.00013315794058144093
1772642821121113300,7.54711328125,-0.006125265266746283,0.00426105409860611,-0.003595264395698905
1772642821131118300,7.557118408203125,-0.005060001742094755,0.003195790573954582,-0.0057257916778326035
1772642821141123600,7.56712353515625,-0.003994738217443228,0.005326317623257637,-0.006791055202484131
1772642821151128600,7.577128662109375,-0.003462106455117464,0.00852210819721222,-0.009986845776438713
1772642821161133600,7.587133544921875,-0.006125265266746283,0.01012000348418951,-0.01105210930109024
1772642821171138600,7.597138671875,-0.006657897029072046,0.007989476434886456,-0.012117372825741768
1772642821181143600,7.6071435546875,-0.008788423612713814,0.006924212910234928,-0.012117372825741768
1772642821191148500,7.6171484375,-0.009321056306362152,0.006391581147909164,-0.00945421401411295
1772642821201153500,7.627153564453125,-0.01038631983101368,0.009587371721863747,-0.006791055202484131
1772642821211158500,7.637158447265625,-0.010918950662016869,0.007989476434886456,-0.00945421401411295
1772642821221163500,7.64716357421875,-0.008788423612713814,0.006924212910234928,-0.008388950489461422
1772642821231168500,7.65716845703125,-0.008255792781710625,0.003728422336280346,-0.0073236869648098946
1772642821241173500,7.667173583984375,-0.009853687137365341,0.002130527049303055,-0.007856318727135658
1772642821251178500,7.677178466796875,-0.008255792781710625,0.0010652635246515274,-0.00519315991550684
1772642821261183500,7.68718359375,-0.006657897029072046,0.001597895286977291,-0.0030626326333731413
1772642821271188500,7.6971884765625,-0.007723160553723574,0.003728422336280346,0.0011984214652329683
1772642821281193500,7.707193359375,-0.005060001742094755,0.005858949385583401,0.00013315794058144093
1772642821291198500,7.717198486328125,-0.006657897029072046,0.009054739959537983,-0.0025300008710473776
1772642821301203500,7.727203369140625,-0.00719052879139781,0.007456844672560692,-0.00519315991550684
1772642821311208400,7.73720849609375,-0.008788423612713814,0.009587371721863747,-0.004127896390855312
1772642821321213700,7.747213623046875,-0.009321056306362152,0.012783162295818329,-0.004127896390855312
1772642821331218700,7.75721875,-0.006657897029072046,0.011717898771166801,-0.0057257916778326035
1772642821341223700,7.7672236328125,-0.0045273699797689915,0.010652635246515274,-0.00519315991550684
1772642821351228700,7.777228759765625,-0.006125265266746283,0.009054739959537983,-0.0025300008710473776
1772642821361233700,7.787233642578125,-0.005592633504420519,0.005326317623257637,0.0006657897029072046
1772642821371238700,7.79723876953125,-0.006657897029072046,0.003195790573954582,0.0006657897029072046
1772642821381243600,7.80724365234375,-0.00719052879139781,0.005326317623257637,0.001731053227558732
1772642821391248600,7.81724853515625,-0.006125265266746283,0.006924212910234928,0.00013315794058144093
1772642821401253600,7.827253662109375,-0.005060001742094755,0.007456844672560692,-0.0014647373463958502
1772642821411258600,7.837258544921875,-0.006125265266746283,0.012783162295818329,-0.0025300008710473776
1772642821421263600,7.847263671875,-0.006125265266746283,0.009587371721863747,-0.0057257916778326035
1772642821431268600,7.8572685546875,-0.006125265266746283,0.007989476434886456,-0.004127896390855312
1772642821441273600,7.867273681640625,-0.006125265266746283,0.00426105409860611,-0.003595264395698905
1772642821451278600,7.877278564453125,-0.00719052879139781,-0.003195790573954582,0.0022636849898844957
1772642821461283600,7.88728369140625,-0.006657897029072046,-0.003195790573954582,0.004394211806356907
1772642821471288600,7.89728857421875,-0.008255792781710625,-0.004793685860931873,0.004926843568682671
1772642821481293600,7.90729345703125,-0.007723160553723574,-0.005326317623257637,0.008122634142637253
1772642821491298600,7.917298583984375,-0.008255792781710625,-0.0005326317623257637,0.007590002380311489
1772642821501303600,7.927303466796875,-0.009853687137365341,0,0.005992107093334198
1772642821511308800,7.937308837890625,-0.009321056306362152,0.004793685860931873,0.005992107093334198
1772642821521313800,7.947313720703125,-0.006657897029072046,0.007456844672560692,0.008122634142637253
1772642821531318800,7.95731884765625,-0.005592633504420519,0.011185267008841038,0.007057370617985725
1772642821541323800,7.96732373046875,-0.005592633504420519,0.009587371721863747,0.005459475331008434
1772642821551328800,7.977328857421875,-0.005592633504420519,0.009587371721863747,0.004926843568682671
1772642821561333500,7.98733349609375,-0.008255792781710625,0.010652635246515274,0.005992107093334198
1772642821571338200,7.997338134765625,-0.009321056306362152,0.011185267008841038,0.004926843568682671
1772642821581343000,8.007343017578124,-0.01038631983101368,0.01012000348418951,0.005459475331008434
1772642821591347700,8.01734765625,-0.010918950662016869,0.010652635246515274,0.004394211806356907
1772642821601352400,8.0273525390625,-0.013049477711319923,0.011717898771166801,0.0022636849898844957
1772642821611357200,8.037357177734375,-0.010918950662016869,0.01438105758279562,0.0022636849898844957
1772642821621362000,8.04736181640625,-0.008255792781710625,0.018642112612724304,0.0011984214652329683
1772642821631366700,8.05736669921875,-0.007723160553723574,0.019174743443727493,-0.0003994738217443228
1772642821641371100,8.06737109375,-0.00719052879139781,0.02077263966202736,-0.0030626326333731413
1772642821651375900,8.0773759765625,-0.007723160553723574,0.019707374274730682,-0.0030626326333731413
1772642821661380600,8.087380615234375,-0.008255792781710625,0.019174743443727493,-0.001997369108721614
1772642821671385300,8.09738525390625,-0.006125265266746283,0.01597895286977291,-0.0014647373463958502
1772642821681390000,8.10739013671875,-0.00719052879139781,0.015446321107447147,0.00013315794058144093
1772642821691394800,8.117394775390625,-0.00719052879139781,0.014913689345121384,0.0006657897029072046
1772642821701399600,8.127399658203124,-0.006657897029072046,0.01438105758279562,-0.0009321055840700865
1772642821711404300,8.137404296875,-0.008788423612713814,0.011717898771166801,0.00013315794058144093
1772642821721409000,8.147408935546874,-0.008255792781710625,0.01597895286977291,-0.0014647373463958502
1772642821731413800,8.157413818359375,-0.007723160553723574,0.02024000696837902,-0.004127896390855312
1772642821741418200,8.167418212890626,-0.006125265266746283,0.02077263966202736,-0.004660528153181076
1772642821751423000,8.177423095703125,-0.005592633504420519,0.018109479919075966,-0.0030626326333731413
1772642821761427700,8.187427734375,-0.005060001742094755,0.017576847225427628,0.00013315794058144093
1772642821771432400,8.197432373046874,-0.0045273699797689915,0.012250530533492565,0.0022636849898844957
1772642821781437200,8.207437255859375,-0.0023968429304659367,0.01012000348418951,0.0022636849898844957
1772642821791442000,8.21744189453125,-0.003462106455117464,0.004793685860931873,0.001731053227558732
1772642821801446700,8.22744677734375,-0.0023968429304659367,0.00426105409860611,0.001731053227558732
1772642821811451400,8.237451416015626,-0.0023968429304659367,0.004793685860931873,0.0006657897029072046
1772642821821456100,8.2474560546875,-0.001864211168140173,0.003195790573954582,-0.0014647373463958502
1772642821831460900,8.2574609375,-0.0013315794058144093,0.001597895286977291,-0.003595264395698905
1772642821841465600,8.267465576171874,-0.0023968429304659367,0.0005326317623257637,-0.00519315991550684
1772642821851470300,8.27747021484375,-0.0013315794058144093,0,-0.003595264395698905
1772642821861474800,8.287474853515626,-0.0023968429304659367,-0.00426105409860611,-0.004127896390855312
1772642821871479600,8.2974794921875,0.0013315794058144093,-0.009054739959537983,-0.0025300008710473776
1772642821881484300,8.307484375,-0.0013315794058144093,-0.009054739959537983,0.0022636849898844957
1772642821891489000,8.317489013671874,-0.003994738217443228,-0.006924212910234928,0.0027963167522102594
1772642821901493800,8.32749365234375,-0.001864211168140173,-0.003728422336280346,0.0027963167522102594
1772642821911498500,8.33749853515625,-0.0029294746927917004,-0.003728422336280346,-0.0009321055840700865
1772642821921503200,8.347503173828125,-0.0029294746927917004,-0.006391581147909164,-0.0009321055840700865
1772642821931508000,8.357508056640626,-0.0045273699797689915,-0.007456844672560692,-0.0003994738217443228
1772642821941512700,8.3675126953125,-0.003994738217443228,-0.007989476434886456,0.0022636849898844957
1772642821951517400,8.377517333984375,-0.005060001742094755,-0.005858949385583401,0.003328948514536023
1772642821961522200,8.387522216796874,-0.003994738217443228,-0.002130527049303055,0.003328948514536023
1772642821971527000,8.39752685546875,-0.003994738217443228,0.0026631588116288185,0.003861580276861787
1772642821981531400,8.407531494140626,-0.006657897029072046,0.003728422336280346,-0.0014647373463958502
1772642821991536000,8.4175361328125,-0.006657897029072046,0,-0.0003994738217443228
1772642822001540900,8.427540771484376,-0.005060001742094755,0,-0.0003994738217443228
1772642822011545600,8.437545654296875,-0.003462106455117464,-0.0010652635246515274,0.001731053227558732
1772642822021550300,8.44755029296875,-0.0023968429304659367,-0.0005326317623257637,0.00013315794058144093
1772642822031555000,8.45755517578125,-0.0023968429304659367,0.003195790573954582,-0.0014647373463958502
1772642822041559800,8.467559814453125,-0.0045273699797689915,0.0005326317623257637,0.001731053227558732
1772642822051564500,8.477564453125,-0.005592633504420519,0.00426105409860611,0.0027963167522102594
1772642822061569300,8.4875693359375,-0.00719052879139781,0.002130527049303055,0.003861580276861787
1772642822071573800,8.49757373046875,-0.008788423612713814,0.001597895286977291,0.003861580276861787
1772642822081578500,8.50757861328125,-0.009853687137365341,0.0010652635246515274,0.004394211806356907
1772642822091583200,8.517583251953125,-0.00719052879139781,0.0005326317623257637,0.001731053227558732
1772642822101588000,8.527587890625,-0.008255792781710625,0.00426105409860611,0.0027963167522102594
1772642822111592700,8.5375927734375,-0.008788423612713814,0.00426105409860611,0.0011984214652329683
1772642822121597400,8.547597412109376,-0.008255792781710625,0.004793685860931873,-0.0003994738217443228
1772642822131602000,8.557601806640625,-0.008788423612713814,0.00426105409860611,0.001731053227558732
1772642822141606700,8.567606689453125,-0.01038631983101368,0.0026631588116288185,0.001731053227558732
1772642822151611400,8.577611328125,-0.010918950662016869,0.0010652635246515274,0.004926843568682671
1772642822161616100,8.5876162109375,-0.011984214186668396,0.0026631588116288185,0.007057370617985725
1772642822171620900,8.597620849609376,-0.008788423612713814,0.002130527049303055,0.010253161191940308
1772642822181625300,8.607625244140625,-0.009853687137365341,0.003728422336280346,0.011851056478917599
1772642822191630000,8.617630126953125,-0.009321056306362152,0.005858949385583401,0.009720529429614544
1772642822201634800,8.627634765625,-0.00719052879139781,0.011185267008841038,0.007057370617985725
1772642822211639600,8.6376396484375,-0.008788423612713814,0.01012000348418951,0.004394211806356907
1772642822221644300,8.647644287109374,-0.007723160553723574,0.011185267008841038,0.003861580276861787
1772642822231649000,8.65764892578125,-0.00719052879139781,0.00852210819721222,0.0027963167522102594
1772642822241653500,8.667653564453126,-0.005592633504420519,0.009054739959537983,0.003861580276861787
1772642822251658200,8.677658203125,-0.006125265266746283,0.007456844672560692,0.003328948514536023
1772642822261663000,8.6876630859375,-0.0013315794058144093,0.005326317623257637,0.0011984214652329683
1772642822271667700,8.697667724609374,-0.0045273699797689915,0.003728422336280346,-0.0014647373463958502
1772642822281672400,8.70767236328125,-0.003994738217443228,0.002130527049303055,-0.0014647373463958502
1772642822291677200,8.71767724609375,-0.003462106455117464,0,0.0006657897029072046
1772642822301681700,8.727681640625,-0.001864211168140173,-0.001597895286977291,0.0011984214652329683
1772642822311686400,8.737686279296875,-0.0023968429304659367,-0.0026631588116288185,0.003861580276861787
1772642822321691100,8.747691162109374,-0.001864211168140173,0.0005326317623257637,0.004394211806356907
1772642822331695900,8.75769580078125,-0.0013315794058144093,0.0026631588116288185,0.007590002380311489
1772642822341700600,8.76770068359375,-0.0013315794058144093,0.003728422336280346,0.007590002380311489
1772642822351705000,8.777705078125,-0.001864211168140173,0.007456844672560692,0.006524738855659962
1772642822361709800,8.787709716796876,-0.0023968429304659367,0.005858949385583401,0.003861580276861787
1772642822371714600,8.797714599609375,-0.0029294746927917004,0.005858949385583401,0.004394211806356907
1772642822381719300,8.80771923828125,-0.003462106455117464,0.001597895286977291,0.006524738855659962
1772642822391724000,8.81772412109375,-0.005060001742094755,0,0.007057370617985725
1772642822401728500,8.827728515625,-0.005060001742094755,-0.005326317623257637,0.008122634142637253
1772642822411733200,8.837733154296876,-0.003994738217443228,0.0026631588116288185,0.024101587012410164
1772642822421738000,8.847738037109375,0.0023968429304659367,0.010652635246515274,0.035819485783576965
1772642822431742700,8.85774267578125,0.0023968429304659367,0.005858949385583401,0.009720529429614544
1772642822441747500,8.86774755859375,0.003462106455117464,0.007989476434886456,0.011851056478917599
1772642822451752200,8.877752197265625,0.0007989476434886456,-0.001597895286977291,0.0011984214652329683
1772642822461757000,8.8877568359375,-0.0007989476434886456,-0.006391581147909164,-0.004660528153181076
1772642822471761400,8.897761474609375,-0.0023968429304659367,-0.009054739959537983,-0.00945421401411295
1772642822481766100,8.90776611328125,-0.0013315794058144093,-0.02024000696837902,-0.01584579423069954
1772642822491771000,8.91777099609375,-0.0023968429304659367,-0.02876211516559124,-0.017976321280002594
1772642822501775600,8.927775634765625,-0.00026631588116288185,-0.035153694450855255,-0.006791055202484131
1772642822511780400,8.9377802734375,0.00026631588116288185,-0.023435797542333603,0.008655265904963017
