time,seconds_elapsed,z,y,x
1772649820476062000,0.07806201171875,0.7524357393711805,0.7346177586078644,-0.7291098819065839
1772649820486103000,0.08810302734375,0.8636723008051514,0.5533522599190474,-0.7206131986528634
1772649820496144100,0.09814404296875,1.0015626220174134,0.20898586478531359,-0.752424487324804
1772649820506185000,0.10818505859375,1.2299518370613456,-0.2839525507032871,-0.831516217283532
1772649820516226000,0.11822607421875,1.486576674247533,-0.9415800086110829,-0.9746168935552239
1772649820526267100,0.12826708984375,1.6693787348538636,-1.7292103954821825,-1.075915194625035
1772649820536309000,0.13830908203125,1.703884231045842,-2.698716521894932,-1.1319023817196487
1772649820546350000,0.14835009765625,1.3933341807961463,-3.7640585192531346,-0.9928129138506948
1772649820556391000,0.158390869140625,0.8496820616364479,-4.777499064460397,-0.5916816983133554
1772649820566432000,0.168431884765625,0.697934479985386,-5.751583750835061,-0.21640545685943216
1772649820576473000,0.17847314453125,0.9213386000931263,-6.67728113065958,-0.014466222649998962
1772649820586514000,0.188513916015625,0.591599426857382,-7.331651632598042,0.14083667686246334
1772649820596555000,0.198554931640625,-0.14343962590247392,-7.497068404769897,0.35709856053274125
1772649820606596000,0.20859619140625,-0.12297273806557059,-7.256158876979351,0.5756731781248003
1772649820616637000,0.218636962890625,-0.3573912964016199,-6.672261841192841,0.8635700094744563
1772649820626678000,0.228677978515625,-1.3108204404994845,-5.5816953862071035,1.056340214126557
1772649820636719000,0.238718994140625,-1.5340120869003235,-4.175215892633796,1.0068450193997471
1772649820646760000,0.248760009765625,-1.3445036605231464,-2.83779356867373,1.0384499718446283
1772649820656801000,0.258801025390625,-1.3346041977994143,-1.6602163542330264,1.0337453012850135
1772649820666841900,0.268841796875,-1.0683896944910287,-0.3811977039247751,0.9291486893221735
1772649820676883000,0.278883056640625,-1.0281465314298868,1.1687310601621865,0.7806746494490653
1772649820686925000,0.288925048828125,-0.7385483760550617,2.7470447917342184,0.4556119801243767
1772649820696966000,0.2989658203125,-0.7553188935920596,4.2846915818750855,0.29788309557400644
1772649820707007000,0.309007080078125,-1.4968264117136596,5.75958644002676,0.7839258332647383
1772649820717047800,0.3190478515625,-1.3337173319622873,6.749857706570625,1.3010825980782508
1772649820727089000,0.3290888671875,-0.7037181779533624,6.453586357042193,1.5480413429051636
1772649820737130000,0.3391298828125,-0.7923749510496855,4.8886453172624105,1.9144865911170839
1772649820747170800,0.3491708984375,-0.9371221524193882,3.0907004082500933,2.1501012273699045
1772649820757212000,0.3592119140625,-1.1247136392593382,2.224864499670267,2.099161898249388
1772649820767253000,0.3692529296875,-1.3019874379634857,2.4522651420682666,1.6051136218227444
1772649820777293800,0.3792939453125,-1.973797442741692,3.6447938419252632,1.2152499424919485
1772649820787335000,0.3893349609375,-2.644218331249058,5.373622544613481,0.8548117526751011
1772649820797376000,0.3993759765625,-3.141395991742611,7.2075307474106545,0.48463513591513036
1772649820807416800,0.409416748046875,-3.8716897496715186,8.749923270773888,0.9022623628970236
1772649820817458000,0.4194580078125,-4.104270132794976,9.628864160120486,1.3910619980804622
1772649820827499000,0.4294990234375,-4.122085483209789,9.621904257979988,1.4139306863620877
1772649820837540900,0.439540771484375,-4.137252949464321,9.615939796617626,1.434616623777151
1772649820847582000,0.44958203125,-4.149610326734185,9.611284664288162,1.4498235452592372
1772649820857622800,0.459622802734375,-4.156627512019872,9.609103813117741,1.4534947811178862
1772649820867664000,0.469663818359375,-3.5241672285944223,10.110037903535366,0.7783319587804377
1772649820877705000,0.479705078125,-3.2813837236255408,9.026997752401233,0.8534476977802813
1772649820887745800,0.489745849609375,-2.7712343533560633,7.738444381028414,0.8834331592645496
1772649820897787000,0.499786865234375,-1.7881114972621202,6.313456586340069,0.6540958497155457
1772649820907828000,0.509827880859375,-0.33987317536771294,4.766243510952592,0.461228614429757
1772649820917868800,0.519868896484375,0.9336299263894557,3.1538229271173477,0.14935264933854342
1772649820927910000,0.529909912109375,1.8677049661979077,1.5690496441423891,-0.2690930544193834
1772649820937951000,0.539950927734375,2.77306799852401,-0.006954056921601295,-0.43862142662853
1772649820947991800,0.54999169921875,3.637140404562652,-1.5759265441745518,-0.5864650596436113
1772649820958033000,0.560032958984375,4.263673343765736,-3.1452555897802115,-0.791659788517654
1772649820968073700,0.57007373046875,4.543219768464565,-4.4563785203576085,-1.0796849224220961
1772649820978114800,0.58011474609375,4.791092705526948,-5.636913415560126,-1.4986344840489327
1772649820988156000,0.590156005859375,4.6878731540709735,-6.776505474999547,-2.011955616222322
1772649820998198000,0.600197998046875,4.344523827025294,-8.086966726797819,-2.2250445324122903
1772649821008239000,0.610239013671875,3.9602141285598274,-9.55945978450477,-2.6237939673796293
1772649821018280000,0.620280029296875,3.118914695343375,-10.926895553934573,-3.0928812594205137
1772649821028321000,0.630321044921875,2.2942983936414123,-12.02706979522109,-3.1715815789088606
1772649821038362000,0.640362060546875,2.066100171124935,-12.670548900789022,-2.9165944259271024
1772649821048403000,0.65040283203125,1.7133885569721459,-12.806463099622725,-2.418905308780074
1772649821058444000,0.660444091796875,1.082792313852906,-12.341127561330795,-1.501253288245201
1772649821068485000,0.670485107421875,0.5996091303117573,-11.585151372873783,-0.6245683611318469
1772649821078526000,0.68052587890625,0.5676642783880234,-10.866417412096261,-0.07151022532116622
1772649821088567000,0.690567138671875,0.80227879768759,-10.424903478896617,0.15522431785091756
1772649821098608000,0.700608154296875,0.9998679469287395,-10.216100569462776,0.21455303392577915
1772649821108649000,0.71064892578125,1.2822307442225516,-10.195417846918106,0.06644439329896122
1772649821118690000,0.72068994140625,1.7328502132892607,-10.17855088326931,-0.2077915769668296
1772649821128731100,0.730731201171875,2.222031322070956,-10.04162078539133,-0.5504650140449404
1772649821138772000,0.74077197265625,2.5823607177510857,-9.753020701143145,-1.0864049513921141
1772649821148814000,0.75081396484375,2.561302439892292,-9.424415354242921,-1.4342346387222409
1772649821158855000,0.76085498046875,2.0232151152528823,-9.047191814646125,-1.4112503612369298
1772649821168896000,0.77089599609375,1.3634798714108765,-8.497121645137668,-1.5520909105569123
1772649821178936800,0.780936767578125,1.535829657716304,-7.579922629067301,-1.6805239598549901
1772649821188978000,0.79097802734375,1.6684296174354851,-6.206170516097545,-1.5406085625559092
1772649821199019000,0.80101904296875,0.9311579833179712,-4.483645881989598,-1.1402919513370842
1772649821209059800,0.811059814453125,-0.2981884351961315,-2.2475474561214446,-0.5511192401699722
1772649821219101000,0.821100830078125,-0.015889935310184955,0.9877765271186828,-0.9751618140868842
1772649821229142000,0.83114208984375,0.8908569525897503,5.655288445684313,-2.447947278869152
1772649821239182800,0.841182861328125,1.6192888621695338,11.865537171006203,-4.863211893059313
1772649821249224000,0.851223876953125,1.6668986084759234,11.87520399401784,-4.909336807635426
1772649821259265000,0.86126513671875,1.7458135936282575,11.893131280374526,-5.003513805457949
1772649821269305900,0.871305908203125,1.804499737483263,11.910633034795522,-5.125329920834303
1772649821279347000,0.881346923828125,-0.6873788914404809,14.088789559304713,6.56951984412074
1772649821289388000,0.891387939453125,-1.0451730695545673,8.293265544456244,5.990411796176433
1772649821299428900,0.901428955078125,-2.5425819573312998,5.6880544047325845,5.294627918353677
1772649821309471000,0.911470947265625,-5.051699451956153,6.380822149604558,5.5775593093156814
1772649821319511800,0.92151171875,-7.296945060876012,7.8357953327119345,4.647849771240353
1772649821329553000,0.931552978515625,-5.042057178863883,10.092364299678803,2.5086826103389264
1772649821339594000,0.941593994140625,-5.030938403478265,10.087344425690173,2.5730060294285417
1772649821349634800,0.951634765625,-5.010567815622687,10.083912113153934,2.6427327688664195
1772649821359676000,0.961676025390625,-4.997687875783443,10.080924037253856,2.6986756053626535
1772649821369717000,0.971717041015625,-4.99924153496623,10.077288311100006,2.7357433532580733
1772649821379757800,0.9817578125,-5.019665314313769,10.072186604046822,2.7517683131247757
1772649821389799000,0.991798828125,-5.057645793139934,10.065789596486091,2.7475913197010753
1772649821399840000,1.001840087890625,-5.100055194324255,10.06016065068841,2.7278783189713955
1772649821409880800,1.011880859375,-2.241745345713943,10.756792669773102,0.9287819749016314
1772649821419922000,1.021921875,-0.9654191493600607,8.467268358665704,0.1853179158847779
1772649821429962800,1.031962646484375,0.5733974152125418,6.029927814006805,-0.39436559385992587
1772649821440004900,1.0420048828125,1.2952825334973632,3.2675065894424913,-0.7286227559767663
1772649821450046000,1.0520458984375,1.8505415038205681,0.5179834248960018,-0.8291816368561238
1772649821460088000,1.062088134765625,2.726695831188559,-1.9492419704169033,-1.4178219947122037
1772649821470129000,1.07212890625,3.3775919350147245,-4.077870786169171,-2.1370016534306107
1772649821480170000,1.082169921875,4.0770290746480224,-6.3126043534249066,-2.5118074643611905
1772649821490211000,1.092211181640625,4.141836770123243,-8.566136144652962,-2.5690707358062266
1772649821500252000,1.102251953125,4.00925902223587,-10.103470215582847,-2.6815368390351533
1772649821510293000,1.11229296875,4.301406277571618,-10.65588197978139,-2.759992536112666
1772649821520334000,1.122333984375,4.4206525424599645,-10.819325990575551,-2.7639450731307265
1772649821530375000,1.132375,3.859676363533735,-10.92695751325488,-2.8502222576141354
1772649821540416000,1.142416015625,3.1287288178712127,-11.210033281123637,-2.760876040948927
1772649821550457000,1.15245703125,2.3337650193721053,-11.296837119829654,-2.4929157168865204
1772649821560498000,1.162497802734375,1.6399691004961727,-10.937141053617,-2.393919920605421
1772649821570539000,1.1725390625,0.9498995086669921,-10.561595091843605,-2.229493328514695
1772649821580580000,1.182580078125,0.4024591762054711,-10.514389104032515,-1.778338145136088
1772649821590621000,1.192620849609375,0.4092833962023258,-10.392897398304939,-1.502319017780572
1772649821600662000,1.202662109375,0.5599095726080239,-10.156963320839404,-1.3471136968910693
1772649821610703000,1.212703125,0.29934140462353825,-10.02651440167427,-1.0096677486702799
1772649821620745000,1.222744873046875,0.1955798552453518,-9.984172805029154,-0.6246600580032915
1772649821630786000,1.2327861328125,0.49975028746053574,-10.014929177820681,-0.35710889926366507
1772649821640827000,1.242826904296875,0.9175209415011107,-10.063126514756679,-0.2569191074250266
1772649821650868000,1.252867919921875,1.2636807959228753,-10.069325953918694,-0.19629520044047385
1772649821660909000,1.262908935546875,1.3273375677973032,-9.863257437884807,-0.10644435872137546
1772649821670950000,1.272949951171875,1.0385955908603965,-9.457474158757924,0.07245824676100164
1772649821680991000,1.282990966796875,0.5669903246492147,-8.891124470099806,0.2648933742398396
1772649821691031800,1.29303173828125,0.30428792111501096,-8.394305998307466,0.2676341243153438
1772649821701073000,1.303072998046875,0.8313606613956391,-7.86902014144361,0.11413699558321386
1772649821711114000,1.313114013671875,1.5578087036818264,-7.296188689550757,-0.07425853764861821
1772649821721154800,1.32315478515625,1.1118274158097803,-6.332564606913924,-0.32951245180778205
1772649821731196000,1.33319580078125,1.7072214126445353,-4.671005021378398,-1.200395706905052
1772649821741237000,1.343237060546875,2.545657126992941,-2.5539795496582984,-1.8261460443630813
1772649821751277800,1.35327783203125,2.0645096870630977,-0.15444295821487902,-2.2593075981505213
1772649821761319000,1.36331884765625,-0.7159149578340351,2.7724697403699157,-1.8237971431493758
1772649821771360800,1.37336083984375,-2.0777656206078827,7.113641918879747,-0.8791430608551949
1772649821781401900,1.38340185546875,-2.0193962876170874,7.120375611048936,-0.8506368781432508
1772649821791443000,1.39344287109375,-1.955835377332568,7.128378300240636,-0.828985237501189
1772649821801483800,1.40348388671875,-1.8751852389506996,7.140397239336371,-0.8643987884487956
1772649821811524900,1.41352490234375,-6.893910788196325,19.511130249857903,9.124953684240579
1772649821821566000,1.42356591796875,-2.209941509696096,9.727757665070891,4.367437085101008
1772649821831606800,1.433606689453125,-1.3923415164969861,6.2306824415415525,1.32838313132748
1772649821841647900,1.44364794921875,-4.681584283059835,6.452030359771848,1.5541998655349016
1772649821851689000,1.45368896484375,-7.814368513801694,6.623255525961518,2.8629133968830107
1772649821861729800,1.463729736328125,-7.773094838649034,7.109348605599999,2.0128268460989
1772649821871771000,1.47377099609375,-7.068136305245757,9.78301953356564,0.9233125305145978
1772649821881812000,1.48381201171875,-7.0706883278161285,9.782168469694255,0.9340751128736883
1772649821891852800,1.493852783203125,-7.075395482593774,9.781561735972762,0.9289815891269594
1772649821901894000,1.503893798828125,-7.0762915546506635,9.782188927960394,0.9092696843758225
1772649821911935000,1.51393505859375,-7.070595973357558,9.784536367869377,0.876685219374299
1772649821921976800,1.523976806640625,-7.057833522418141,9.788474291840195,0.8385642360989004
1772649821932018000,1.534017822265625,-1.3441869957894086,11.020159528565406,1.5957590796306729
1772649821942058800,1.544058837890625,-1.1257254466503859,9.331720119410752,1.1371631517920642
1772649821952099800,1.554099853515625,-0.5892128239817916,7.218190673112868,0.6816087836064398
1772649821962140700,1.564140625,0.07192147300317883,5.139723772367835,0.05872169009242206
1772649821972181800,1.574181640625,0.4695891040831804,3.4371026931256052,-0.4524604938235134
1772649821982222800,1.584222900390625,1.1099169060133396,1.7804384784162044,-0.9610944910939783
1772649821992263700,1.594263671875,2.1335171723157167,0.02366261513829231,-1.5229096781276166
1772649822002304800,1.6043046875,3.112268096935749,-1.8400135339349508,-2.0905326015919448
1772649822012346000,1.61434619140625,3.7522231200307608,-3.849672271391749,-2.409259236295521
1772649822022387000,1.624386962890625,4.18705012281239,-5.935276184409856,-2.586037944959104
1772649822032428000,1.634427978515625,4.521196737226844,-7.828272535991668,-2.9170883469238875
1772649822042469000,1.64446923828125,4.568384604859352,-9.324385538738966,-3.300842457333207
1772649822052510000,1.654510009765625,4.52174384971559,-10.422029969286918,-3.1306644621089097
1772649822062552000,1.664552001953125,4.367921653747558,-11.426427960860728,-2.853770305484533
1772649822072593000,1.674593017578125,4.092442916879057,-12.2442114939332,-2.5835657096266744
1772649822082634000,1.684634033203125,3.304990224662423,-12.775590991497038,-2.113821999503672
1772649822092675000,1.694675048828125,2.3691145651727914,-12.716576492470502,-1.3096715627253055
1772649822102716000,1.7047158203125,1.6283096423625945,-12.002960605359076,-0.35140162753276527
1772649822112757000,1.714757080078125,0.8550703305460512,-11.1034620811522,0.4180886704811826
1772649822122798000,1.724798095703125,0.5719885713279247,-10.394487297844886,1.020978101105243
1772649822132839000,1.7348388671875,0.7321006612204015,-9.902613296717405,1.2126344992965459
1772649822142880000,1.7448798828125,0.820416950315982,-9.64750748579204,1.0319083681814372
1772649822152921000,1.754921142578125,0.9152591340489685,-9.578376081898808,0.6360642992667853
1772649822162962000,1.7649619140625,1.1181078112535179,-9.566054944986105,0.16119995819441973
1772649822173003000,1.7750029296875,1.39455816963315,-9.5648876547724,-0.3686622301416471
1772649822183043800,1.7850439453125,1.6695114213228224,-9.52714098470211,-0.9240664176218211
1772649822193085000,1.7950849609375,1.913413262797147,-9.450193938621878,-1.4449538933962582
1772649822203126800,1.805126708984375,2.114568141695857,-9.385072354891896,-1.9230116967476902
1772649822213167900,1.81516796875,2.119406960029155,-9.222948194524646,-2.3732751919835806
1772649822223209000,1.825208984375,2.2218713092036544,-8.760349972242116,-2.7717075238257647
1772649822233249800,1.835249755859375,1.8691046038627623,-7.9356725880026815,-2.8683336683660743
1772649822243291000,1.845290771484375,0.4316489572674036,-6.592569880318641,-2.7515318740203973
1772649822253332000,1.85533203125,-0.2369540681630373,-4.636288512784242,-2.9466040720045563
1772649822263372800,1.865372802734375,0.8445692486673593,-2.437408349198103,-2.856646445442736
1772649822273414000,1.875413818359375,2.236961180177331,-0.060036243289709086,-2.2289456315040588
1772649822283455000,1.885455078125,1.2862025704629718,2.6064602630019187,-1.7686076092384755
1772649822293495800,1.895495849609375,-0.31259295425415035,6.162303901842236,-1.6766639234259724
1772649822303537000,1.905536865234375,0.437216089875251,11.607137579232454,-2.0870900599226356
1772649822313578000,1.915577880859375,0.45729427065551276,11.6101104575634,-2.056627993902564
1772649822323618800,1.925618896484375,1.4126561363816261,16.0262949146986,3.3105922824531793
1772649822333660000,1.935659912109375,-3.1808558954715727,8.673873465794324,3.230777571982145
1772649822343701800,1.94570166015625,-2.4163690683007237,5.598929429602623,0.383175543336384
1772649822353742800,1.955742919921875,-4.30745520234704,6.972797277906537,0.5441957975823432
1772649822363784000,1.965783935546875,-6.60961921479702,8.08590055887103,1.782262771233916
1772649822373824800,1.97582470703125,-7.358909641879796,8.046191064295172,3.6005905430614944
1772649822383865900,1.985865966796875,-5.302952094584703,8.135396118924021,3.9433582708269355
1772649822393907000,1.995906982421875,-4.835432490251958,9.686085345989465,3.4049379148408767
1772649822403947800,2.00594775390625,-4.8251726697832344,9.687609779077768,3.4168332275569435
1772649822413988900,2.01598876953125,-4.821299335481227,9.687024672666192,3.445091061531007
1772649822424030000,2.026030029296875,-4.8187698170036075,9.686405079463123,3.4697251520499583
1772649822434070500,2.036070556640625,-4.811436113114655,9.687332715702055,3.4834368665382263
1772649822444111600,2.046111572265625,-3.839982067504525,10.033110146677494,1.9384242238044738
1772649822454152700,2.056152587890625,-3.378379578261077,9.062750033783912,0.9313532136291265
1772649822464193500,2.066193603515625,-2.8090707475364205,9.07914879539907,-0.003697429745830595
1772649822474235600,2.076235595703125,-2.8110136982977387,9.079281481868028,-0.016076580456085503
1772649822484276500,2.0862763671875,-2.6233926931023595,9.720852707988023,-0.10967749542370438
1772649822494317600,2.096317626953125,-2.704137377899885,8.8543761634171,0.6483803216129541
1772649822504358700,2.106358642578125,-1.97742820045948,7.311086398953199,1.4903960864052175
1772649822514399500,2.1163994140625,-1.0500666868150235,5.505804571181535,2.0774030709058047
1772649822524440600,2.126440673828125,0.20454817459881305,3.43358854752481,2.3035966756016015
1772649822534481400,2.1364814453125,1.613463370886445,1.2870394596785306,1.9304782332360744
1772649822544522500,2.1465224609375,2.558806823684275,-0.8662661166906356,1.2239485049933194
1772649822554563600,2.1565634765625,3.158954444786906,-2.9509862326115366,0.4357710056334734
1772649822564604400,2.1666044921875,3.6254549352049827,-4.961929749181866,-0.42476672347299754
1772649822574645500,2.1766455078125,3.9479239713072776,-6.943264309430122,-1.2654042587146161
1772649822584686600,2.1866865234375,3.9323514313831924,-8.84626533767581,-2.150225438271463
1772649822594728400,2.196728515625,3.37538127322793,-10.322366649007797,-2.8541613506287336
1772649822604769500,2.20676953125,2.9520553231477735,-11.20540152966976,-3.1767139733612537
1772649822614810400,2.216810302734375,3.064729516169429,-11.43876955603957,-3.7227082717329263
1772649822624851500,2.2268515625,3.299038622781634,-11.462967593228816,-3.9769571735680103
1772649822634892500,2.236892578125,3.498773844140768,-11.644440597188472,-3.724743576952815
1772649822644933400,2.246933349609375,3.521511745649576,-11.655277633023262,-3.1279777072429655
1772649822654974500,2.256974365234375,2.1171974672861396,-11.14921027137041,-2.8467160030588508
1772649822665015600,2.267015625,1.1595470522314308,-10.303561410772799,-2.286073878392577
1772649822675056400,2.277056396484375,0.6841128753818572,-9.714087451636791,-1.3640486112095416
1772649822685097500,2.287097412109375,0.6128731010325252,-9.355194518500566,-0.7098046582601965
1772649822695138600,2.297138671875,0.8378975158184766,-9.282457783591747,-0.596233808659762
1772649822705179400,2.307179443359375,1.2149563663728535,-9.526624267351627,-0.9396077586900442
1772649822715221800,2.3172216796875,1.4043342982381581,-9.803189045891164,-1.0883144382752477
1772649822725262600,2.3272626953125,1.536875221246481,-9.915523047173023,-1.071414960596338
1772649822735303700,2.3373037109375,1.6609404307238758,-10.073682980084419,-1.0305412445466964
1772649822745344500,2.347344482421875,1.8368384110301732,-10.124605358070134,-1.2132084997922181
1772649822755385600,2.357385498046875,2.070650089514255,-10.098195490050315,-1.7006401345580815
1772649822765426700,2.3674267578125,1.7341466828405856,-9.839357506859303,-1.9824320000961422
1772649822775467500,2.377467529296875,1.311769557917863,-9.212671715182065,-2.090231280557811
1772649822785508600,2.387508544921875,1.4285527936935425,-8.02642545659542,-2.2065981906175614
1772649822795549700,2.3975498046875,2.4158190332025287,-6.347609031310677,-2.778931045338511
1772649822805590500,2.407590576171875,2.9289462502390147,-4.218714842620492,-3.307123729559779
1772649822815631600,2.417631591796875,2.6152473805695773,-1.2394628849893807,-3.422813763271272
1772649822825672700,2.427672607421875,2.505816699513793,3.0347996573299167,-3.1640634583637115
1772649822835714600,2.437714599609375,0.3670072660088539,8.929254586529732,-2.3760640920497478
1772649822845755600,2.447755615234375,0.40654900280237194,8.934022531583905,-2.328973985703289
1772649822855796500,2.45779638671875,0.4889221655845642,8.950138969126343,-2.3304198005974293
1772649822865837600,2.467837646484375,-3.2862674040138717,16.435780555474757,5.99021305873394
1772649822875878700,2.477878662109375,-0.5185268841229379,9.436590360683201,4.879102705152333
1772649822885919500,2.48791943359375,-0.3181646169066429,5.951762039786577,3.578223520691693
1772649822895960600,2.497960693359375,-1.2000753158442676,5.657578017926216,2.2561752914741633
1772649822906001700,2.508001708984375,-3.554061431598663,6.736710055705904,2.083395004796982
1772649822916042500,2.51804248046875,-5.7275254143774506,7.539657254174351,2.6448259417533873
1772649822926083600,2.52808349609375,-6.33234658024907,8.0040055349946,2.784901059658825
1772649822936124700,2.538124755859375,-5.837496193659305,8.972023468676209,2.909282057087123
1772649822946165500,2.54816552734375,-5.8694753862440585,8.960724076026677,2.9747412022083997
1772649822956207600,2.55820751953125,-5.8917883403390645,8.952161999386549,3.0374951800242065
1772649822966248400,2.56824853515625,-5.914900920379162,8.944601793265342,3.087012075126171
1772649822976289500,2.57828955078125,-5.94465191552043,8.93705386210382,3.115245943702757
1772649822986330600,2.58833056640625,-5.9814884850084775,8.929211331909894,3.124045628491044
1772649822996371500,2.598371337890625,-6.025300154206156,8.920851499843597,3.1189085578635334
1772649823006412500,2.60841259765625,-6.070158702108263,8.913053977835178,3.102901425914466
1772649823016453600,2.61845361328125,-6.110982879927754,8.906817129272222,3.0762203397378323
1772649823026494500,2.628494384765625,-3.3964509492635724,9.175423057761789,0.7851070058733225
1772649823036535600,2.63853564453125,-2.8356372674226757,8.963289542600512,0.30683048173729327
1772649823046576400,2.648576416015625,-2.4306951152950522,8.218204165992141,-0.0034364041894674297
1772649823056617500,2.658617431640625,-2.0751924091190097,7.155651507091521,0.12592121260762215
1772649823066659300,2.668659423828125,-1.2586954087257385,5.885004963809251,0.2606849992971867
1772649823076700400,2.678700439453125,0.3021633301764726,4.118223254823684,-0.1466097073059529
1772649823086741500,2.688741455078125,1.9774447132028639,1.6828256609261034,-0.6621818332765251
1772649823096782300,2.6987822265625,3.046733256229758,-1.1314017387211321,-0.8016405728492886
1772649823106823400,2.708823486328125,3.8124014021396633,-3.7959167158067224,-0.8396867373228073
1772649823116864500,2.718864501953125,4.239062049600482,-5.9992450909733765,-0.9976726288415491
1772649823126905300,2.7289052734375,4.28874933283329,-7.803087241330743,-1.2218852888531981
1772649823136946400,2.738946533203125,4.405706317740679,-9.104918611949682,-1.4396196927614509
1772649823146987500,2.748987548828125,4.2115193781584495,-9.595296237039566,-1.7361162293478845
1772649823157028400,2.7590283203125,3.5646342635393142,-10.106100564086436,-2.178790730759501
1772649823167069400,2.7690693359375,3.023741672220826,-10.687197155499458,-2.7532904081255194
1772649823177110500,2.779110595703125,2.413001199302822,-10.961798525011538,-2.9256346414729952
1772649823187152600,2.789152587890625,1.810770634446293,-11.135015741801261,-2.7402193296283484
1772649823197193700,2.79919384765625,1.4924007042258978,-11.242936018294095,-2.600161747379601
1772649823207234600,2.809234619140625,1.3507226811684667,-11.319345888757706,-2.496390699520707
1772649823217275600,2.819275634765625,1.2059236765462904,-11.517533880674838,-1.8120570209950209
1772649823227316700,2.829316650390625,0.8260486725926399,-11.505424925208091,-0.6561498596359044
1772649823237357600,2.839357666015625,0.8002876238703728,-10.973119544970988,0.06306227657999842
1772649823247398700,2.849398681640625,0.9242145939208567,-10.417351456081867,0.19776351942736653
1772649823257439500,2.859439453125,0.8539351159710437,-10.009757328140735,0.1878414430130273
1772649823267480600,2.86948046875,0.7465455122888088,-9.679203185260295,0.10493410028889774
1772649823277521700,2.879521728515625,0.8186743444323539,-9.422558912721275,-0.10738492750711738
1772649823287562500,2.8895625,0.8977959580726921,-9.19104966596067,-0.35685857776440677
1772649823297604600,2.8996044921875,0.8286690842241048,-9.024534577158093,-0.6300039763145149
1772649823307645400,2.9096455078125,0.5828251687712968,-8.906400949686764,-0.8016888689704239
1772649823317686500,2.9196865234375,0.364369903242588,-8.77600697557926,-0.8111532282125204
1772649823327727600,2.9297275390625,0.252079741102457,-8.63932179237306,-0.9155821554582565
1772649823337768400,2.9397685546875,0.3842864637203514,-8.091227306851744,-1.2342357979908585
1772649823347809500,2.9498095703125,0.9751075996816158,-7.11786976570785,-2.075790667273104
1772649823357850600,2.9598505859375,1.7736042484819887,-5.605193750694394,-2.848649601469934
1772649823367891500,2.969891357421875,2.124842136820406,-3.4463358008950946,-2.470938570617139
1772649823377932500,2.9799326171875,1.0535966145068407,-0.4197141893237829,-1.721613072220981
1772649823387973600,2.9899736328125,-0.8531408237881958,3.644918929609656,-1.3483815248697995
1772649823398014500,3.000014404296875,-0.27803075943887234,8.869246400290727,-0.8197079252637922
1772649823408055600,3.0100556640625,-0.16845687052011488,8.887652994596957,-0.8092864844925701
1772649823418097400,3.020097412109375,0.0072898647472262375,8.92245016721189,-0.8771192268773913
1772649823428138500,3.030138427734375,-4.160158608755469,18.089318162596225,11.13505548928976
1772649823438179000,3.040178955078125,-0.08522446056008338,9.407586384516954,7.1423606483638284
1772649823448220000,3.050219970703125,0.6260702901273966,4.840702247348427,4.481350756789744
1772649823458261000,3.060260986328125,-1.942222447043657,3.2246728253662584,3.594763736604154
1772649823468302000,3.070302001953125,-5.141032516878843,2.9921926877468823,3.2835102142602204
1772649823478343000,3.080343017578125,-7.155676057010889,3.6524995939970015,2.454865972216427
1772649823488384000,3.090384033203125,-7.363774033045768,5.541462744539976,0.710694519772008
1772649823498425000,3.100425048828125,-7.225521746653318,8.71200182865858,0.3458358831644058
1772649823508466000,3.1104658203125,-7.2858315461874,8.692446064317226,0.3919998145766556
1772649823518508000,3.120508056640625,-7.348146840324998,8.672989668697118,0.4387934221945703
1772649823528548900,3.130548828125,-7.404422854298352,8.656551159593462,0.4733022793874144
1772649823538590000,3.14058984375,-7.4544146734356875,8.643059225335717,0.4936861651159823
1772649823548631000,3.150631103515625,-7.4962518276900045,8.633162685221434,0.4939126673482358
1772649823558672000,3.160671875,-7.531987157937884,8.626411457395553,0.47200756340175865
1772649823568713000,3.170712890625,-7.567945775547623,8.620707108274102,0.43782991092465817
1772649823578754000,3.180754150390625,-1.9801897741273045,11.02925235108137,1.462932909940183
1772649823588795000,3.190794921875,-1.675655623166263,9.39623555394113,1.4763716527059674
1772649823598836000,3.2008359375,-1.1981775193989277,6.994765948608517,1.499006093840301
1772649823608877000,3.210876953125,-0.4214350217670202,4.691487837436795,1.5437801783293486
1772649823618918000,3.22091796875,0.39009368869438765,2.4630776279836892,1.1343591272220015
1772649823628960000,3.2309599609375,1.3762545973099767,0.3131096716046333,0.40690870296023784
1772649823639000800,3.241000732421875,2.1726190563872456,-1.4105325683563947,-0.5293927076607943
1772649823649042000,3.2510419921875,2.6002450417488814,-2.8298493316709994,-1.5393100471779704
1772649823659083000,3.2610830078125,2.952899665017426,-4.382181065246463,-2.536127958886325
1772649823669123800,3.271123779296875,3.367755600655079,-5.97620557616949,-3.393423125874996
1772649823679165000,3.2811650390625,3.338596141666174,-7.372777423712611,-3.973204835297167
1772649823689205800,3.291205810546875,3.04022109785676,-8.275818150570988,-4.504956381043791
1772649823699246800,3.301246826171875,3.0728613846987485,-8.974094429731368,-4.436721049207449
1772649823709288000,3.311287841796875,3.1796155400216577,-9.840673850154877,-4.350442111158371
1772649823719328800,3.321328857421875,3.0977836445093154,-10.641607955235242,-4.149402529202401
1772649823729369900,3.331369873046875,3.029784459516406,-11.177732601499557,-3.6530586891844865
1772649823739411000,3.341410888671875,2.799565837088227,-11.509582044887543,-2.828615990483761
1772649823749452800,3.351452880859375,2.487379417808354,-11.662229936379193,-1.9511422510802745
1772649823759494000,3.361493896484375,2.2261958944045004,-11.497544401091336,-1.1290583174001425
1772649823769534700,3.37153466796875,2.052124983394891,-10.752698678457737,-0.5304681548725814
1772649823779575800,3.381575927734375,1.940888714221865,-10.02646062566042,-0.3924257849037647
1772649823789617000,3.391616943359375,1.7828322416849434,-9.724770758214593,-0.4826066988274455
1772649823799657700,3.40165771484375,1.5133276107899845,-9.66968249272108,-0.6226514946598559
1772649823809698800,3.41169873046875,1.34526602319777,-9.598339257997274,-0.8919150833405554
1772649823819740000,3.421739990234375,1.2762429019846022,-9.471965625447034,-1.1772341731566935
1772649823829780700,3.43178076171875,1.3334184951461852,-9.315297976920007,-1.4663774974361061
1772649823839821800,3.44182177734375,1.3246079967029392,-9.196454155352711,-1.6204714960828424
1772649823849864000,3.451864013671875,1.220372838463634,-9.121683284267782,-1.690420938360691
1772649823859905000,3.461905029296875,1.1223317125588654,-8.98030088315606,-1.592526673580706
1772649823869946000,3.471946044921875,1.154402236688882,-8.612870423299073,-1.509451792269945
1772649823879987000,3.481987060546875,1.6477533246316014,-7.955123138403892,-1.5761914787210523
1772649823890028000,3.492028076171875,2.080113645038754,-6.879786985775828,-1.4976102555677293
1772649823900069000,3.502069091796875,1.7904864096999167,-5.3455947200030085,-1.5726023681879042
1772649823910110000,3.51210986328125,1.480102363666892,-3.54837929430902,-1.380319947052747
1772649823920151000,3.522151123046875,1.2183457165502012,-1.4943606061220167,-1.188550297745317
1772649823930192000,3.53219189453125,0.5895008471429347,1.2593664398550986,-1.104007974230498
1772649823940233000,3.54223291015625,2.1291693523697552,4.835075639638305,-1.4461632691860198
1772649823950274000,3.552274169921875,1.3422756092101336,8.948082621118425,-2.3256761132016774
1772649823960315000,3.56231494140625,1.4320926582574844,8.960208527719974,-2.3040496800661088
1772649823970357000,3.57235693359375,1.560891618258506,8.980663286727665,-2.3343667846575378
1772649823980397800,3.582397705078125,-6.74940177949667,17.42241843395233,5.768664064973592
1772649823990439000,3.59243896484375,-3.904237389793992,9.4836484644562,4.080807424142956
1772649824000480000,3.60247998046875,-1.9548224008977413,3.9044419724553823,0.9167111594881862
1772649824010520800,3.612520751953125,-3.435300612139702,2.7454765195041895,1.4991196372173725
1772649824020562000,3.62256201171875,-5.14689410238862,3.422205568245053,3.4716166648849844
1772649824030603000,3.63260302734375,-3.797175775957107,4.524966903415322,3.676585402983427
1772649824040643800,3.642643798828125,-2.2166797319099305,6.755820414367318,2.8103254237726327
1772649824050685000,3.652684814453125,-1.6458207491338253,9.40905119637251,2.7826588336899873
1772649824060726000,3.66272607421875,-1.635809642729163,9.409081591510772,2.8170088470593093
1772649824070766800,3.672766845703125,-1.6168495061933994,9.411576915457845,2.8414243263915178
1772649824080809000,3.68280908203125,-1.5952622360244393,9.415418393316864,2.8520407052129504
1772649824090849800,3.692849853515625,-1.581752473849058,9.4182445566535,2.8511227135851978
1772649824100891000,3.702890869140625,-1.583423621931672,9.41824221856594,2.844586005292833
1772649824110932000,3.712931884765625,-1.6011960099875926,9.414934993714093,2.838171462075412
1772649824120972800,3.722972900390625,-3.9298476318687197,9.632889762374758,-0.9469770453490316
1772649824131014000,3.733013916015625,-3.572010929787159,8.819730381971597,-0.4897856505461037
1772649824141055000,3.743054931640625,-3.6056621472373602,8.105034882929921,0.19191194385495036
1772649824151095800,3.753095703125,-3.554212822768092,7.846352967083454,0.9512052575033157
1772649824161137000,3.763136962890625,-3.03500803938359,7.854950699558854,1.5723739662595093
1772649824171178000,3.773177978515625,-2.31868669270575,7.750085718983411,1.9236837507903575
1772649824181218800,3.78321875,-1.622846116259694,7.161445288062096,2.089172419154644
1772649824191261000,3.793260986328125,-0.7277570790581405,6.224309399378299,1.8309391238585113
1772649824201301800,3.8033017578125,0.1410996386475861,4.789193009385467,1.3758008621931075
1772649824211342800,3.8133427734375,1.0294115829296409,2.8563755195468663,0.7940326551288366
1772649824221384000,3.823384033203125,2.2088849863804874,0.7192354805588722,-0.00012530688010156153
1772649824231424800,3.8334248046875,3.3237492856681343,-1.5277075799286364,-0.8084615049105137
1772649824241465900,3.8434658203125,4.193375234180689,-3.6906542603462933,-1.3808900020256638
1772649824251506700,3.853506591796875,4.348381671497226,-5.370130026322603,-1.7206562098875642
1772649824261547800,3.8635478515625,4.290834906935691,-6.58764879052937,-1.9602245522022246
1772649824271588900,3.8735888671875,4.471582519230246,-7.568277199459075,-2.109838190564513
1772649824281629700,3.883629638671875,4.692506659090519,-8.394175065404177,-2.128476109408587
1772649824291670800,3.8936708984375,4.8762610519856215,-9.190460467895864,-2.4350255457147956
1772649824301713000,3.903712890625,4.45540470688939,-9.935504343450068,-2.9182068295598027
1772649824311754000,3.91375390625,3.7509272350013254,-10.579065282082556,-3.235839531546831
1772649824321795000,3.923795166015625,2.9828876837849614,-11.084032573539018,-3.344102630127966
1772649824331836000,3.9338359375,2.109990604647249,-11.449853260111809,-3.1576968459412456
1772649824341877000,3.943876953125,1.6156896686337887,-11.460379330301285,-2.6148826389104127
1772649824351918000,3.95391796875,1.173279224985838,-11.048319455122947,-1.96876105600968
1772649824361959000,3.963958984375,0.6292869140863419,-10.569516532492637,-1.4509458272874354
1772649824372000000,3.974,0.45067003021016716,-10.168361497688293,-1.143480737441033
1772649824382041000,3.984041015625,0.5787972284294665,-9.92613913373351,-1.0351406281009317
1772649824392082000,3.99408203125,0.7063320137135685,-9.989069929420948,-1.1503401018165051
1772649824402123000,4.004123046875,0.7767740618139505,-10.01028807401657,-1.1489951169483363
1772649824412164900,4.014164794921875,0.899046688786149,-9.84820015400648,-1.0850544135659932
1772649824422206000,4.0242060546875,1.0377268452018498,-9.663635029250383,-1.0560202614571899
1772649824432247000,4.0342470703125,0.9484884728252887,-9.51223801460266,-1.0394133369840681
1772649824442288000,4.0442880859375,0.576134000569582,-9.317211117064952,-0.8937949057377874
1772649824452329200,4.0543291015625,0.30306130192950365,-8.990491437780857,-0.6919177039138973
1772649824462370000,4.0643701171875,0.8007694160379469,-8.466115681499243,-0.7668244763381779
1772649824472411100,4.0744111328125,1.5178813285715878,-7.621632942071557,-1.0924233348987995
1772649824482452200,4.0844521484375,1.5626843468941747,-6.415987571009993,-1.4042616713933647
1772649824492493000,4.0944931640625,1.4172101464241742,-4.820305356007814,-1.3788076427936553
1772649824502534100,4.1045341796875,1.4138900620907544,-2.723805954965949,-1.2888060309596359
1772649824512575200,4.1145751953125,1.6207254708439112,0.21080898855924604,-1.6106439295515418
1772649824522616000,4.124615966796875,1.9965303758144377,4.108651708880067,-2.035889887908846
1772649824532658200,4.134658203125,0.8905985939145088,8.98859992494583,-2.0191804529093207
1772649824542699000,4.144698974609375,0.9297124606847762,8.992923633363842,-1.973920484599471
1772649824552740000,4.154739990234375,0.9977304965086281,9.002650077608227,-1.9734912994019687
1772649824562781200,4.16478125,1.068901297274977,9.014112551864981,-2.006697549563646
1772649824572822000,4.174822021484375,1.1310486874997616,9.024747927647828,-2.039116010348499
1772649824582863000,4.184863037109375,1.1732599357634783,9.0326331279397,-2.0730093659915028
1772649824592904200,4.194904296875,1.1893781268715857,9.036414984565972,-2.1063813281089065
1772649824602945000,4.204945068359375,1.1897206566989422,9.037060296732188,-2.1228832578375934
1772649824612986000,4.214986083984375,1.1888907817460597,9.036497986674307,-2.1110842451028526
1772649824623027200,4.225027099609375,1.189752805402875,9.035423635441065,-2.0745836295709013
1772649824633069300,4.2350693359375,1.1861119646824896,9.033525108343362,-2.030394943754375
1772649824643110400,4.2451103515625,1.1792286349095404,9.03138751179278,-1.9904358583316206
1772649824653151200,4.255151123046875,1.1707137584120035,9.029341100656985,-1.9603921638540922
1772649824663192300,4.2651923828125,1.157572683418542,9.026842269578575,-1.9422467047020793
1772649824673233200,4.275233154296875,1.1380810703545807,9.023578299346566,-1.9368350549168885
1772649824683274200,4.285274169921875,1.1156215473957358,9.020142479678988,-1.9461412279225885
1772649824693315300,4.2953154296875,-2.2815853348016737,10.185676205104588,-0.15543149432819336
1772649824703356200,4.305356201171875,-1.3718616230480372,8.5144796071738,-0.25055004731714725
1772649824713397200,4.315397216796875,-0.4347159436225891,6.634295390892029,-0.20040082739470524
1772649824723438300,4.325438232421875,0.5837042896933853,4.522709479877353,-0.3467042634967714
1772649824733479200,4.335479248046875,1.429855108463764,2.4837767171412706,-0.650382089889422
1772649824743520300,4.345520263671875,1.995506293463707,0.5060702842622995,-1.0763234100997447
1772649824753562000,4.35556201171875,2.55772516592741,-1.5770108322799206,-1.5680280460096894
1772649824763603200,4.365603271484375,2.917725768044591,-3.7328269301652908,-2.084132963682711
1772649824773644300,4.375644287109375,3.2160844452410933,-5.953029283243417,-2.5515096524134275
1772649824783685000,4.38568505859375,3.9040854141026733,-8.159242858457565,-3.1030913955286143
1772649824793726200,4.395726318359375,4.0282185742497445,-9.985694900029896,-3.759741532836854
1772649824803767300,4.405767333984375,3.4360879631251096,-10.987482416844367,-3.7549297486409543
1772649824813808000,4.41580810546875,3.1982489288210867,-11.631592806053161,-3.191297794508934
1772649824823849200,4.42584912109375,3.4655694936752317,-12.111734283810852,-2.7363910035118457
1772649824833890300,4.435890380859375,3.3810885449588297,-12.495562920761108,-2.31433229688853
1772649824843931100,4.44593115234375,2.7229934695392846,-12.49742520750165,-1.70477840340659
1772649824853972200,4.45597216796875,2.1111388978995382,-11.875955689167975,-0.8525897657766938
1772649824864014000,4.46601416015625,1.747947975308448,-10.976986741793155,-0.16476437267772853
1772649824874055200,4.47605517578125,1.573049673563987,-10.225997694098949,0.1891876334575936
1772649824884096300,4.48609619140625,1.7067432737387715,-9.649102646028995,0.05385981967709958
1772649824894137000,4.49613720703125,1.8545747048594057,-9.311145533415674,-0.3758955423960462
1772649824904178200,4.50617822265625,1.9561399132370947,-9.053285455346106,-0.6655060092631727
1772649824914219300,4.51621923828125,2.0714783570319413,-8.737703840669989,-0.9120742204025387
1772649824924260000,4.526260009765625,2.1049942576646803,-8.469987554496527,-1.227877807266265
1772649824934301200,4.53630126953125,2.049123755752295,-8.362451308885216,-1.51164316483438
1772649824944342000,4.546342041015625,1.9715876577377318,-8.386450608631968,-1.7319896509371697
1772649824954383000,4.556383056640625,1.8721476248204707,-8.57186738178134,-1.8373864003017544
1772649824964424200,4.566424072265625,1.643249437341094,-8.78742619521618,-1.8196086054183542
1772649824974466000,4.576466064453125,1.5268571005791425,-8.772995518803596,-1.7337138443812727
1772649824984507100,4.586507080078125,1.7317448823958634,-8.436265902158617,-1.8836200359493493
1772649824994548200,4.59654833984375,1.6872610130250454,-7.709299535086751,-1.9989910668395459
1772649825004589300,4.60658935546875,0.9854565597385168,-6.510677194529771,-1.6150962327852845
1772649825014630400,4.61663037109375,0.2337111407190561,-4.643543598479032,-1.013962815515697
1772649825024671200,4.626671142578125,-0.34008711037933825,-2.3639392083615065,-0.6175871239423751
1772649825034712300,4.63671240234375,-1.328622931432724,0.0925783304542303,-0.5515194184686988
1772649825044753400,4.64675341796875,-0.9139888218522071,2.600223414438963,-0.7656567477330565
1772649825054794200,4.656794189453125,0.7320848791293799,4.924017659416794,-1.1887877597630023
1772649825064835300,4.66683544921875,0.18561843320131302,7.401264682528376,-1.1151552450582385
1772649825074876400,4.67687646484375,-0.6784452050089835,10.053432803738117,0.4240022053739056
1772649825084917200,4.686917236328125,-1.220759938085079,11.12453643336296,2.285463491409272
1772649825094959400,4.69695947265625,-2.6524253108412026,8.716911812531947,3.335816740080714
1772649825105000200,4.707000244140625,-3.2464684775888917,5.528615537926554,2.7821722192168234
1772649825115041300,4.717041259765625,-2.4252834655098616,3.8892677841991183,1.274314564270526
1772649825125082400,4.727082275390625,-2.860594598546624,3.5685745255976915,0.10773772300016134
1772649825135123200,4.737123291015625,-4.032486168566346,4.336140614083409,0.4019503864331171
1772649825145164300,4.747164306640625,-4.296266284334659,6.38982787835896,1.4551058695763348
1772649825155205400,4.757205322265625,-3.965073843550682,8.605632288739084,2.950428598728776
1772649825165246200,4.76724609375,-4.020205071403086,8.596992470687628,2.99822086199522
1772649825175287300,4.777287353515625,-4.069541349241137,8.58971400411725,3.041590048122406
1772649825185328000,4.787328125,-4.101396038663387,8.585140120330452,3.074001786905527
1772649825195369200,4.797369140625,-4.115732022529841,8.583172035127877,3.0877380513131616
1772649825205410300,4.807410400390625,-4.117030830168724,8.583142809033394,3.082889149977267
1772649825215452200,4.8174521484375,-4.107892414945364,8.584522865214943,3.069144702263176
1772649825225493200,4.8274931640625,-4.094473545923829,8.586429575619102,3.0551807665795088
1772649825235534000,4.8375341796875,-4.08221904450655,8.588194247204065,3.042807022696733
1772649825245575200,4.8475751953125,-4.069618213869631,8.589985806795955,3.0319489440739154
1772649825255616300,4.8576162109375,-4.050411701357365,8.59262200051844,3.0202231427058575
1772649825265657000,4.867656982421875,-4.016994000402093,8.597223356834053,3.0032448276370762
1772649825275698200,4.8776982421875,-3.302096841308474,10.044520013964176,1.2665979985438287
1772649825285739300,4.8877392578125,-3.114481096810102,9.07942761234045,1.9088387944884597
1772649825295780000,4.897780029296875,-2.4509768558233973,8.052077199724316,2.0509091778643427
1772649825305821200,4.9078212890625,-1.3252360654734074,6.772749921858311,1.7725807506531477
1772649825315862300,4.9178623046875,0.15001710459664463,4.8866713868409395,1.3858509854339063
1772649825325903000,4.927903076171875,1.5273324630059302,2.457626376840472,0.9755616270594298
1772649825335945200,4.9379453125,2.654563491913676,-0.2624158416777849,0.5501562403567135
1772649825345986000,4.947986083984375,3.6289725879371164,-2.8828432552337646,-0.18728461284786463
1772649825356027100,4.958027099609375,4.304789782530069,-5.0076557275682685,-1.083068865771964
1772649825366068200,4.968068115234375,4.7298032473057505,-6.658229808709025,-1.7533580176584422
1772649825376109000,4.978109130859375,4.913298697003722,-7.765361614048481,-2.4979282843515276
1772649825386150100,4.988150146484375,4.947986564025283,-8.348056288307905,-3.170526809158921
1772649825396191200,4.998191162109375,4.4649423505634065,-8.693377207687497,-3.3061022775575517
1772649825406232000,5.008232177734375,3.85064082416296,-9.294563231927157,-2.9944530338943003
1772649825416273200,5.018273193359375,3.7805116414040323,-10.13815574451685,-3.1180335285946725
1772649825426314200,5.028314208984375,3.9204222163975238,-11.174177539366482,-3.5112370198726652
1772649825436355000,5.03835498046875,3.96858331297636,-12.093026076209544,-3.3484307224601504
1772649825446397200,5.048397216796875,3.3142987357556817,-12.542093201267718,-2.8439862858340144
1772649825456438300,5.058438232421875,2.0612552153117956,-12.448195604908465,-2.256597316278517
1772649825466479400,5.068479248046875,1.0338136172808705,-11.868930905097722,-1.508621040534228
1772649825476520200,5.078520263671875,0.6869594969846308,-11.215452968084811,-0.715198553192988
1772649825486561300,5.088561279296875,0.8740005103349685,-10.617405241870879,-0.2428254809470847
1772649825496602400,5.098602294921875,1.1686439664006232,-10.050530068033932,-0.038841077710874375
1772649825506643200,5.108643310546875,1.2312784094899891,-9.767530288010835,0.12394245988056063
1772649825516684300,5.118684326171875,1.2597095542043446,-9.737707396677136,0.15248579626511782
1772649825526725400,5.128725341796875,1.350114193881303,-9.758203656738996,-0.0031707755232229825
1772649825536766200,5.13876611328125,1.6005356463827192,-9.711446581739187,-0.25677838378008455
1772649825546807300,5.148807373046875,1.822295506414771,-9.524615265616774,-0.5557313005426898
1772649825556848400,5.158848388671875,1.924875737053901,-9.269237652012706,-0.9318420200593769
1772649825566889200,5.16888916015625,1.7495635938115417,-8.896987809175252,-1.2831228707566857
1772649825576931300,5.178931396484375,1.635262091848999,-8.375488485112786,-1.7658523191809654
1772649825586972200,5.18897216796875,1.7871457209698856,-7.685072271803021,-2.244568440310657
1772649825597013200,5.19901318359375,1.4900842439770698,-6.767538909211755,-2.446931818216294
1772649825607054300,5.209054443359375,1.299010467979312,-5.554668263071775,-2.7338348892882465
1772649825617095200,5.21909521484375,0.7705027264595031,-4.009648898336291,-2.8483754607036706
1772649825627136300,5.22913623046875,0.5309761774599552,-1.905319826582074,-2.7291809260025617
1772649825637177300,5.23917724609375,0.5660324394024908,1.057456797066331,-2.5709365296781064
1772649825647218200,5.24921826171875,1.6631437859870493,5.017383340856433,-2.519257488106191
1772649825657259300,5.25925927734375,5.416046558845043,9.799120189017057,-3.9429114038422703
1772649825667300400,5.26930029296875,5.429749505504965,9.80140976125896,-3.8901758389547463
1772649825677341200,5.279341064453125,5.489119393840432,9.809044201660155,-3.8984257809057827
1772649825687382300,5.28938232421875,-4.785191957050562,14.741978742504118,6.415320631533861
1772649825697424100,5.299424072265625,0.24052651982232928,8.088910262081027,2.2541678971745074
1772649825707465200,5.30946533203125,-0.2722580212563276,4.888471129739284,1.344391578450799
1772649825717506000,5.319506103515625,-2.567811675655842,4.4234962414532895,2.034639157195389
1772649825727547100,5.329547119140625,-4.72053565274477,4.722809442895651,2.387399432795495
1772649825737588200,5.339588134765625,-4.943729491102695,5.544497582191228,1.2595686844289302
1772649825747629300,5.34962939453125,-4.169759965315461,7.025692417269945,-0.07814871348757296
1772649825757670400,5.35967041015625,-3.730146312779188,9.56106663517952,0.15612221653871236
1772649825767711500,5.36971142578125,-3.799033971044421,11.831209369468688,2.201344069481641
1772649825777752300,5.37975244140625,-3.674596859514713,12.626007163751124,4.1086806427136064
1772649825787793400,5.38979345703125,-2.9764497596919535,12.853128989207743,4.790246902352571
1772649825797834500,5.39983447265625,-3.0386101555287834,13.54537124890089,4.154945842543244
1772649825807876400,5.40987646484375,-3.1754818012177943,14.087615839350223,2.581881994323432
1772649825817917400,5.41991748046875,-2.5176135202914476,13.736035275053977,0.6442641184657811
1772649825827958300,5.429958251953125,-2.633776139950752,12.628861968660354,-0.6077925098326057
1772649825837999400,5.439999267578125,-3.7002807513475418,11.21994911046028,-0.5339357944505289
1772649825848040400,5.45004052734375,-4.157147444240748,9.781772748374939,0.2821237643735483
1772649825858081300,5.460081298828125,-3.5381016459226604,8.410493747520446,1.0587428913541137
1772649825868122400,5.470122314453125,-2.6266806287318465,7.300324181920289,1.7630509980246423
1772649825878163500,5.48016357421875,-1.9521283395081757,6.228960440054536,2.4288541636034844
1772649825888204300,5.490204345703125,-1.0766665244489908,5.001020819598436,2.5793752721995116
1772649825898245400,5.500245361328125,0.20518062728345393,3.281927913504839,2.456044952867925
1772649825908286200,5.5102861328125,1.5608866498224436,0.8403028233945369,2.102646817755699
1772649825918327300,5.520327392578125,2.8281723383694883,-2.066822055658698,1.4260942946255206
1772649825928369400,5.530369384765625,3.818648187574744,-5.022369312575459,0.4785178951438516
1772649825938410200,5.54041015625,4.399210525980592,-7.749984596696495,-0.8276678712923079
1772649825948451300,5.550451416015625,4.41023694690764,-9.759012050512432,-2.207068438477814
1772649825958492200,5.5604921875,3.9106069248259065,-10.92184528480768,-3.3283962346911427
1772649825968533200,5.570533203125,3.772871355783939,-11.533318309783935,-4.277886578035354
1772649825978574300,5.58057421875,3.7328620014786718,-11.551747115921973,-4.688053771334887
1772649825988615200,5.590615234375,4.120392415556311,-11.556593971431255,-4.605498822245002
1772649825998656300,5.60065625,4.594916637954116,-11.848312479960917,-4.311235305407643
1772649826008697300,5.610697265625,3.7843046039462087,-12.007503509485721,-4.425677384884655
1772649826018738200,5.62073828125,2.9155554382681843,-11.624099235427378,-4.360843093663454
1772649826028779300,5.630779296875,2.5073756193935868,-10.558054058235884,-3.3112551302760838
1772649826038820400,5.6408203125,1.82391989274621,-9.526006427714227,-1.8812268572025
1772649826048861200,5.650861083984375,0.826874602022767,-8.948250378900767,-0.7402081259608269
1772649826058903300,5.6609033203125,0.980728362172842,-8.615389128121732,-0.42594205086268483
1772649826068944100,5.670944091796875,1.5991759023368357,-8.874944319671393,-0.8012401022896171
1772649826078985200,5.680985107421875,1.798940788181871,-9.419972403359413,-1.2964650212801991
1772649826089026300,5.6910263671875,2.1459511219531295,-9.765406719985604,-1.6327217597164212
1772649826099067100,5.701067138671875,2.3168472023189066,-10.009004463946818,-1.8176809983566402
1772649826109108200,5.711108154296875,2.434345454496145,-10.114368041694163,-1.931981915797293
1772649826119149300,5.7211494140625,2.4898627590566873,-10.153886397612094,-2.083312733341008
1772649826129190100,5.731190185546875,2.458497314456105,-10.202954672163724,-2.174462638427317
1772649826139231200,5.741231201171875,2.2654905245691537,-10.124322449475526,-2.1140949712261556
1772649826149272300,5.751272216796875,1.9772781244643032,-9.801886731120943,-2.022549637081474
1772649826159313200,5.761313232421875,1.7131062328994273,-9.072707364174724,-1.8823229818761347
1772649826169354200,5.771354248046875,1.155571207403019,-7.813869916629791,-1.5686932319201528
1772649826179396400,5.781396240234375,1.490425020238757,-5.9293684216707945,-1.481765620703995
1772649826189437400,5.7914375,2.4276719680815932,-3.608583879902959,-1.907404377771169
1772649826199478300,5.801478271484375,3.235529150423407,-0.8922884466975927,-2.656359727680683
1772649826209519400,5.811519287109375,2.9352199236810206,2.8055875815957783,-2.812237102612853
1772649826219560400,5.821560546875,-1.0078156179975717,8.302849365359544,-2.1865802155919374
1772649826229601300,5.831601318359375,-4.130366697081923,15.747559806382656,0.03822700093314051
1772649826239642400,5.841642333984375,-3.5268840863376854,20.20558434038162,4.3346302095204585
1772649826249683500,5.851683349609375,-2.139649975982308,15.634427932721376,6.520663166493177
1772649826259724300,5.861724365234375,-1.35578449460268,9.387294122594595,5.847271737742424
1772649826269765400,5.871765380859375,-1.4363738427080213,7.036121456825732,4.603232923139632
1772649826279806500,5.881806396484375,-3.017022008576989,6.812716021543741,4.473149622416496
1772649826289847300,5.891847412109375,-4.836880643233656,6.732070120945573,3.8745369557961817
1772649826299888400,5.901888427734375,-5.255901589596271,6.7519730912894005,2.0220560083456336
1772649826309930200,5.91193017578125,-5.724233387094736,8.135424760496615,0.5210972095349803
1772649826319971300,5.921971435546875,-6.521304387006163,11.219134286946058,0.5702438830850646
1772649826330012400,5.932012451171875,-6.526342381173372,13.592060519361494,1.6202563920274375
1772649826340053200,5.94205322265625,-5.934453762111067,13.894763363242149,2.875880138222873
1772649826350094300,5.95209423828125,-4.9135406890660525,13.163264613437653,3.501862457805872
1772649826360135400,5.962135498046875,-3.6909576272070406,13.248127839469909,3.339444282928109
1772649826370176300,5.97217626953125,-2.7782109143704172,13.743641073882578,2.779966525866091
1772649826380217300,5.98221728515625,-2.3471454560793936,13.616498210525512,2.111591756233573
1772649826390258400,5.992258544921875,-2.3403367989778516,12.908819896769522,1.8945516181997955
1772649826400299300,6.00229931640625,-2.5907155813813207,12.073391985934972,2.133947088165581
1772649826410340400,6.01234033203125,-2.9317309125214814,11.124875456058978,2.4293109674602746
1772649826420381200,6.022381103515625,-2.9207366402983665,9.887357275396585,2.4162445651382205
1772649826430423300,6.03242333984375,-2.427671821951121,8.359799917593598,2.119684607926756
1772649826440464400,6.04246435546875,-1.1615278507851063,6.568913694921135,1.7333661999873815
1772649826450505500,6.05250537109375,0.5953204932071268,4.355468999409675,1.2484426025196909
1772649826460546600,6.062546630859375,2.072146465551853,1.8719898039102554,0.6240855460509658
1772649826470587400,6.07258740234375,3.059872139266133,-0.6095429336965084,-0.060921319028548894
1772649826480628500,6.08262841796875,3.5520050835907457,-3.0580197893977163,-0.7939297062110156
1772649826490669600,6.092669677734375,3.830108908265829,-5.505886404246091,-1.586534447428584
1772649826500710400,6.10271044921875,4.1206934443295,-7.6331959540933365,-2.4762983440846202
1772649826510751500,6.11275146484375,4.327651018157601,-8.950097468072176,-3.4475668039947744
1772649826520792600,6.12279248046875,4.294285339650512,-9.59894365363121,-4.08374873829186
1772649826530833400,6.13283349609375,4.381621677798033,-9.993831444734335,-4.056617570260167
1772649826540874500,6.14287451171875,4.4238831949442625,-10.44308210966587,-3.7499890773683786
1772649826550915600,6.15291552734375,4.109166088142991,-11.14253269330263,-3.6968344102859496
1772649826560957400,6.16295751953125,3.2932863428652284,-11.808356901669502,-3.7461107746303077
1772649826570998500,6.17299853515625,2.88585412748754,-12.182352711391449,-3.1081098082125185
1772649826581039400,6.183039306640625,2.468014499863982,-12.152913850939273,-2.0216915589474143
1772649826591080400,6.19308056640625,2.023139127407223,-11.634123785835504,-1.0024633702494203
1772649826601121500,6.20312158203125,1.5118116532690822,-10.944739838182926,-0.1041375613500364
1772649826611162400,6.213162353515625,1.4375911095432936,-10.299797089803219,0.3645258975218981
1772649826621203500,6.223203369140625,1.5316438964642582,-9.921920054733752,0.3241568430587649
1772649826631244500,6.23324462890625,1.6462335677184163,-9.824621710020303,0.0739249583126977
1772649826641285400,6.243285400390625,1.7277784629829227,-9.922534971761703,-0.19099302064543588
1772649826651326500,6.253326416015625,1.8657737058743833,-10.128228224742411,-0.4277369349228218
1772649826661367300,6.2633671875,2.0737169297389686,-10.207124651324749,-0.6568481440983712
1772649826671408600,6.27340869140625,2.1669144150048494,-10.20311132403016,-0.8893747512079775
1772649826681449700,6.28344970703125,2.1796495395459234,-10.067000725841522,-1.0680354011606426
1772649826691491600,6.29349169921875,2.143406698167324,-9.836853415083885,-1.1814474069375545
1772649826701532700,6.30353271484375,1.7973473815105854,-9.451004670482874,-1.201611147109419
1772649826711573500,6.313573486328125,1.4597656780809163,-8.776506157273053,-1.2130299283549189
1772649826721614600,6.323614501953125,1.6607378938890993,-7.810655630758404,-1.5207675515323877
1772649826731655700,6.33365576171875,2.079980374047905,-6.526646332556009,-2.077915550472587
1772649826741696500,6.343696533203125,1.7112043448008596,-4.935066292175651,-2.4242672742046416
1772649826751737600,6.353737548828125,0.6849462574660777,-2.9014930106461048,-2.6367338207125663
1772649826761778700,6.36377880859375,0.22478081528842447,-0.5119020591557025,-2.363864535690099
1772649826771819500,6.373819580078125,0.0589683217972517,1.8266870193719862,-1.826504940803349
1772649826781860600,6.383860595703125,0.46432373090088364,4.40158251580894,-2.2340397397726774
1772649826791901700,6.393901611328125,1.2788823105774818,7.7268983201414345,-2.6773659830912946
1772649826801942500,6.403942626953125,-0.008098550781607627,11.841880401086806,-2.0846331682898103
1772649826811983600,6.413983642578125,-2.8251661422908305,14.934810175824165,0.7074226584944874
1772649826822025500,6.424025390625,-7.037725969412922,14.614398656773567,4.920719786915183
1772649826832066600,6.434066650390625,-6.905214272499084,11.685607304835319,4.827946226149797
1772649826842107600,6.444107666015625,-5.246338226959109,9.719642163154482,2.9441309598892924
1772649826852148500,6.4541484375,-4.962297997972369,9.642698624205588,2.627949918015301
1772649826862189600,6.464189453125,-5.041434078529477,10.413666630089283,2.611991301383078
1772649826872230700,6.474230712890625,-4.720164481344819,11.425233198118208,2.519518477129936
1772649826882271500,6.484271484375,-4.1281379151165485,12.317629781365394,3.6330107574120163
1772649826892312600,6.4943125,-3.4712475393116473,13.153057692199944,5.137929290166497
1772649826902353400,6.504353515625,-2.9793834750562906,13.400732476341723,5.768505659541487
1772649826912394500,6.51439453125,-3.5586154416412112,12.734293350946903,6.229988614058494
1772649826922435600,6.524435546875,-4.1378783878862855,12.097356214368343,6.293224530172347
1772649826932476400,6.534476318359375,-3.910119433569908,11.764852106463909,5.196338224515318
1772649826942517500,6.544517578125,-3.1088743628442286,11.74662905203104,3.6077711022153496
1772649826952559400,6.554559326171875,-2.3630770385742186,11.487892775648831,2.094856894531846
1772649826962600400,6.564600341796875,-2.0482786832302806,10.660227315509319,0.8810081240747123
1772649826972641500,6.5746416015625,-1.8774544990569353,9.35015301720202,0.09225684341490269
1772649826982682400,6.584682373046875,-1.537857802543044,7.633968107509612,-0.5750681979689747
1772649826992723500,6.594723388671875,-0.7589132648222148,5.591854961171746,-1.1080163330890238
1772649827002764500,6.6047646484375,0.3494511510521173,3.343791372221708,-1.6263463794656097
1772649827012805400,6.614805419921875,1.3797469694703817,1.062732691642642,-2.052658798010647
1772649827022846500,6.624846435546875,2.1447481759041547,-1.3101309969305992,-2.3558245832279323
1772649827032887600,6.634887451171875,2.891475474500656,-3.8053964918136596,-2.6826138206169006
1772649827042928400,6.644928466796875,3.3070904118120668,-5.900177398499846,-2.6662057066515086
1772649827052969500,6.654969482421875,3.2738784625619646,-7.646780242809653,-2.656219734688103
1772649827063010600,6.665010498046875,3.418796636584401,-9.170907041642069,-2.824053212612867
1772649827073051400,6.675051513671875,4.251625178575516,-10.081398669028282,-2.99794146053195
1772649827083093800,6.68509375,5.274007739651203,-10.22653545423746,-2.9815935523211956
1772649827093134600,6.695134521484375,5.505988695576787,-10.60599069840908,-3.101308019243181
1772649827103175700,6.70517578125,5.22529894606173,-11.167907957577706,-3.1138965749204157
1772649827113216500,6.715216552734375,4.550259165582061,-11.606390560257434,-2.92595174459815
1772649827123257600,6.725257568359375,3.41861192766726,-11.894819379591942,-2.4156604816399514
1772649827133298700,6.735298583984375,2.105126944133639,-11.833918043905497,-1.8101685768999158
1772649827143339500,6.745339599609375,1.0988087981522083,-11.232822620558737,-1.386327078513056
1772649827153380600,6.755380615234375,0.5186154391892254,-10.392855312728882,-1.1328259263053535
1772649827163421700,6.765421630859375,0.010745412028580903,-9.92712814477086,-0.9292540493927895
1772649827173462500,6.775462646484375,0.008011457020044327,-9.782409877234697,-0.9093922878421843
1772649827183503600,6.785503662109375,0.30891411961093546,-9.830835177707671,-1.1186074313387273
1772649827193544700,6.795544677734375,0.56881995122917,-9.82841525708437,-1.3130783024288712
1772649827203585500,6.80558544921875,0.8265379904795438,-9.803222948160768,-1.4161822646811604
1772649827213627600,6.815627685546875,1.007258057180047,-9.762190680548548,-1.5014146162867545
1772649827223668500,6.82566845703125,0.9535317276895046,-9.672128716829418,-1.5434027233190835
1772649827233709600,6.83570947265625,0.7642341675840317,-9.547304067286849,-1.4700168768517672
1772649827243750700,6.845750732421875,0.6149690503984689,-9.360077029845119,-1.445306944617629
1772649827253791500,6.85579150390625,0.9680969902671873,-8.989372662883996,-1.3998913473546504
1772649827263832600,6.86583251953125,1.0826097968928514,-8.16302003890872,-1.3569585068181156
1772649827273873700,6.875873779296875,1.2559329582750796,-6.909070947927236,-1.3521113590478897
1772649827283914500,6.88591455078125,1.3762655570954083,-5.3779345625936985,-1.1906423015885055
1772649827293955600,6.89595556640625,1.0244207889050245,-3.244547154137492,-0.9284588073618709
1772649827303996700,6.90599658203125,1.058937391012907,-0.03008884879350662,-0.841095800403133
1772649827314037500,6.91603759765625,1.3914835844933986,4.482725260013342,-1.1506802935563027
1772649827324078600,6.92607861328125,-0.012025368836522101,10.500753377389907,-1.3728307603411376
1772649827334119700,6.93611962890625,-1.440192962604761,17.862819437474013,-0.47329026015605774
1772649827344161500,6.94616162109375,-2.324194642472267,22.393127117395398,3.184880328682065
1772649827354202600,6.95620263671875,-2.121123116297275,16.79902116242647,5.145484820112586
1772649827364243500,6.966243408203125,-0.913434622035548,9.061955668535829,3.145760032171011
1772649827374284500,6.976284423828125,-1.0795242519676684,5.733688613182306,2.2929303201586007
1772649827384325600,6.98632568359375,-3.0220453896969555,4.421851396855712,2.3889028230957687
1772649827394366500,6.996366455078125,-4.041974712401628,2.81565480210185,2.077652369491756
1772649827404407600,7.006407470703125,-3.897498436927795,1.492080970752239,1.3603119088992475
1772649827414448400,7.016448486328125,-4.121759027734399,2.0216969657748938,0.7258134707096964
1772649827424489500,7.026489501953125,-4.249124009409547,4.209628449845313,1.249792848084867
1772649827434530600,7.036530517578125,-4.502841580846906,7.729089108183979,2.4254120603255926
1772649827444571100,7.046571044921875,-4.306141197139024,11.817828494369984,3.466652612736821
1772649827454612200,7.0566123046875,-3.608153671792149,14.086200127333402,4.142913751704991
1772649827464653300,7.0666533203125,-3.1071149519562717,13.605692738872765,3.9960651941418646
1772649827474694100,7.076694091796875,-2.5183839201420546,12.753273945748806,2.845639021477103
1772649827484736300,7.086736328125,-2.0550942084640265,12.635522011071442,1.67081227478832
1772649827494777000,7.096777099609375,-2.036372702989727,12.465773347175121,1.0487930866826325
1772649827504818200,7.106818115234375,-2.4246700097866354,11.569481510055065,0.8065256414771079
1772649827514859300,7.116859375,-2.8596336445599793,10.180278729975223,0.6926533247120678
1772649827524900000,7.126900146484375,-2.9950960079729554,8.94876242007613,0.9939992010258137
1772649827534941200,7.136941162109375,-2.7621108434408903,8.026562234717607,1.6911597740292548
1772649827544982300,7.146982177734375,-2.3688151438347993,7.096339486423134,2.432069910779595
1772649827555023000,7.157023193359375,-1.7258580163143573,6.14476532254219,2.777279771000147
1772649827565064200,7.167064208984375,-0.5335303919874131,4.885324063885212,2.4094665954358874
1772649827575105300,7.177105224609375,0.6959598189115523,3.210482971972227,1.6302674984320997
1772649827585146000,7.18714599609375,1.5408943937599657,1.1668804638594388,0.8512564713463187
1772649827595187200,7.197187255859375,2.231528633734584,-1.1605816559761761,-0.1800069865277037
1772649827605228300,7.207228271484375,2.6462726334303617,-3.6270997798025606,-1.3256708036288618
1772649827615269000,7.21726904296875,3.082040131932497,-6.068483462372422,-2.2835810386635362
1772649827625311500,7.2273115234375,3.703017775095999,-8.585546363043784,-3.3819621129229662
1772649827635352300,7.237352294921875,3.887160582786798,-10.171384644901751,-4.018510250183939
1772649827645393400,7.247393310546875,3.765682321062684,-10.798522856521606,-4.281576956985891
1772649827655434500,7.2574345703125,4.036849039950966,-11.115090559625624,-4.367821115982532
1772649827665475300,7.267475341796875,4.585074458375573,-11.61961945966482,-4.198205138555169
1772649827675516400,7.277516357421875,4.7537002557218075,-12.115490421473979,-3.8190310494124886
1772649827685557200,7.28755712890625,4.282606007772684,-12.39760874248743,-3.481684177652001
1772649827695598300,7.297598388671875,3.6613095079183577,-12.185637724411487,-3.0050708740204572
1772649827705639400,7.307639404296875,3.048416094750166,-11.464451109784841,-2.3488790018737316
1772649827715680300,7.31768017578125,2.44465422867313,-10.60584106080532,-1.7053784151263534
1772649827725721300,7.327721435546875,1.804638415301591,-9.88350644518733,-1.1450003482237459
1772649827735762400,7.337762451171875,1.3721218814194203,-9.36632147719264,-0.6268826294235885
1772649827745803300,7.34780322265625,1.2823136002004145,-9.166756936225294,-0.2822160822995007
1772649827755845400,7.357845458984375,1.499135711569339,-9.26128523170352,-0.24361692358572035
1772649827765886200,7.36788623046875,1.796445756495744,-9.502470069304108,-0.4299701738676056
1772649827775927300,7.37792724609375,2.009305101713538,-9.746227972263098,-0.7422008341480046
1772649827785968400,7.387968505859375,2.1966830919332803,-9.929876566696166,-1.083493009468168
1772649827796009200,7.39800927734375,2.4192015152476727,-9.928875865221023,-1.4683233708068728
1772649827806050300,7.40805029296875,2.4633996995449063,-9.768269708201288,-1.864994830456376
1772649827816091400,7.41809130859375,2.086497208596021,-9.364242917352914,-2.1813252176731823
1772649827826132200,7.42813232421875,2.2042339457042512,-8.674044146186112,-2.472792674051225
1772649827836173300,7.43817333984375,2.4686142193228005,-7.8282871490389105,-2.52072317674458
1772649827846214400,7.44821435546875,1.9020972112737595,-6.580062865445018,-2.777016151627898
1772649827856255200,7.458255126953125,1.173958877813071,-4.624724916240573,-3.125793056680262
1772649827866296300,7.46829638671875,1.2604402065664528,-2.2861650638073683,-3.440582059673965
1772649827876337400,7.47833740234375,1.6625468430072068,0.5940536881417036,-3.0509833148896695
1772649827886378200,7.488378173828125,0.4554571183562279,4.552424234661459,-2.4260084187835456
1772649827896420400,7.49842041015625,-1.3148650397151709,9.750955585306881,-2.2870881700016557
1772649827906461200,7.508461181640625,-5.752492097851634,16.200758332157132,0.36513306963481007
1772649827916502300,7.518502197265625,-6.921572702103853,20.330064122009276,5.526258161145448
1772649827926543400,7.52854345703125,-1.9780472091406582,17.05594658999443,6.395841439560056
1772649827936584200,7.538584228515625,-0.25193258771672844,10.908684189939498,5.37502189001739
1772649827946625300,7.548625244140625,-1.2219786662250756,7.290408937105536,4.124676961007714
1772649827956666000,7.558666015625,-3.51853886731863,6.818402250486612,4.875469317086041
1772649827966707200,7.568707275390625,-5.245529248663782,7.242990767848491,4.7125317945092915
1772649827976748300,7.578748291015625,-5.866383849969506,8.197925348073243,3.497015017774701
1772649827986789000,7.5887890625,-5.143433148279786,9.694743868741392,1.992094000802189
1772649827996830200,7.598830322265625,-3.833432499730587,11.4595680139184,1.5103031484022735
1772649828006871300,7.608871337890625,-3.6523522944808002,12.97835228267908,1.7563314805112777
1772649828016912100,7.618912109375,-4.140236349189281,13.646131132245063,1.8145573133781552
1772649828026953200,7.628953125,-4.2616947371691465,13.093210834002495,1.8915072820678351
1772649828036995000,7.6389951171875,-3.8265398176074026,11.940229716157912,1.4233150391705334
1772649828047036200,7.6490361328125,-3.3727415723741054,11.143919179224968,0.7814096857253462
1772649828057077200,7.6590771484375,-3.3917543158799406,10.812722062265872,0.4009731754314154
1772649828067118000,7.6691181640625,-3.203513717481494,10.382789845788478,0.5763548037134111
1772649828077159400,7.679159423828125,-2.646152806442976,9.401794357112049,0.9684688192542642
1772649828087200500,7.689200439453125,-2.135994522214681,8.381264730426668,1.4769916843004525
1772649828097241300,7.699241455078125,-1.4158422190718352,7.382465289512276,1.8935116076275704
1772649828107282400,7.709282470703125,-0.6134510470509529,6.1382280297279355,1.9243406072638927
1772649828117323500,7.719323486328125,0.1875660601377487,4.508137933689356,1.5524800560049712
1772649828127364400,7.7293642578125,0.820599905667454,2.4765268921434878,0.9188330470129847
1772649828137405400,7.739405517578125,1.2999072706885635,0.21899580214619635,0.2828437126785517
1772649828147446300,7.7494462890625,1.8531623538434505,-2.1338643783181905,-0.5722054289489984
1772649828157487400,7.7594873046875,2.6621143456846474,-4.548130921381712,-1.5149391376398502
1772649828167528400,7.769528564453125,3.794636028346419,-7.250105568289756,-2.3157925786994396
1772649828177570300,7.7795703125,5.143194078826904,-10.144690699243545,-3.283521320176124
1772649828187611400,7.789611328125,5.431639264774322,-11.67229189618826,-4.18201446673274
1772649828197652200,7.79965234375,5.148409183126688,-11.926119357740879,-4.285975484205782
1772649828207693300,7.809693359375,4.935826170632243,-11.783806982302664,-4.26938938332498
1772649828217734400,7.819734375,4.484274827542901,-11.853458610677718,-4.455187557007372
1772649828227775200,7.829775146484375,3.8721307714372872,-11.863531091880798,-4.382467188711464
1772649828237816300,7.83981640625,3.013229046034813,-11.70448034760952,-3.8341345105201006
1772649828247857400,7.849857421875,2.237472490700334,-11.018180337446928,-3.076601155748963
1772649828257898200,7.859898193359375,1.8624989219874142,-9.985817649626732,-2.2226517920568583
1772649828267939300,7.869939208984375,1.6519703578047453,-9.370972517868877,-1.1665886413060127
1772649828277980400,7.87998046875,1.7082213834673166,-9.212575269070268,-0.4085935507746413
1772649828288021200,7.890021240234375,2.206880953081697,-9.618599371215701,-0.11303239534217864
1772649828298062300,7.900062255859375,2.57609493535459,-10.168810410499573,-0.13188350027920678
1772649828308103400,7.910103515625,2.650613292983174,-10.535742857706547,-0.05549421594589948
1772649828318145300,7.920145263671875,2.626772983190417,-10.769824000781774,-0.020052836276451123
1772649828328186400,7.930186279296875,2.5818869627594947,-10.9929044418931,-0.07748688857797532
1772649828338227200,7.940227294921875,2.5599253063201903,-11.174431221866607,-0.2747788632371463
1772649828348268300,7.950268310546875,2.609589208677411,-11.12673657375574,-0.5550834676258266
1772649828358309400,7.960309326171875,2.586438634714484,-10.768009644836187,-0.781966588955745
1772649828368350200,7.97035009765625,2.2412609231978653,-10.004569111847877,-0.9786625156842171
1772649828378391300,7.980391357421875,2.1057905226089058,-8.765849738702178,-1.3149516950853168
1772649828388432400,7.990432373046875,1.9082675704717635,-7.128789219129085,-1.494397431001067
1772649828398473200,8.00047314453125,1.3121430674053727,-5.235464366245269,-1.4362399871952831
1772649828408514300,8.010514404296876,0.27204700885415073,-3.025724370470643,-1.4635137785680592
1772649828418555100,8.02055517578125,-1.3147415594659746,-0.004929857617616653,-1.6060709225475787
1772649828428596200,8.03059619140625,-2.182764748957008,4.201438713648915,-1.7345628624260425
1772649828438637300,8.04063720703125,-1.3817477878987787,9.33219241309762,-2.8635999178424476
1772649828448678400,8.050678466796874,0.06338321563005447,14.895200634491443,-4.511137992288172
1772649828458720500,8.060720458984376,-1.1825089717544615,19.499331090992687,-1.6480378406614065
1772649828468761300,8.07076123046875,-4.23839394108057,17.89038665883541,4.8693534645542496
1772649828478802400,8.080802490234374,-3.2380519468992945,10.887711544537543,6.771126120048761
1772649828488843500,8.090843505859375,-1.6999457225531338,6.40888796813786,6.639455550134182
1772649828498884400,8.10088427734375,-2.2509026117682454,4.853534840914607,6.254947698748111
1772649828508925400,8.110925537109376,-3.3229677799016235,4.736604159492254,6.436324256595968
1772649828518966500,8.120966552734375,-4.5364527585476635,4.878857498219609,5.659852977120876
1772649828529007400,8.13100732421875,-4.995017779791355,6.973945278897881,2.759665496115386
1772649828539048400,8.14104833984375,-5.404379501926899,11.676166107273101,1.1342160654895006
1772649828549089500,8.151089599609374,-5.5343596345365045,15.756762519013881,2.6552365688696504
1772649828559130400,8.16113037109375,-6.332517845162749,15.616402446687221,4.892263215498626
1772649828569171500,8.17117138671875,-6.233562380892038,12.72831252297163,5.088317994779348
1772649828579212500,8.181212646484376,-4.592676750072837,11.348576659417152,3.1636630608692764
1772649828589253400,8.19125341796875,-3.4604555116623636,11.447519848728179,1.151201614016667
1772649828599294500,8.20129443359375,-3.2297324468433857,11.564971339154242,0.011815103069727774
1772649828609336600,8.211336669921875,-3.390358477607369,11.057166778445243,-0.10865432638842612
1772649828619377700,8.221377685546875,-3.293039090105891,9.980352369958162,0.41731056224815544
1772649828629418500,8.23141845703125,-2.793695483750105,8.576343065890669,1.081063882625103
1772649828639459600,8.24145947265625,-2.267341705393791,7.212731823185086,1.3444323488526047
1772649828649500700,8.251500732421874,-1.5685229899197817,5.929459022563695,1.3110277996398507
1772649828659541500,8.26154150390625,-0.446012413662672,4.622888348463177,1.020765992724523
1772649828669582600,8.27158251953125,0.4964866094894707,3.2562977976858614,0.4240397243726998
1772649828679623700,8.281623779296876,1.520900822523236,1.6023416728913784,-0.16710945623284204
1772649828689664500,8.29166455078125,2.4592238751649855,-0.336402284386754,-0.6886763839051127
1772649828699705600,8.30170556640625,2.7980186076462266,-2.505048053228855,-1.3205438160039484
1772649828709746700,8.31174658203125,2.8819395843923092,-4.6519320721179245,-1.7219187771692872
1772649828719787500,8.32178759765625,3.4690625964879986,-6.698102969413996,-2.413538082658499
1772649828729828600,8.33182861328125,4.110758910292387,-8.56505653272271,-2.8984760009124875
1772649828739869700,8.34186962890625,4.128307426464557,-9.718131758591532,-3.13660408129096
1772649828749910500,8.35191064453125,4.230451457643508,-10.18679264191389,-3.3067236243262883
1772649828759952600,8.36195263671875,4.563756945058703,-10.484120222496985,-3.3262910791054368
1772649828769993500,8.371993408203124,4.722039043045044,-10.812762978798151,-3.1809342214047907
1772649828780034600,8.38203466796875,4.536602980673313,-11.320393351984023,-2.995542874957621
1772649828790075600,8.39207568359375,4.024468866327405,-11.780021618545055,-2.645052151724696
1772649828800116500,8.402116455078126,3.216347480091452,-11.854805349111556,-2.190980204116553
1772649828810157600,8.412157470703125,2.610987969559431,-11.37832648551464,-1.5067875414967535
1772649828820198700,8.42219873046875,2.2107266687244174,-10.663740292066334,-0.7801870851278304
1772649828830239500,8.432239501953125,1.792263356244564,-10.046406850624084,-0.1275952832996845
1772649828840280600,8.442280517578125,1.355866912189126,-9.487519168409705,0.3509192508433014
1772649828850321400,8.4523212890625,1.2522878797709942,-9.224776578995584,0.5494917485659941
1772649828860362500,8.462362548828125,1.3441688756108283,-9.24087840349078,0.3971068553920835
1772649828870403600,8.472403564453124,1.361155227855593,-9.350960241931677,0.10036637224825098
1772649828880444400,8.4824443359375,1.2818898218303918,-9.387987950077653,-0.12340853566695004
1772649828890485500,8.492485595703124,1.1584427442513405,-9.273134659451246,-0.3549832123465836
1772649828900527400,8.50252734375,0.9915110374718904,-9.058325787600875,-0.5821752900278195
1772649828910568400,8.512568359375,0.9031688832826912,-8.7880370205909,-0.867264041686803
1772649828920609500,8.522609619140624,1.2963964860886334,-8.477302845945953,-1.359502053821087
1772649828930650400,8.532650390625,1.8409440927833318,-8.00913763718605,-1.9184154549986123
1772649828940691500,8.54269140625,1.6462817907743155,-7.179412906429171,-2.0429158410228787
1772649828950732500,8.552732666015626,1.1309762067854403,-6.034570671376586,-1.8406420410968363
1772649828960773400,8.5627734375,0.6593978285811841,-4.76335655733943,-1.6638906588315963
1772649828970814500,8.572814453125,0.9943243413269519,-3.196927909350395,-1.6867093704916536
1772649828980855600,8.58285546875,2.1707326581187547,-0.9324164589464664,-1.7863029865354298
1772649828990896400,8.592896484375,3.352563876742124,2.7281185574680564,-2.7065970460116864
1772649829000937500,8.6029375,2.1732775202959775,7.552630717515945,-3.1999706380471586
1772649829010978600,8.612978515625,-7.1021280066967005,13.509645271003246,1.2134157128021121
1772649829021019400,8.623019287109376,-8.688920228278636,18.316282167142628,6.608492256593704
1772649829031060500,8.633060546875,-3.2442128076165915,16.359073747891188,4.6098561406716705
1772649829041101600,8.6431015625,-1.436290840599686,11.31534425190091,1.8092567227520047
1772649829051143700,8.653143798828125,-2.682187996420264,8.38562643276751,1.0087690462648868
1772649829061184800,8.663184814453125,-4.5431420270532366,7.595443438804149,1.9007080950029194
1772649829071225600,8.6732255859375,-5.384398205649853,6.914269685614109,2.2341624893695116
1772649829081266700,8.6832666015625,-4.528968540272117,6.836165286192298,1.3310279467478394
1772649829091307500,8.6933076171875,-3.187144181960821,7.995832749933004,0.8361647737417369
1772649829101348600,8.7033486328125,-2.9759412256479263,9.670040804639457,1.7302270251788199
1772649829111389700,8.7133896484375,-3.623839316701889,11.333649139398336,3.1411835180357097
1772649829121430500,8.723430419921876,-4.071205483061075,12.894515477085113,4.2010237031072375
1772649829131471600,8.7334716796875,-3.8697348162114618,14.10686765230894,4.038473718543351
1772649829141512700,8.7435126953125,-3.798542972657084,14.450145667684078,2.9217569232568144
1772649829151553500,8.753553466796875,-3.7664866231828924,13.778825784510373,1.6053135283090174
1772649829161594600,8.7635947265625,-3.781400114676356,12.91980890829563,0.5296618799909949
1772649829171635700,8.7736357421875,-3.9672862589031457,11.856353163075447,0.26991923957783726
1772649829181676500,8.783676513671875,-3.8063451708406206,10.650996545827388,0.7213849136777222
1772649829191717600,8.793717529296876,-3.303872618809342,9.584391396665573,1.4756391006477176
1772649829201759500,8.803759521484375,-2.678088744407892,8.458646076270938,2.0073180195495484
1772649829211800600,8.813800537109374,-1.6270792237848042,6.944912076637149,1.8947905415222048
1772649829221841700,8.823841552734375,-0.40573476381003853,5.0710582324206825,1.317860129877925
1772649829231882500,8.833882568359375,0.7373672034464777,3.07804375577271,0.6171921332754194
1772649829241923600,8.843923583984376,1.9900331227496266,1.0651502741783856,-0.09086283177323638
1772649829251964700,8.853964599609375,3.0357945135861635,-1.0955559338361025,-0.7759869300242513
1772649829262005500,8.864005615234374,3.7865693340077993,-3.144610862135887,-1.4219704926937817
1772649829272046600,8.874046630859375,4.481344327048957,-5.140652577650546,-2.025458656395972
1772649829282087700,8.884087646484375,5.098823022180795,-7.1343199652493,-2.533806530201435
1772649829292128500,8.89412841796875,5.653223329848051,-8.659671921962499,-2.8532474506542087
1772649829302169600,8.904169677734375,6.099630880308151,-10.087440287280081,-3.3207705621182915
1772649829312210400,8.91421044921875,6.5113225066959854,-10.830247197562455,-3.675881638628244
1772649829322251500,8.92425146484375,6.442970855003595,-11.596416278731823,-4.027634929142892
1772649829332292600,8.934292724609374,6.199352652776241,-12.418387326622009,-4.594661786410212
1772649829342333400,8.94433349609375,5.6003013024777175,-12.962004374468325,-4.704713229712843
1772649829352375600,8.95437548828125,4.285119451898336,-12.781795106834172,-3.9824987333431836
1772649829362416400,8.96441650390625,2.506937227976322,-11.625742910981177,-2.841043802641332
1772649829372457500,8.97445751953125,0.7886518388733267,-10.30796169155836,-1.6261483726754784
1772649829382498600,8.98449853515625,0.0921044293321669,-9.563236380434036,-0.5449976885497569
1772649829392539400,8.994539306640625,0.27081556736305357,-9.28467195250988,-0.10140797198936342
1772649829402580500,9.00458056640625,0.4925299808181822,-9.363350936949253,-0.06892492153570055
1772649829412621600,9.01462158203125,0.8381951835907995,-9.670159462583065,-0.1374866357821971
1772649829422662400,9.024662353515625,1.4930664746582507,-10.0884877505064,-0.39563079149015246
1772649829432703500,9.034703369140624,2.1704661161370575,-10.16502972291708,-0.7891847767062484
1772649829442745000,9.0447451171875,2.6480592245861887,-9.976853421926497,-1.0860848525922744
1772649829452786000,9.054785888671875,2.880346762242913,-9.630820554885268,-1.3987851396784186
1772649829462827000,9.064826904296876,2.753142524087429,-9.322166693645714,-1.7823976496599614
1772649829472867800,9.074867919921875,2.0703509604372083,-8.871305086386203,-2.0781362074859437
1772649829482909000,9.084908935546874,1.711006630271673,-7.951541772785783,-2.4136127553299067
1772649829492950000,9.094949951171875,0.6647182929515838,-6.612978462097049,-1.927164870904386
1772649829502990800,9.104990966796874,0.008019640326499938,-4.707438855284452,-1.91910986700356
1772649829513033000,9.115032958984376,0.7667940811999142,-2.3991706807404753,-2.06255650716871
1772649829523073800,9.12507373046875,0.378249375513196,-0.0416360787242651,-1.6360162712171673
1772649829533115000,9.135114990234374,-2.3777678272277116,3.2277421498090026,-1.676707470306754
1772649829543156000,9.145156005859375,3.3678353878930207,8.97802709300518,-3.4221839409351347
1772649829553196800,9.15519677734375,9.172183052927256,16.611445749938486,-4.745300091645121
1772649829563238000,9.16523779296875,-1.4118895359233021,24.03988894677162,-1.2188803348835557
1772649829573279000,9.175279052734375,-7.4040049211472265,20.60911954832077,6.065616967025399
1772649829583319800,9.18531982421875,-4.127459285202622,10.382684631848335,6.376857337626815
1772649829593361000,9.19536083984375,-1.2102931968674062,5.645949539452791,3.3183521027997136
1772649829603402000,9.205402099609374,-1.3019991284012793,2.322978836941719,1.7357979571789501
1772649829613442800,9.21544287109375,-4.238501493108273,-1.4558955586493014,2.2112068534567952
1772649829623484000,9.22548388671875,-5.6221571604549885,-4.125743713456392,2.2672248010158538
1772649829633525000,9.23552490234375,-4.613861576920748,-3.609241467028856,1.0010460507974028
1772649829643565800,9.24556591796875,-2.6897996404677627,-0.3747311382591724,-0.8066445916816591
1772649829653607000,9.25560693359375,-1.152409747697413,3.0638755296885964,-1.0114287669934332
1772649829663648800,9.265648681640625,-1.4745175492718814,6.502179999819398,0.4650505838707089
1772649829673689900,9.27568994140625,-2.244261858579516,9.160383894062042,2.343723811067641
1772649829683731000,9.28573095703125,-1.8981141329869626,9.553872339761257,3.2010598945885893
1772649829693771800,9.295771728515625,-1.3465069631695747,7.865076956775784,2.200481753563881
1772649829703812900,9.305812744140624,-1.7624670606568456,6.141079327505826,1.4363719430118798
1772649829713854000,9.31585400390625,-1.773661531627178,5.297514287444949,1.090424123905599
1772649829723894800,9.325894775390625,-1.399201903785765,4.863448332163691,1.040280767468363
1772649829733935900,9.335935791015626,-0.9540160040751099,3.324798502460122,0.7930434248957783
1772649829743976700,9.345976806640625,-0.6463412170007824,2.0632044496834276,0.5063483705513179
1772649829754017800,9.356017822265626,-0.2642643921539187,1.3740952273190021,0.3164233992625028
1772649829764059000,9.366058837890625,-0.02228840417563915,0.6643143883258104,0.36472032411545513
1772649829774099700,9.376099609375,-0.1291290687382221,0.03283201002180576,0.559505521851778
1772649829784140800,9.386140869140625,-0.19625380898416042,-0.49952422361969945,0.6228696674551815
1772649829794182000,9.396181884765625,-0.2132104967430234,-0.9782049811750649,0.5874800819050521
1772649829804222700,9.40622265625,-0.07593143929690122,-1.3209364685833453,0.37893991506062447
1772649829814263800,9.416263916015625,-0.1252870063573122,-1.4522843824148177,0.26255356964804233
1772649829824306000,9.426305908203124,-0.2370014144361019,-1.4684621947556733,0.06115202251188457
1772649829834347000,9.436346923828125,-0.1743707707390189,-1.5436585977762938,-0.32540297066234053
1772649829844388000,9.44638818359375,0.037060441371798515,-1.5872627617031334,-0.7017522116426378
1772649829854429000,9.456428955078126,0.1917576666086912,-1.5208330179840326,-0.8982881985690444
1772649829864470000,9.466469970703125,0.2634966226518154,-1.3977794697672128,-0.8600750800307839
1772649829874511000,9.476510986328124,0.18585078065246344,-1.2728496062844992,-0.7114577592294663
1772649829884552000,9.486552001953125,0.28653029223680493,-1.238086335939169,-0.49862289086580275
1772649829894593000,9.496593017578125,0.46048517565131186,-1.2788994078427551,-0.40858518480509515
1772649829904634000,9.506634033203126,0.5425736762732267,-1.2383347577422856,-0.27015330406203864
1772649829914675000,9.516675048828125,0.5318459460318088,-1.1005144330263137,-0.17458360977210102
1772649829924716000,9.526716064453124,0.5502087011963128,-0.9513976382702588,-0.14561828511580824
1772649829934757000,9.536757080078125,0.4736874793127179,-0.8762813147485256,-0.11071472951695323
1772649829944798000,9.5467978515625,0.5587061881676316,-0.9975286903262138,-0.06290829159468413
1772649829954839000,9.556839111328125,0.5316343491077423,-1.2530483427494763,-0.04403510269001126
1772649829964880000,9.5668798828125,0.4637029686540365,-1.4643021524667739,-0.00784844847805798
1772649829974921000,9.5769208984375,0.40382776114493607,-1.6147130786865949,-0.0111099344920367
1772649829984962800,9.586962890625,0.3623626550734043,-1.6557862628310918,-0.03333674467355013
1772649829995004000,9.59700390625,0.4934913731962442,-1.574589158090949,-0.036766719122231006
1772649830005045000,9.607044921875,0.382525737658143,-1.292308924514055,0.046054260492697355
1772649830015085800,9.6170859375,0.33763328748643395,-0.7173451367676258,0.2849896386660635
1772649830025127000,9.627126953125,0.2577124862924218,0.07273498134315014,0.3574654576163739
1772649830035168000,9.63716796875,0.12055004096329211,0.3737947341918945,0.25857699416726826
1772649830045208800,9.647208740234374,0.0417360319674015,0.459843370616436,0.13769457944445312
1772649830055250000,9.65725,0.10973258661180733,0.19899229403734206,-0.15214381442703306
1772649830065291000,9.667291015625,0.12892331703305243,-0.2734603827834129,-0.17463921241685748
1772649830075331800,9.677331787109376,0.06099602823257446,-0.5428367111235857,-0.15209149971790611
1772649830085373000,9.687373046875,-0.06911416049748659,-0.783276283314824,-0.08879676608890294
1772649830095414000,9.6974140625,-0.10582739586681127,-1.1810966207385063,-0.021875877851992843
1772649830105454800,9.707454833984375,-0.15708733524382112,-1.1092606340616942,-0.04097133120521903
1772649830115496000,9.717495849609374,-0.14531272629797456,-0.8018541425347328,-0.19918606304377318
1772649830125537800,9.727537841796876,-0.13104571601450443,-0.5771200889974832,-0.1566369611278176
1772649830135579000,9.737578857421875,0.023262802165746686,-0.34793723935782905,-0.1525113325651735
1772649830145620000,9.747619873046874,0.20975451107025145,-0.23282500553429125,-0.182884332062304
1772649830155660800,9.757660888671875,0.25231559568494555,-0.10864216102659702,-0.15801299872137606
1772649830165702000,9.767701904296874,0.00478928010314703,0.094290979591012,0.014525588154420255
1772649830175743000,9.777742919921875,-0.25950872205942865,0.3176952458292246,0.2601793878626078
1772649830185783800,9.78778369140625,-0.42846214392483234,0.39220249754190445,0.4195888824436813
1772649830195825000,9.797824951171876,-0.40276247000098225,0.38038989467322826,0.4457590234234929
1772649830205866000,9.807865966796875,-0.18163959269821642,0.35709143667221066,0.3978209950108081
1772649830215906800,9.81790673828125,0.02038666220754385,0.35748832703530786,0.34489180724732577
1772649830225948000,9.827947998046875,0.1675569990709424,0.289730549582839,0.30302053152769803
1772649830235988700,9.83798876953125,0.1417456814661622,0.2051028858721256,0.3528859478063881
1772649830246029800,9.84802978515625,0.12237521056383847,0.05785889925062656,0.38966026571318507
1772649830256071000,9.85807080078125,0.19033230998069048,-0.16296528736650942,0.34160262950882314
1772649830266111700,9.86811181640625,0.1935904349938035,-0.3144260149002075,0.27482736028768123
1772649830276152800,9.87815283203125,0.09379296694099902,-0.3404384080350399,0.23667488589547572
1772649830286194700,9.888194580078125,0.17346096241772174,-0.315711963057518,0.17605017519332467
1772649830296235800,9.89823583984375,0.31467063731104133,-0.3014601503431797,0.0410852399084717
1772649830306276900,9.90827685546875,0.3777665604323148,-0.2887853776872158,-0.0038284722469747066
1772649830316317700,9.918317626953124,0.3669990827023983,-0.26982582567334173,0.0035951749477535484
1772649830326358800,9.92835888671875,0.2909101147562265,-0.3056289604604244,0.002548953830450773
1772649830336400000,9.93839990234375,0.14754384635090828,-0.3386076854765415,-0.021557971009239552
1772649830346440700,9.948440673828125,-0.13585136273056267,-0.3180038733869791,0.028069764056056736
1772649830356482000,9.95848193359375,-0.32019290786385535,-0.18014146309494972,0.13755027560293673
1772649830366523100,9.968523193359376,-0.21125176389068365,-0.18871406112909317,0.17923165477365255
1772649830376564000,9.97856396484375,0.14961480740606783,0.3052501902759075,0.29869207386933266
1772649830386605000,9.98860498046875,0.1983478586539626,0.43283202957212924,0.1827040801245719
