time,seconds_elapsed,z,y,x
1772649820476062000,0.07806201171875,-0.09690383821725845,0.10096502304077148,0.015302864834666252
1772649820486103000,0.08810302734375,-0.09091640263795853,0.11069713532924652,0.03477351740002632
1772649820496144100,0.09814404296875,-0.09464029967784882,0.12120649963617325,0.04770502820611
1772649820506185000,0.10818505859375,-0.10635014623403549,0.15317608416080475,0.025965770706534386
1772649820516226000,0.11822607421875,-0.12115146219730377,0.18619608879089355,-0.012766711413860321
1772649820526267100,0.12826708984375,-0.14595673978328705,0.2218567281961441,-0.04841017723083496
1772649820536309000,0.13830908203125,-0.1526564508676529,0.2587604224681854,-0.03660385310649872
1772649820546350000,0.14835009765625,-0.15445677936077118,0.2884522080421448,-0.0279201939702034
1772649820556391000,0.158390869140625,-0.18146176636219025,0.3021296560764313,-0.10659343004226685
1772649820566432000,0.168431884765625,-0.2342100739479065,0.25046783685684204,-0.2501104474067688
1772649820576473000,0.17847314453125,-0.2780725955963135,0.175031378865242,-0.3329874873161316
1772649820586514000,0.188513916015625,-0.30772092938423157,0.0834081768989563,-0.36099573969841003
1772649820596555000,0.198554931640625,-0.3142680525779724,0.017326360568404198,-0.4189112186431885
1772649820606596000,0.20859619140625,-0.22751130163669586,0.040247008204460144,-0.41725605726242065
1772649820616637000,0.218636962890625,-0.08966021984815598,0.11176912486553192,-0.3118646442890167
1772649820626678000,0.228677978515625,0.062174081802368164,0.14628256857395172,-0.21209512650966644
1772649820636719000,0.238718994140625,0.2491660714149475,0.1508142054080963,-0.1278609335422516
1772649820646760000,0.248760009765625,0.4440697729587555,0.14279915392398834,-0.05385861173272133
1772649820656801000,0.258801025390625,0.6476247906684875,0.11763706803321838,0.02122681401669979
1772649820666841900,0.268841796875,0.8194743990898132,0.11330792307853699,0.12132266163825989
1772649820676883000,0.278883056640625,0.9143548011779785,0.06017838791012764,0.2117452472448349
1772649820686925000,0.288925048828125,0.9366425275802612,-0.08440516144037247,0.30883949995040894
1772649820696966000,0.2989658203125,0.8720422387123108,-0.21146218478679657,0.41683441400527954
1772649820707007000,0.309007080078125,0.6829299330711365,-0.30962881445884705,0.44514012336730957
1772649820717047800,0.3190478515625,0.498257040977478,-0.38758647441864014,0.4436332881450653
1772649820727089000,0.3290888671875,0.4319426119327545,-0.46387046575546265,0.49957403540611267
1772649820737130000,0.3391298828125,0.47292280197143555,-0.5061473846435547,0.549869954586029
1772649820747170800,0.3491708984375,0.5243937969207764,-0.5175541043281555,0.48880356550216675
1772649820757212000,0.3592119140625,0.5083852410316467,-0.6010908484458923,0.337741881608963
1772649820767253000,0.3692529296875,0.43178242444992065,-0.6686578392982483,0.16036346554756165
1772649820777293800,0.3792939453125,0.2866803705692291,-0.6884989142417908,-0.029613131657242775
1772649820787335000,0.3893349609375,0.1278567612171173,-0.6445400714874268,-0.1654115915298462
1772649820797376000,0.3993759765625,0.0015385081060230732,-0.5185043811798096,-0.23631826043128967
1772649820807416800,0.409416748046875,-0.12002986669540405,-0.3417761027812958,-0.24091178178787231
1772649820817458000,0.4194580078125,-0.20596341788768768,-0.13720537722110748,-0.2137797772884369
1772649820827499000,0.4294990234375,-0.24802818894386292,0.05086930841207504,-0.16967301070690155
1772649820837540900,0.439540771484375,-0.24721673130989075,0.17915350198745728,-0.13158369064331055
1772649820847582000,0.44958203125,-0.18282446265220642,0.2670384347438812,-0.08331804722547531
1772649820857622800,0.459622802734375,-0.05825324356555939,0.38092586398124695,-0.0022010905668139458
1772649820867664000,0.469663818359375,0.0783645287156105,0.5209457874298096,0.10010326653718948
1772649820877705000,0.479705078125,0.20348010957241058,0.6574698090553284,0.17747369408607483
1772649820887745800,0.489745849609375,0.27241313457489014,0.7053757309913635,0.18592755496501923
1772649820897787000,0.499786865234375,0.29559382796287537,0.6834502220153809,0.1251092106103897
1772649820907828000,0.509827880859375,0.24463267624378204,0.6198506951332092,0.025450464338064194
1772649820917868800,0.519868896484375,0.13670222461223602,0.5419979691505432,-0.08320890367031097
1772649820927910000,0.529909912109375,-0.015565790235996246,0.46020790934562683,-0.18206806480884552
1772649820937951000,0.539950927734375,-0.1836749017238617,0.33923861384391785,-0.2792704999446869
1772649820947991800,0.54999169921875,-0.352166086435318,0.198429673910141,-0.39524394273757935
1772649820958033000,0.560032958984375,-0.46516454219818115,0.08065216988325119,-0.4946216642856598
1772649820968073700,0.57007373046875,-0.5342967510223389,0.0026700017042458057,-0.5907556414604187
1772649820978114800,0.58011474609375,-0.6035471558570862,-0.036345843225717545,-0.6620255708694458
1772649820988156000,0.590156005859375,-0.664142906665802,0.019830677658319473,-0.6769183278083801
1772649820998198000,0.600197998046875,-0.6751478910446167,0.05091669037938118,-0.653907060623169
1772649821008239000,0.610239013671875,-0.6695208549499512,0.028435101732611656,-0.5838872790336609
1772649821018280000,0.620280029296875,-0.6512361168861389,0.009213470853865147,-0.4814916253089905
1772649821028321000,0.630321044921875,-0.5915529727935791,-0.017168806865811348,-0.39220181107521057
1772649821038362000,0.640362060546875,-0.4885520339012146,-0.05666641518473625,-0.3007592260837555
1772649821048403000,0.65040283203125,-0.30718377232551575,-0.09037704020738602,-0.18747249245643616
1772649821058444000,0.660444091796875,-0.12378225475549698,-0.09245111048221588,-0.08117587864398956
1772649821068485000,0.670485107421875,0.025665530934929848,-0.11374123394489288,-0.023818815127015114
1772649821078526000,0.68052587890625,0.12221231311559677,-0.1515703648328781,-0.00006075529381632805
1772649821088567000,0.690567138671875,0.16418223083019257,-0.17037126421928406,0.02637387439608574
1772649821098608000,0.700608154296875,0.14080101251602173,-0.17121762037277222,0.05365476384758949
1772649821108649000,0.71064892578125,0.0620373860001564,-0.15987756848335266,0.059870220720767975
1772649821118690000,0.72068994140625,-0.0410304069519043,-0.13945885002613068,0.014974919147789478
1772649821128731100,0.730731201171875,-0.15000928938388824,-0.1291775107383728,-0.07533115148544312
1772649821138772000,0.74077197265625,-0.2420143038034439,-0.09913838654756546,-0.1856430023908615
1772649821148814000,0.75081396484375,-0.28323307633399963,-0.04371638596057892,-0.2670532166957855
1772649821158855000,0.76085498046875,-0.3056337237358093,0.006788867525756359,-0.2899864912033081
1772649821168896000,0.77089599609375,-0.3181474506855011,0.013814777135848999,-0.3316212296485901
1772649821178936800,0.780936767578125,-0.2904018461704254,-0.004657706245779991,-0.39804258942604065
1772649821188978000,0.79097802734375,-0.23795172572135925,-0.0699349045753479,-0.4297783076763153
1772649821199019000,0.80101904296875,-0.1406872272491455,-0.11341793090105057,-0.4135625660419464
1772649821209059800,0.811059814453125,-0.030724963173270226,-0.15597625076770782,-0.4244171977043152
1772649821219101000,0.821100830078125,0.10374549776315689,-0.2615916132926941,-0.4638093411922455
1772649821229142000,0.83114208984375,0.2765086889266968,-0.27155905961990356,-0.4262339174747467
1772649821239182800,0.841182861328125,0.2999839186668396,-0.14394065737724304,0.11192486435174942
1772649821249224000,0.851223876953125,0.6326819658279419,0.6019056439399719,0.8244677186012268
1772649821259265000,0.86126513671875,1.0004255771636963,0.9175975918769836,0.7912276983261108
1772649821269305900,0.871305908203125,1.1925767660140991,0.6939032077789307,0.5368599891662598
1772649821279347000,0.881346923828125,1.1685234308242798,0.40136826038360596,0.3214568793773651
1772649821289388000,0.891387939453125,1.149393081665039,0.16959215700626373,-0.11891540884971619
1772649821299428900,0.901428955078125,1.0985605716705322,0.21964547038078308,-0.37730807065963745
1772649821309471000,0.911470947265625,0.7509320974349976,0.25800958275794983,-0.3411315679550171
1772649821319511800,0.92151171875,0.09487646073102951,-0.07458408176898956,-0.22447313368320465
1772649821329553000,0.931552978515625,-0.45701950788497925,-0.4099275469779968,-0.041344933211803436
1772649821339594000,0.941593994140625,-0.6790408492088318,-0.42265477776527405,0.16291631758213043
1772649821349634800,0.951634765625,-0.6132178902626038,-0.30595430731773376,0.16033200919628143
1772649821359676000,0.961676025390625,-0.44302481412887573,-0.2492731809616089,0.04570024833083153
1772649821369717000,0.971717041015625,-0.2415337711572647,-0.18689823150634766,-0.12262218445539474
1772649821379757800,0.9817578125,-0.05170072987675667,-0.03527648001909256,-0.3191802501678467
1772649821389799000,0.991798828125,0.11042666435241699,0.1813836544752121,-0.43589672446250916
1772649821399840000,1.001840087890625,0.1936856061220169,0.3321731686592102,-0.370941162109375
1772649821409880800,1.011880859375,0.1966319978237152,0.3604823052883148,-0.16806286573410034
1772649821419922000,1.021921875,0.17493149638175964,0.28809651732444763,0.03887433186173439
1772649821429962800,1.031962646484375,0.1444438397884369,0.21316471695899963,0.18891501426696777
1772649821440004900,1.0420048828125,0.10804402828216553,0.21250052750110626,0.2607543468475342
1772649821450046000,1.0520458984375,0.03464384749531746,0.2584805488586426,0.20268568396568298
1772649821460088000,1.062088134765625,-0.05658673122525215,0.2696085572242737,0.006749746389687061
1772649821470129000,1.07212890625,-0.15950867533683777,0.17714177072048187,-0.3084189295768738
1772649821480170000,1.082169921875,-0.2858884632587433,0.04975186288356781,-0.5818043947219849
1772649821490211000,1.092211181640625,-0.45943453907966614,-0.09010963141918182,-0.7296261191368103
1772649821500252000,1.102251953125,-0.6749293208122253,-0.24789127707481384,-0.8034771680831909
1772649821510293000,1.11229296875,-0.8784893155097961,-0.40044698119163513,-0.8277207016944885
1772649821520334000,1.122333984375,-0.9876775741577148,-0.4917449355125427,-0.7512519955635071
1772649821530375000,1.132375,-0.9816616177558899,-0.4950806498527527,-0.5752860903739929
1772649821540416000,1.142416015625,-0.8605549335479736,-0.42988860607147217,-0.338653028011322
1772649821550457000,1.15245703125,-0.6086000204086304,-0.3682827651500702,-0.11667273193597794
1772649821560498000,1.162497802734375,-0.28508028388023376,-0.29051366448402405,0.049352459609508514
1772649821570539000,1.1725390625,-0.012433896772563457,-0.11545028537511826,0.1350751519203186
1772649821580580000,1.182580078125,0.14696800708770752,0.012876792810857296,0.18061521649360657
1772649821590621000,1.192620849609375,0.2450299859046936,0.09245921671390533,0.21813493967056274
1772649821600662000,1.202662109375,0.3248920738697052,0.16967090964317322,0.2785423696041107
1772649821610703000,1.212703125,0.38508421182632446,0.24919509887695312,0.3330211937427521
1772649821620745000,1.222744873046875,0.4069221317768097,0.28624072670936584,0.3553334176540375
1772649821630786000,1.2327861328125,0.36610737442970276,0.2906936705112457,0.327043741941452
1772649821640827000,1.242826904296875,0.2718607783317566,0.2809036374092102,0.25056254863739014
1772649821650868000,1.252867919921875,0.15268392860889435,0.24685902893543243,0.15336716175079346
1772649821660909000,1.262908935546875,0.04453402757644653,0.17090727388858795,0.06959608942270279
1772649821670950000,1.272949951171875,-0.05923820286989212,0.04942331463098526,-0.005208926275372505
1772649821680991000,1.282990966796875,-0.17612886428833008,-0.08500293642282486,-0.07532915472984314
1772649821691031800,1.29303173828125,-0.30013391375541687,-0.2065163105726242,-0.19304567575454712
1772649821701073000,1.303072998046875,-0.3916827142238617,-0.33394643664360046,-0.37354326248168945
1772649821711114000,1.313114013671875,-0.43451523780822754,-0.43259018659591675,-0.44180142879486084
1772649821721154800,1.32315478515625,-0.4778893291950226,-0.6078394651412964,-0.48137813806533813
1772649821731196000,1.33319580078125,-0.4716615080833435,-0.8202196955680847,-0.5836562514305115
1772649821741237000,1.343237060546875,-0.42022308707237244,-0.9837785363197327,-0.587580680847168
1772649821751277800,1.35327783203125,-0.21567709743976593,-0.9138992428779602,-0.23926955461502075
1772649821761319000,1.36331884765625,0.10114479064941406,-0.7447133660316467,0.29845941066741943
1772649821771360800,1.37336083984375,0.040734875947237015,-0.9476885795593262,0.5586517453193665
1772649821781401900,1.38340185546875,-0.3301798105239868,-0.8602777719497681,0.5722661018371582
1772649821791443000,1.39344287109375,0.07518238574266434,0.11631651222705841,0.7653862237930298
1772649821801483800,1.40348388671875,0.46925243735313416,0.5535396337509155,0.8545659184455872
1772649821811524900,1.41352490234375,0.41468554735183716,-0.09371697157621384,0.758141815662384
1772649821821566000,1.42356591796875,0.3655872642993927,-0.5553135871887207,0.6121596097946167
1772649821831606800,1.433606689453125,0.42627793550491333,-0.4782065451145172,0.358803927898407
1772649821841647900,1.44364794921875,0.42991021275520325,-0.1379147469997406,0.14672869443893433
1772649821851689000,1.45368896484375,0.18901818990707397,-0.1492326855659485,0.10997872054576874
1772649821861729800,1.463729736328125,-0.07880260795354843,-0.1370133012533188,0.10140334069728851
1772649821871771000,1.47377099609375,-0.19812346994876862,0.13629616796970367,0.01437915489077568
1772649821881812000,1.48381201171875,-0.11907979100942612,0.5046603679656982,-0.030606696382164955
1772649821891852800,1.493852783203125,0.021015020087361336,0.6521990895271301,-0.014661096036434174
1772649821901894000,1.503893798828125,0.16418416798114777,0.6607595682144165,0.05033601075410843
1772649821911935000,1.51393505859375,0.27634814381599426,0.6261932253837585,0.12409274280071259
1772649821921976800,1.523976806640625,0.3013160824775696,0.5278570652008057,0.1899077147245407
1772649821932018000,1.534017822265625,0.27486297488212585,0.4753390848636627,0.22936974465847015
1772649821942058800,1.544058837890625,0.24032709002494812,0.48960191011428833,0.2584029734134674
1772649821952099800,1.554099853515625,0.22064109146595,0.5306557416915894,0.2855217456817627
1772649821962140700,1.564140625,0.22322195768356323,0.627447783946991,0.3233996033668518
1772649821972181800,1.574181640625,0.23256246745586395,0.7008676528930664,0.3504227101802826
1772649821982222800,1.584222900390625,0.2061454951763153,0.7530208826065063,0.31045398116111755
1772649821992263700,1.594263671875,0.17330710589885712,0.7369000315666199,0.21104653179645538
1772649822002304800,1.6043046875,0.15099647641181946,0.6797872185707092,0.0749049261212349
1772649822012346000,1.61434619140625,0.12323253601789474,0.5611948370933533,-0.07593045383691788
1772649822022387000,1.624386962890625,0.00834483839571476,0.4067930281162262,-0.22338008880615234
1772649822032428000,1.634427978515625,-0.21467413008213043,0.2437954545021057,-0.3445430397987366
1772649822042469000,1.64446923828125,-0.445224791765213,0.1347573846578598,-0.4401814043521881
1772649822052510000,1.654510009765625,-0.6366811990737915,0.05248989909887314,-0.5010936856269836
1772649822062552000,1.664552001953125,-0.7529561519622803,-0.03908342495560646,-0.5226680040359497
1772649822072593000,1.674593017578125,-0.7918441295623779,-0.08609583973884583,-0.45641642808914185
1772649822082634000,1.684634033203125,-0.718084990978241,-0.05746978893876076,-0.30032774806022644
1772649822092675000,1.694675048828125,-0.5273056626319885,-0.045058976858854294,-0.11017239093780518
1772649822102716000,1.7047158203125,-0.2931555211544037,-0.050843365490436554,0.07496950030326843
1772649822112757000,1.714757080078125,-0.07086680084466934,-0.06074835732579231,0.19061575829982758
1772649822122798000,1.724798095703125,0.13028547167778015,-0.11387336254119873,0.2235819548368454
1772649822132839000,1.7348388671875,0.2770223915576935,-0.1797855943441391,0.2291736900806427
1772649822142880000,1.7448798828125,0.35567939281463623,-0.23184479773044586,0.22903333604335785
1772649822152921000,1.754921142578125,0.3761225938796997,-0.26818951964378357,0.2243768572807312
1772649822162962000,1.7649619140625,0.3457079529762268,-0.29332098364830017,0.2018377184867859
1772649822173003000,1.7750029296875,0.28092706203460693,-0.3109595477581024,0.17060132324695587
1772649822183043800,1.7850439453125,0.18881897628307343,-0.3161010444164276,0.13527235388755798
1772649822193085000,1.7950849609375,0.10242540389299393,-0.3135794997215271,0.09890414029359818
1772649822203126800,1.805126708984375,0.024206234142184258,-0.3249671757221222,0.07840978354215622
1772649822213167900,1.81516796875,-0.05895119160413742,-0.3434808850288391,0.03969845548272133
1772649822223209000,1.825208984375,-0.12453339993953705,-0.3760707676410675,0.010659081861376762
1772649822233249800,1.835249755859375,-0.1798972338438034,-0.3936574459075928,0.08733698725700378
1772649822243291000,1.845290771484375,-0.2617343068122864,-0.34707796573638916,0.22419042885303497
1772649822253332000,1.85533203125,-0.29537925124168396,-0.3181285858154297,0.23982129991054535
1772649822263372800,1.865372802734375,-0.19080889225006104,-0.35009583830833435,0.027650456875562668
1772649822273414000,1.875413818359375,-0.0423588752746582,-0.3304571807384491,-0.10574159771203995
1772649822283455000,1.885455078125,-0.0511116199195385,-0.17357279360294342,0.0036030043847858906
1772649822293495800,1.895495849609375,-0.26805898547172546,-0.1529105007648468,0.19683130085468292
1772649822303537000,1.905536865234375,-0.49004703760147095,0.008806750178337097,0.24403077363967896
1772649822313578000,1.915577880859375,-0.14575853943824768,0.3241756558418274,0.2155391126871109
1772649822323618800,1.925618896484375,0.1771095246076584,0.4729217290878296,0.34745320677757263
1772649822333660000,1.935659912109375,0.24792858958244324,0.22211354970932007,0.2852347195148468
1772649822343701800,1.94570166015625,0.3278351128101349,0.12179385870695114,0.22873203456401825
1772649822353742800,1.955742919921875,0.3212273120880127,0.2534126341342926,0.2641408443450928
1772649822363784000,1.965783935546875,0.33647045493125916,0.5960171222686768,0.26053518056869507
1772649822373824800,1.97582470703125,0.3175768554210663,0.7164919972419739,0.07121312618255615
1772649822383865900,1.985865966796875,0.18575651943683624,0.6053985357284546,0.035729169845581055
1772649822393907000,1.995906982421875,-0.05023599788546562,0.33614665269851685,0.1324302703142166
1772649822403947800,2.00594775390625,-0.2653328776359558,0.07241672277450562,0.08239718526601791
1772649822413988900,2.01598876953125,-0.30645716190338135,0.005889709107577801,0.01554795540869236
1772649822424030000,2.026030029296875,-0.2124558389186859,0.05854812636971474,0.046692024916410446
1772649822434070500,2.036070556640625,-0.10136450827121735,0.08377479016780853,0.11286944150924683
1772649822444111600,2.046111572265625,-0.06189139932394028,0.1233094185590744,0.1191030964255333
1772649822454152700,2.056152587890625,-0.04816524311900139,0.17002730071544647,0.062613345682621
1772649822464193500,2.066193603515625,0.011268786154687405,0.2600131332874298,-0.007291438523679972
1772649822474235600,2.076235595703125,0.12157301604747772,0.386768102645874,0.010785659775137901
1772649822484276500,2.0862763671875,0.2876102030277252,0.5415001511573792,0.1331653594970703
1772649822494317600,2.096317626953125,0.4550323188304901,0.6336336731910706,0.24700409173965454
1772649822504358700,2.106358642578125,0.6026358604431152,0.6283491253852844,0.31559303402900696
1772649822514399500,2.1163994140625,0.7291722297668457,0.5380655527114868,0.32261210680007935
1772649822524440600,2.126440673828125,0.8048187494277954,0.36451584100723267,0.27761027216911316
1772649822534481400,2.1364814453125,0.781999945640564,0.20925217866897583,0.20158196985721588
1772649822544522500,2.1465224609375,0.7035576105117798,0.09638367593288422,0.08672516793012619
1772649822554563600,2.1565634765625,0.5856435894966125,0.017926424741744995,-0.09232690930366516
1772649822564604400,2.1666044921875,0.4469432532787323,-0.10724108666181564,-0.34803643822669983
1772649822574645500,2.1766455078125,0.27501577138900757,-0.22731070220470428,-0.6295249462127686
1772649822584686600,2.1866865234375,0.04904069006443024,-0.2848624289035797,-0.8397242426872253
1772649822594728400,2.196728515625,-0.18510250747203827,-0.2341366857290268,-0.9410201907157898
1772649822604769500,2.20676953125,-0.3985828161239624,-0.17960846424102783,-0.9493609666824341
1772649822614810400,2.216810302734375,-0.5894597172737122,-0.14152969419956207,-0.8826979398727417
1772649822624851500,2.2268515625,-0.6949595212936401,-0.12812094390392303,-0.783746600151062
1772649822634892500,2.236892578125,-0.6538292169570923,-0.18872852623462677,-0.7060117721557617
1772649822644933400,2.246933349609375,-0.49004611372947693,-0.17340630292892456,-0.5312671661376953
1772649822654974500,2.256974365234375,-0.25575825572013855,-0.14032025635242462,-0.288990318775177
1772649822665015600,2.267015625,-0.06270969659090042,-0.020188521593809128,-0.03243311494588852
1772649822675056400,2.277056396484375,0.10076533257961273,0.08121709525585175,0.17161370813846588
1772649822685097500,2.287097412109375,0.24100685119628906,0.14165301620960236,0.2865307033061981
1772649822695138600,2.297138671875,0.3090449273586273,0.13146020472049713,0.3279821574687958
1772649822705179400,2.307179443359375,0.32975924015045166,0.07415936887264252,0.3446364998817444
1772649822715221800,2.3172216796875,0.32240030169487,-0.0012799359392374754,0.3574693500995636
1772649822725262600,2.3272626953125,0.3018052875995636,-0.043895307928323746,0.36300128698349
1772649822735303700,2.3373037109375,0.26958194375038147,-0.08679823577404022,0.3484261929988861
1772649822745344500,2.347344482421875,0.1760285645723343,-0.16492897272109985,0.29669880867004395
1772649822755385600,2.357385498046875,0.05794293060898781,-0.2590566575527191,0.261364221572876
1772649822765426700,2.3674267578125,-0.06919904053211212,-0.35269472002983093,0.24393969774246216
1772649822775467500,2.377467529296875,-0.1755114197731018,-0.4337496757507324,0.20269298553466797
1772649822785508600,2.387508544921875,-0.2943786680698395,-0.4739373028278351,0.06390661001205444
1772649822795549700,2.3975498046875,-0.4096043109893799,-0.5807369947433472,-0.08043784648180008
1772649822805590500,2.407590576171875,-0.46795257925987244,-0.7069031596183777,-0.18032211065292358
1772649822815631600,2.417631591796875,-0.4491488039493561,-0.6888530850410461,-0.29193589091300964
1772649822825672700,2.427672607421875,-0.4696064293384552,-0.6586418747901917,-0.2000025361776352
1772649822835714600,2.437714599609375,-0.569218635559082,-0.31107714772224426,0.15027610957622528
1772649822845755600,2.447755615234375,-0.3730160892009735,0.4976593554019928,0.6892858147621155
1772649822855796500,2.45779638671875,0.09406320005655289,1.0254460573196411,1.0439281463623047
1772649822865837600,2.467837646484375,0.5243234634399414,0.8097801804542542,0.9688512682914734
1772649822875878700,2.477878662109375,0.6214559674263,0.39770999550819397,0.778107762336731
1772649822885919500,2.48791943359375,0.5584578514099121,-0.07127267867326736,0.4251745343208313
1772649822895960600,2.497960693359375,0.46231016516685486,-0.3585413694381714,0.07201598584651947
1772649822906001700,2.508001708984375,0.23839209973812103,-0.37411341071128845,-0.19979847967624664
1772649822916042500,2.51804248046875,-0.10372753441333771,-0.2453373223543167,-0.3931468725204468
1772649822926083600,2.52808349609375,-0.43610626459121704,-0.1227930337190628,-0.4737762212753296
1772649822936124700,2.538124755859375,-0.6590901613235474,0.006829202640801668,-0.4007425904273987
1772649822946165500,2.54816552734375,-0.7187466025352478,0.14689841866493225,-0.25549912452697754
1772649822956207600,2.55820751953125,-0.649847686290741,0.21334736049175262,-0.2024438977241516
1772649822966248400,2.56824853515625,-0.45111194252967834,0.1988038420677185,-0.2626630365848541
1772649822976289500,2.57828955078125,-0.20913857221603394,0.14644689857959747,-0.33518439531326294
1772649822986330600,2.58833056640625,-0.03398352861404419,0.11893164366483688,-0.41766035556793213
1772649822996371500,2.598371337890625,0.08714088052511215,0.12262078374624252,-0.469046026468277
1772649823006412500,2.60841259765625,0.18090972304344177,0.21554060280323029,-0.43668755888938904
1772649823016453600,2.61845361328125,0.2617061734199524,0.35584911704063416,-0.3797156512737274
1772649823026494500,2.628494384765625,0.3164602220058441,0.445478618144989,-0.2966977059841156
1772649823036535600,2.63853564453125,0.37375763058662415,0.5166268348693848,-0.11812246590852737
1772649823046576400,2.648576416015625,0.46311119198799133,0.5914821624755859,0.14673343300819397
1772649823056617500,2.658617431640625,0.5427079796791077,0.6505051255226135,0.37527745962142944
1772649823066659300,2.668659423828125,0.5385867357254028,0.6666625142097473,0.45798805356025696
1772649823076700400,2.678700439453125,0.46574148535728455,0.6272250413894653,0.4028187394142151
1772649823086741500,2.688741455078125,0.35131052136421204,0.5457967519760132,0.25561943650245667
1772649823096782300,2.6987822265625,0.20831558108329773,0.35881540179252625,0.024743838235735893
1772649823106823400,2.708823486328125,-0.0024083671160042286,0.15234532952308655,-0.2718513309955597
1772649823116864500,2.718864501953125,-0.23861227929592133,-0.025994854047894478,-0.580895185470581
1772649823126905300,2.7289052734375,-0.44461581110954285,-0.1553989201784134,-0.8564388751983643
1772649823136946400,2.738946533203125,-0.5749043226242065,-0.2312064915895462,-1.0266233682632446
1772649823146987500,2.748987548828125,-0.7158686518669128,-0.20736880600452423,-1.067025899887085
1772649823157028400,2.7590283203125,-0.8315500020980835,-0.17834071815013885,-0.9682477712631226
1772649823167069400,2.7690693359375,-0.8728806376457214,-0.08819910138845444,-0.7491745352745056
1772649823177110500,2.779110595703125,-0.812443196773529,0.009269548580050468,-0.48575541377067566
1772649823187152600,2.789152587890625,-0.6495122909545898,0.03389021009206772,-0.2596855163574219
1772649823197193700,2.79919384765625,-0.4316214621067047,-0.036348238587379456,-0.13030549883842468
1772649823207234600,2.809234619140625,-0.26471635699272156,-0.04590073227882385,-0.09175918251276016
1772649823217275600,2.819275634765625,-0.16684694588184357,-0.01269056461751461,-0.0861964002251625
1772649823227316700,2.829316650390625,-0.06990815699100494,-0.03321847319602966,-0.06935270130634308
1772649823237357600,2.839357666015625,0.02465665526688099,-0.11858256161212921,-0.032416149973869324
1772649823247398700,2.849398681640625,0.09684110432863235,-0.1980915069580078,0.027274612337350845
1772649823257439500,2.859439453125,0.13794191181659698,-0.24379152059555054,0.10068925470113754
1772649823267480600,2.86948046875,0.15210486948490143,-0.23826412856578827,0.18330611288547516
1772649823277521700,2.879521728515625,0.14883111417293549,-0.20231348276138306,0.25977271795272827
1772649823287562500,2.8895625,0.13721494376659393,-0.1388532966375351,0.3402710258960724
1772649823297604600,2.8996044921875,0.13123399019241333,-0.03892111778259277,0.422999769449234
1772649823307645400,2.9096455078125,0.1351727992296219,0.0669025108218193,0.5049538016319275
1772649823317686500,2.9196865234375,0.13489553332328796,0.14285792410373688,0.5536777973175049
1772649823327727600,2.9297275390625,0.09934365004301071,0.17603717744350433,0.5472952723503113
1772649823337768400,2.9397685546875,-0.06977979093790054,0.10359077155590057,0.4611346125602722
1772649823347809500,2.9498095703125,-0.25515761971473694,-0.10751774162054062,0.2706160545349121
1772649823357850600,2.9598505859375,-0.30139413475990295,-0.27519917488098145,-0.012882736511528492
1772649823367891500,2.969891357421875,-0.2665959298610687,-0.2666373550891876,-0.1554017961025238
1772649823377932500,2.9799326171875,-0.22981424629688263,-0.12045609205961227,-0.07546481490135193
1772649823387973600,2.9899736328125,-0.21390026807785034,-0.13221421837806702,0.16954414546489716
1772649823398014500,3.000014404296875,-0.2671040892601013,-0.2903800308704376,0.6867849230766296
1772649823408055600,3.0100556640625,0.18041349947452545,0.24224497377872467,1.5636084079742432
1772649823418097400,3.020097412109375,0.9826502203941345,0.7065666913986206,2.009545087814331
1772649823428138500,3.030138427734375,1.1997263431549072,0.355903685092926,1.76622474193573
1772649823438179000,3.040178955078125,1.182160496711731,-0.4734557867050171,1.336079716682434
1772649823448220000,3.050219970703125,1.227560043334961,-1.2657424211502075,0.9689446091651917
1772649823458261000,3.060260986328125,1.1946336030960083,-1.8006367683410645,0.6825645565986633
1772649823468302000,3.070302001953125,1.0309221744537354,-1.9948948621749878,0.4211577773094177
1772649823478343000,3.080343017578125,0.6651118993759155,-1.8566590547561646,0.10792273283004761
1772649823488384000,3.090384033203125,0.2077036201953888,-1.3903942108154297,-0.26030218601226807
1772649823498425000,3.100425048828125,-0.2056749165058136,-0.8295174837112427,-0.6180301308631897
1772649823508466000,3.1104658203125,-0.41169384121894836,-0.42785289883613586,-0.7168967723846436
1772649823518508000,3.120508056640625,-0.3797697126865387,-0.24438610672950745,-0.6399890184402466
1772649823528548900,3.130548828125,-0.24961541593074799,-0.16153010725975037,-0.5689135193824768
1772649823538590000,3.14058984375,-0.09834710508584976,-0.12293623387813568,-0.4894394874572754
1772649823548631000,3.150631103515625,0.12984611093997955,-0.010203296318650246,-0.39522963762283325
1772649823558672000,3.160671875,0.2907502055168152,0.09466985613107681,-0.35589978098869324
1772649823568713000,3.170712890625,0.35151582956314087,0.19995686411857605,-0.3845636546611786
1772649823578754000,3.180754150390625,0.3742864727973938,0.2556583285331726,-0.3880741596221924
1772649823588795000,3.190794921875,0.3425871431827545,0.270648717880249,-0.31374692916870117
1772649823598836000,3.2008359375,0.2867054045200348,0.27633458375930786,-0.23543278872966766
1772649823608877000,3.210876953125,0.22926285862922668,0.2634323835372925,-0.19302594661712646
1772649823618918000,3.22091796875,0.1690540462732315,0.21202731132507324,-0.21037070453166962
1772649823628960000,3.2309599609375,0.12636730074882507,0.12300769239664078,-0.28028666973114014
1772649823639000800,3.241000732421875,0.12450515478849411,0.011514093726873398,-0.3575117588043213
1772649823649042000,3.2510419921875,0.09352593123912811,-0.09791359305381775,-0.42863014340400696
1772649823659083000,3.2610830078125,-0.014557665213942528,-0.1890031397342682,-0.5308636426925659
1772649823669123800,3.271123779296875,-0.16136415302753448,-0.2589220404624939,-0.6702644228935242
1772649823679165000,3.2811650390625,-0.33284270763397217,-0.28550347685813904,-0.7795236706733704
1772649823689205800,3.291205810546875,-0.43586790561676025,-0.2218770980834961,-0.8240706324577332
1772649823699246800,3.301246826171875,-0.48017701506614685,-0.09108962118625641,-0.8335015177726746
1772649823709288000,3.311287841796875,-0.4648611843585968,0.01697639189660549,-0.7786859273910522
1772649823719328800,3.321328857421875,-0.38048189878463745,0.0307569969445467,-0.6569716930389404
1772649823729369900,3.331369873046875,-0.20932640135288239,-0.011400842107832432,-0.49377018213272095
1772649823739411000,3.341410888671875,-0.05337074026465416,-0.09682238847017288,-0.2860657572746277
1772649823749452800,3.351452880859375,-0.012617986649274826,-0.17304445803165436,-0.06799893826246262
1772649823759494000,3.361493896484375,0.002003764733672142,-0.265118807554245,0.10565932095050812
1772649823769534700,3.37153466796875,0.05044560134410858,-0.3999336063861847,0.20777049660682678
1772649823779575800,3.381575927734375,0.10469350963830948,-0.5423311591148376,0.24155165255069733
1772649823789617000,3.391616943359375,0.1360570192337036,-0.621947705745697,0.24513067305088043
1772649823799657700,3.40165771484375,0.1294359415769577,-0.6106509566307068,0.2373167872428894
1772649823809698800,3.41169873046875,0.0909292995929718,-0.5280604958534241,0.21004068851470947
1772649823819740000,3.421739990234375,0.032101161777973175,-0.42708590626716614,0.1702927052974701
1772649823829780700,3.43178076171875,-0.024154653772711754,-0.308335542678833,0.12534068524837494
1772649823839821800,3.44182177734375,-0.07860524207353592,-0.20167699456214905,0.08230126649141312
1772649823849864000,3.451864013671875,-0.14103026688098907,-0.13973373174667358,0.04646550863981247
1772649823859905000,3.461905029296875,-0.23075738549232483,-0.13236694037914276,-0.001981293084099889
1772649823869946000,3.471946044921875,-0.3548748195171356,-0.20027008652687073,-0.1187334731221199
1772649823879987000,3.481987060546875,-0.46662041544914246,-0.3546951711177826,-0.2934201657772064
1772649823890028000,3.492028076171875,-0.5162873268127441,-0.4482266902923584,-0.4505714178085327
1772649823900069000,3.502069091796875,-0.46346476674079895,-0.5220513939857483,-0.533424973487854
1772649823910110000,3.51210986328125,-0.3713148534297943,-0.558158278465271,-0.5152156352996826
1772649823920151000,3.522151123046875,-0.2764691114425659,-0.5279237627983093,-0.3466569185256958
1772649823930192000,3.53219189453125,-0.18478313088417053,-0.5506319999694824,-0.21033447980880737
1772649823940233000,3.54223291015625,-0.19971272349357605,-0.7313064932823181,0.029226388782262802
1772649823950274000,3.552274169921875,-0.277050644159317,-0.48227858543395996,0.598923921585083
1772649823960315000,3.56231494140625,-0.07771339267492294,0.3243851661682129,1.2066895961761475
1772649823970357000,3.57235693359375,0.49315008521080017,0.933392345905304,1.4277503490447998
1772649823980397800,3.582397705078125,0.7018422484397888,0.7758579850196838,1.3038759231567383
1772649823990439000,3.59243896484375,0.6038600206375122,0.281401664018631,1.0019160509109497
1772649824000480000,3.60247998046875,0.6210304498672485,0.03766772896051407,0.6923109889030457
1772649824010520800,3.612520751953125,0.6282084584236145,0.07926443964242935,0.32557880878448486
1772649824020562000,3.62256201171875,0.38566896319389343,-0.018546897917985916,-0.0004891285207122564
1772649824030603000,3.63260302734375,0.07427246868610382,-0.2277669608592987,-0.12096734344959259
1772649824040643800,3.642643798828125,-0.17070485651493073,-0.3640919327735901,-0.07677748054265976
1772649824050685000,3.652684814453125,-0.30088895559310913,-0.33299899101257324,0.029637102037668228
1772649824060726000,3.66272607421875,-0.2862420082092285,-0.19871115684509277,0.14526663720607758
1772649824070766800,3.672766845703125,-0.17560788989067078,-0.009637105278670788,0.22944356501102448
1772649824080809000,3.68280908203125,-0.07617703080177307,0.16818442940711975,0.210541769862175
1772649824090849800,3.692849853515625,-0.0181648600846529,0.34380418062210083,0.08679026365280151
1772649824100891000,3.702890869140625,-0.02684921771287918,0.488112211227417,-0.07652221620082855
1772649824110932000,3.712931884765625,-0.06912477314472198,0.6385259628295898,-0.23455339670181274
1772649824120972800,3.722972900390625,-0.08496113866567612,0.7915816903114319,-0.3125261962413788
1772649824131014000,3.733013916015625,-0.05803071707487106,0.9318916201591492,-0.257182776927948
1772649824141055000,3.743054931640625,-0.0049342080019414425,1.0204671621322632,-0.10145759582519531
1772649824151095800,3.753095703125,0.0758887380361557,1.02092707157135,0.07177916914224625
1772649824161137000,3.763136962890625,0.1725553274154663,0.9691416621208191,0.21867355704307556
1772649824171178000,3.773177978515625,0.3062470853328705,0.8836009502410889,0.3188062906265259
1772649824181218800,3.78321875,0.48002180457115173,0.7635270357131958,0.3539784252643585
1772649824191261000,3.793260986328125,0.6456957459449768,0.6627445220947266,0.34423550963401794
1772649824201301800,3.8033017578125,0.7485068440437317,0.5969863533973694,0.2773211598396301
1772649824211342800,3.8133427734375,0.7621883153915405,0.5096501111984253,0.1443260908126831
1772649824221384000,3.823384033203125,0.6787092685699463,0.34484758973121643,-0.013504057191312313
1772649824231424800,3.8334248046875,0.5128909945487976,0.15369120240211487,-0.15239748358726501
1772649824241465900,3.8434658203125,0.2752339541912079,-0.007503006607294083,-0.24118036031723022
1772649824251506700,3.853506591796875,-0.011124313808977604,-0.17392554879188538,-0.31954628229141235
1772649824261547800,3.8635478515625,-0.2696876525878906,-0.3172736167907715,-0.40455710887908936
1772649824271588900,3.8735888671875,-0.43880584836006165,-0.44299453496932983,-0.525631308555603
1772649824281629700,3.883629638671875,-0.5605063438415527,-0.5097451210021973,-0.6680378913879395
1772649824291670800,3.8936708984375,-0.6389327049255371,-0.4964011013507843,-0.7695911526679993
1772649824301713000,3.903712890625,-0.6646502017974854,-0.43750855326652527,-0.7959046363830566
1772649824311754000,3.91375390625,-0.6555054783821106,-0.3526439964771271,-0.7202575206756592
1772649824321795000,3.923795166015625,-0.6311156153678894,-0.27424052357673645,-0.5558949708938599
1772649824331836000,3.9338359375,-0.54176926612854,-0.21683526039123535,-0.37133845686912537
1772649824341877000,3.943876953125,-0.3987588882446289,-0.14629673957824707,-0.21913357079029083
1772649824351918000,3.95391796875,-0.2782098352909088,-0.09030617773532867,-0.10952025651931763
1772649824361959000,3.963958984375,-0.1761726588010788,-0.05029197037220001,-0.053284045308828354
1772649824372000000,3.974,-0.11693410575389862,-0.026585839688777924,-0.030252231284976006
1772649824382041000,3.984041015625,-0.1001482754945755,-0.004978911019861698,-0.023313447833061218
1772649824392082000,3.99408203125,-0.10077518224716187,0.030265362933278084,-0.040863413363695145
1772649824402123000,4.004123046875,-0.10852088779211044,0.06992564350366592,-0.06514948606491089
1772649824412164900,4.014164794921875,-0.12068487703800201,0.11190318316221237,-0.07490704208612442
1772649824422206000,4.0242060546875,-0.13617005944252014,0.15542244911193848,-0.05180761218070984
1772649824432247000,4.0342470703125,-0.1255704164505005,0.2054978758096695,0.014914692379534245
1772649824442288000,4.0442880859375,-0.10473933815956116,0.2621834874153137,0.06306926161050797
1772649824452329200,4.0543291015625,-0.11726312339305878,0.27371495962142944,0.04722185805439949
1772649824462370000,4.0643701171875,-0.16310879588127136,0.22571894526481628,-0.018169427290558815
1772649824472411100,4.0744111328125,-0.21934330463409424,0.14773093163967133,-0.0790996178984642
1772649824482452200,4.0844521484375,-0.2524716258049011,0.0553680844604969,-0.15672855079174042
1772649824492493000,4.0944931640625,-0.2564605176448822,0.002458797302097082,-0.25277814269065857
1772649824502534100,4.1045341796875,-0.2522663176059723,-0.151090607047081,-0.30442309379577637
1772649824512575200,4.1145751953125,-0.268987774848938,-0.2450818121433258,-0.28984466195106506
1772649824522616000,4.124615966796875,-0.42733344435691833,-0.26465630531311035,-0.1445743292570114
1772649824532658200,4.134658203125,-0.5866080522537231,-0.06181211397051811,0.18114091455936432
1772649824542699000,4.144698974609375,-0.335070937871933,0.4049282371997833,0.6155060529708862
1772649824552740000,4.154739990234375,0.18755362927913666,0.48984816670417786,0.7613431811332703
1772649824562781200,4.16478125,0.365674763917923,-0.018207190558314323,0.6983568072319031
1772649824572822000,4.174822021484375,0.3767031729221344,-0.3489854037761688,0.554682195186615
1772649824582863000,4.184863037109375,0.4390915632247925,-0.39944911003112793,0.27982112765312195
1772649824592904200,4.194904296875,0.36881181597709656,-0.5017091631889343,0.036712586879730225
1772649824602945000,4.204945068359375,0.15809369087219238,-0.7352898120880127,-0.051781341433525085
1772649824612986000,4.214986083984375,-0.10970686376094818,-0.9952396750450134,-0.022955019026994705
1772649824623027200,4.225027099609375,-0.28242960572242737,-0.9883683323860168,-0.039108674973249435
1772649824633069300,4.2350693359375,-0.3175708055496216,-0.7883396148681641,-0.08370117843151093
1772649824643110400,4.2451103515625,-0.26464882493019104,-0.6251895427703857,-0.09096401184797287
1772649824653151200,4.255151123046875,-0.162887841463089,-0.5164079070091248,-0.11491062492132187
1772649824663192300,4.2651923828125,-0.056380875408649445,-0.4118192493915558,-0.17610616981983185
1772649824673233200,4.275233154296875,0.06056145578622818,-0.2715130150318146,-0.2302120178937912
1772649824683274200,4.285274169921875,0.19255103170871735,-0.11216993629932404,-0.22953614592552185
1772649824693315300,4.2953154296875,0.308334082365036,0.04231870546936989,-0.15153802931308746
1772649824703356200,4.305356201171875,0.4097990095615387,0.18296082317829132,-0.01254134438931942
1772649824713397200,4.315397216796875,0.4688569903373718,0.2682704031467438,0.13597463071346283
1772649824723438300,4.325438232421875,0.5072576999664307,0.3102132976055145,0.2588880658149719
1772649824733479200,4.335479248046875,0.5277616381645203,0.3691391944885254,0.34127989411354065
1772649824743520300,4.345520263671875,0.5346710681915283,0.43485209345817566,0.35350337624549866
1772649824753562000,4.35556201171875,0.5156400799751282,0.49456337094306946,0.28903570771217346
1772649824763603200,4.365603271484375,0.453405499458313,0.5415732264518738,0.14500632882118225
1772649824773644300,4.375644287109375,0.3049662113189697,0.4855384826660156,-0.11101958155632019
1772649824783685000,4.38568505859375,0.041136253625154495,0.36964163184165955,-0.3965499997138977
1772649824793726200,4.395726318359375,-0.22922652959823608,0.3099316954612732,-0.5702293515205383
1772649824803767300,4.405767333984375,-0.4175177216529846,0.2828338146209717,-0.6213366389274597
1772649824813808000,4.41580810546875,-0.5315132141113281,0.19551143050193787,-0.6008182764053345
1772649824823849200,4.42584912109375,-0.5777139663696289,0.06871025264263153,-0.5424101948738098
1772649824833890300,4.435890380859375,-0.5635629892349243,-0.04553695768117905,-0.42222359776496887
1772649824843931100,4.44593115234375,-0.46716025471687317,-0.09981144219636917,-0.2894769012928009
1772649824853972200,4.45597216796875,-0.3084893822669983,-0.11142175644636154,-0.1980457752943039
1772649824864014000,4.46601416015625,-0.15770398080348969,-0.09670339524745941,-0.15735989809036255
1772649824874055200,4.47605517578125,-0.03229678422212601,-0.08873149007558823,-0.1574839949607849
1772649824884096300,4.48609619140625,0.057444121688604355,-0.11851579695940018,-0.1489918828010559
1772649824894137000,4.49613720703125,0.13005441427230835,-0.1840849369764328,-0.10239933431148529
1772649824904178200,4.50617822265625,0.18709079921245575,-0.2363947480916977,-0.028498752042651176
1772649824914219300,4.51621923828125,0.21362999081611633,-0.2574550211429596,0.05668085813522339
1772649824924260000,4.526260009765625,0.19835016131401062,-0.25181177258491516,0.13207700848579407
1772649824934301200,4.53630126953125,0.15140368044376373,-0.22857435047626495,0.17694061994552612
1772649824944342000,4.546342041015625,0.09270665049552917,-0.1905863881111145,0.18091890215873718
1772649824954383000,4.556383056640625,0.02792046219110489,-0.1686352789402008,0.14937615394592285
1772649824964424200,4.566424072265625,-0.02970051020383835,-0.15921877324581146,0.08572296053171158
1772649824974466000,4.576466064453125,-0.11649452894926071,-0.16726179420948029,-0.012055269442498684
1772649824984507100,4.586507080078125,-0.23144499957561493,-0.22654716670513153,-0.10314985364675522
1772649824994548200,4.59654833984375,-0.29794758558273315,-0.28200510144233704,-0.14987553656101227
1772649825004589300,4.60658935546875,-0.2573462426662445,-0.3149207830429077,-0.16041138768196106
1772649825014630400,4.61663037109375,-0.14783120155334473,-0.33061131834983826,-0.11334241181612015
1772649825024671200,4.626671142578125,-0.05630755424499512,-0.2927945852279663,0.02357577532529831
1772649825034712300,4.63671240234375,0.009807019494473934,-0.19054704904556274,0.09333887696266174
1772649825044753400,4.64675341796875,0.031035179272294044,-0.16864833235740662,0.005596647039055824
1772649825054794200,4.656794189453125,-0.023554828017950058,-0.2029184252023697,-0.08872825652360916
1772649825064835300,4.66683544921875,-0.07763085514307022,-0.07945343852043152,-0.11278228461742401
1772649825074876400,4.67687646484375,-0.0106560830026865,0.1985590010881424,0.015351716428995132
1772649825084917200,4.686917236328125,0.2458817958831787,0.44127902388572693,0.22429707646369934
1772649825094959400,4.69695947265625,0.4790000319480896,0.5002451539039612,0.3327905237674713
1772649825105000200,4.707000244140625,0.5135316252708435,0.34354791045188904,0.23893330991268158
1772649825115041300,4.717041259765625,0.33250588178634644,0.12269464880228043,0.08189602196216583
1772649825125082400,4.727082275390625,0.1134706363081932,0.013666210696101189,-0.021632589399814606
1772649825135123200,4.737123291015625,-0.1141824945807457,-0.006246776785701513,-0.1629875898361206
1772649825145164300,4.747164306640625,-0.3972213566303253,0.0573493167757988,-0.3651544451713562
1772649825155205400,4.757205322265625,-0.506460964679718,0.08217158168554306,-0.5375896096229553
1772649825165246200,4.76724609375,-0.4724581837654114,-0.016853071749210358,-0.5645765662193298
1772649825175287300,4.777287353515625,-0.3842524290084839,-0.1783711314201355,-0.43331119418144226
1772649825185328000,4.787328125,-0.21756073832511902,-0.2524639368057251,-0.2313329130411148
1772649825195369200,4.797369140625,-0.008997942321002483,-0.23959609866142273,-0.0816345065832138
1772649825205410300,4.807410400390625,0.1430763602256775,-0.23473721742630005,0.04275574907660484
1772649825215452200,4.8174521484375,0.17817123234272003,-0.22582362592220306,0.1235256940126419
1772649825225493200,4.8274931640625,0.14972323179244995,-0.13817639648914337,0.1323600560426712
1772649825235534000,4.8375341796875,0.1141926720738411,0.027813907712697983,0.11827141046524048
1772649825245575200,4.8475751953125,0.08400967717170715,0.2041146159172058,0.1544198840856552
1772649825255616300,4.8576162109375,0.09527777880430222,0.3644603490829468,0.2662401795387268
1772649825265657000,4.867656982421875,0.15334996581077576,0.5046300292015076,0.45065009593963623
1772649825275698200,4.8776982421875,0.2519383430480957,0.5736338496208191,0.6563268303871155
1772649825285739300,4.8877392578125,0.3752933442592621,0.5292106866836548,0.8124635219573975
1772649825295780000,4.897780029296875,0.4966086149215698,0.431212455034256,0.8735652565956116
1772649825305821200,4.9078212890625,0.5759285688400269,0.29776623845100403,0.8685151934623718
1772649825315862300,4.9178623046875,0.6230379939079285,0.18676088750362396,0.8197963833808899
1772649825325903000,4.927903076171875,0.6482528448104858,0.11667505651712418,0.6793222427368164
1772649825335945200,4.9379453125,0.6186235547065735,0.033862464129924774,0.4567730724811554
1772649825345986000,4.947986083984375,0.5379791855812073,-0.06155756115913391,0.19773010909557343
1772649825356027100,4.958027099609375,0.43344345688819885,-0.2031104415655136,-0.07023609429597855
1772649825366068200,4.968068115234375,0.25500690937042236,-0.2806636095046997,-0.3256914019584656
1772649825376109000,4.978109130859375,-0.009425530210137367,-0.35584011673927307,-0.5155383348464966
1772649825386150100,4.988150146484375,-0.26898354291915894,-0.2903163731098175,-0.574675440788269
1772649825396191200,4.998191162109375,-0.4351772964000702,-0.10937295109033585,-0.5159969329833984
1772649825406232000,5.008232177734375,-0.5494562983512878,0.033982161432504654,-0.4102104604244232
1772649825416273200,5.018273193359375,-0.6514223217964172,0.05339420959353447,-0.30092206597328186
1772649825426314200,5.028314208984375,-0.6631101369857788,-0.09360362589359283,-0.1975722312927246
1772649825436355000,5.03835498046875,-0.5716537237167358,-0.22847434878349304,-0.043951794505119324
1772649825446397200,5.048397216796875,-0.4068942666053772,-0.2575903534889221,0.1567813903093338
1772649825456438300,5.058438232421875,-0.17865046858787537,-0.18174059689044952,0.3243703842163086
1772649825466479400,5.068479248046875,0.033560797572135925,-0.055330272763967514,0.3489970862865448
1772649825476520200,5.078520263671875,0.18235479295253754,-0.04966413229703903,0.25862911343574524
1772649825486561300,5.088561279296875,0.28864046931266785,-0.1172458752989769,0.15369662642478943
1772649825496602400,5.098602294921875,0.3541922867298126,-0.19295528531074524,0.09915190190076828
1772649825506643200,5.108643310546875,0.3573392331600189,-0.2666736841201782,0.09221377223730087
1772649825516684300,5.118684326171875,0.288857102394104,-0.33019325137138367,0.08251640945672989
1772649825526725400,5.128725341796875,0.16280712187290192,-0.3847452998161316,0.05093042925000191
1772649825536766200,5.13876611328125,-0.002738422714173794,-0.40790361166000366,-0.009623992256820202
1772649825546807300,5.148807373046875,-0.16217824816703796,-0.3976108133792877,-0.08500969409942627
1772649825556848400,5.158848388671875,-0.26016634702682495,-0.3770999312400818,-0.14596866071224213
1772649825566889200,5.16888916015625,-0.35597461462020874,-0.32565513253211975,-0.22534233331680298
1772649825576931300,5.178931396484375,-0.44071850180625916,-0.3328874707221985,-0.28297287225723267
1772649825586972200,5.18897216796875,-0.5206475257873535,-0.2880595624446869,-0.3199460208415985
1772649825597013200,5.19901318359375,-0.591277539730072,-0.20801426470279694,-0.330713152885437
1772649825607054300,5.209054443359375,-0.6395431160926819,-0.16496708989143372,-0.3033086359500885
1772649825617095200,5.21909521484375,-0.6557050347328186,-0.17151261866092682,-0.3017224669456482
1772649825627136300,5.22913623046875,-0.6307562589645386,-0.20515458285808563,-0.37477484345436096
1772649825637177300,5.23917724609375,-0.6147046089172363,-0.07120504975318909,-0.7266668677330017
1772649825647218200,5.24921826171875,-0.8121746778488159,-0.2696698307991028,-0.9139086008071899
1772649825657259300,5.25925927734375,-0.8728510737419128,0.28349536657333374,-0.2658994495868683
1772649825667300400,5.26930029296875,-0.3776524066925049,1.3669143915176392,0.479953795671463
1772649825677341200,5.279341064453125,0.14046399295330048,1.4352279901504517,0.631513237953186
1772649825687382300,5.28938232421875,0.4433995187282562,0.89341139793396,0.523756206035614
1772649825697424100,5.299424072265625,0.6422556042671204,0.4574052691459656,0.37201035022735596
1772649825707465200,5.30946533203125,0.7648788690567017,0.21212634444236755,0.2416285276412964
1772649825717506000,5.319506103515625,0.8350619077682495,0.15856270492076874,0.1321832686662674
1772649825727547100,5.329547119140625,0.6587580442428589,0.14401395618915558,-0.10989426076412201
1772649825737588200,5.339588134765625,0.2701093852519989,0.09480912238359451,-0.4159577786922455
1772649825747629300,5.34962939453125,-0.1366785168647766,0.0012199110351502895,-0.6755446195602417
1772649825757670400,5.35967041015625,-0.4281742572784424,0.11431770771741867,-0.7871659398078918
1772649825767711500,5.36971142578125,-0.525283694267273,0.44269946217536926,-0.6992502808570862
1772649825777752300,5.37975244140625,-0.4625353515148163,0.6683624386787415,-0.4741033911705017
1772649825787793400,5.38979345703125,-0.27581754326820374,0.5941979289054871,-0.19047841429710388
1772649825797834500,5.39983447265625,-0.05954888090491295,0.44962480664253235,-0.0006040839944034815
1772649825807876400,5.40987646484375,0.136387899518013,0.35593679547309875,0.053668487817049026
1772649825817917400,5.41991748046875,0.24828433990478516,0.3554763197898865,0.10262776911258698
1772649825827958300,5.429958251953125,0.3267616629600525,0.5506219863891602,0.21217793226242065
1772649825837999400,5.439999267578125,0.3901345133781433,0.8392740488052368,0.3396754562854767
1772649825848040400,5.45004052734375,0.3967651426792145,1.0524049997329712,0.4149723947048187
1772649825858081300,5.460081298828125,0.39952364563941956,1.1010452508926392,0.48424068093299866
1772649825868122400,5.470122314453125,0.4124350845813751,1.0592222213745117,0.5865871906280518
1772649825878163500,5.48016357421875,0.4425887167453766,0.9310421943664551,0.7075005769729614
1772649825888204300,5.490204345703125,0.5067481398582458,0.7889755964279175,0.7925400137901306
1772649825898245400,5.500245361328125,0.5938505530357361,0.6513791084289551,0.7921836972236633
1772649825908286200,5.5102861328125,0.6794376969337463,0.5379601120948792,0.6850326061248779
1772649825918327300,5.520327392578125,0.7357779145240784,0.4192012548446655,0.4315800964832306
1772649825928369400,5.530369384765625,0.7086057066917419,0.15834929049015045,0.08900802582502365
1772649825938410200,5.54041015625,0.5479001998901367,-0.16088701784610748,-0.2783319056034088
1772649825948451300,5.550451416015625,0.2654232084751129,-0.3173452317714691,-0.5777981877326965
1772649825958492200,5.5604921875,-0.054706066846847534,-0.36609840393066406,-0.7699273824691772
1772649825968533200,5.570533203125,-0.3893861174583435,-0.30345413088798523,-0.8632026314735413
1772649825978574300,5.58057421875,-0.6062012910842896,-0.252958744764328,-0.9116300940513611
1772649825988615200,5.590615234375,-0.6787424683570862,-0.2723604738712311,-0.9796839952468872
1772649825998656300,5.60065625,-0.6394800543785095,-0.2487744390964508,-0.9694870114326477
1772649826008697300,5.610697265625,-0.5190359950065613,-0.30686014890670776,-0.8434339761734009
1772649826018738200,5.62073828125,-0.32093358039855957,-0.28664544224739075,-0.6357406973838806
1772649826028779300,5.630779296875,-0.096212238073349,-0.20321333408355713,-0.33582839369773865
1772649826038820400,5.6408203125,0.06480567902326584,-0.003965212032198906,0.042777493596076965
1772649826048861200,5.650861083984375,0.17574302852153778,0.13455528020858765,0.318851113319397
1772649826058903300,5.6609033203125,0.2411649078130722,0.1912776678800583,0.42231810092926025
1772649826068944100,5.670944091796875,0.24105900526046753,0.20522619783878326,0.42194855213165283
1772649826078985200,5.680985107421875,0.18984057009220123,0.19953502714633942,0.36603042483329773
1772649826089026300,5.6910263671875,0.11089444160461426,0.22949744760990143,0.276493102312088
1772649826099067100,5.701067138671875,0.03298792615532875,0.2763805389404297,0.16456949710845947
1772649826109108200,5.711108154296875,-0.0451323427259922,0.32646122574806213,0.04444291070103645
1772649826119149300,5.7211494140625,-0.13952329754829407,0.3902053236961365,-0.07255934178829193
1772649826129190100,5.731190185546875,-0.2425706386566162,0.456672728061676,-0.17668993771076202
1772649826139231200,5.741231201171875,-0.35304173827171326,0.5106789469718933,-0.27485963702201843
1772649826149272300,5.751272216796875,-0.46395766735076904,0.49012917280197144,-0.33901503682136536
1772649826159313200,5.761313232421875,-0.5396752953529358,0.43270766735076904,-0.33670714497566223
1772649826169354200,5.771354248046875,-0.5804911851882935,0.3882472813129425,-0.3822583854198456
1772649826179396400,5.781396240234375,-0.6392096281051636,0.33835694193840027,-0.5254445672035217
1772649826189437400,5.7914375,-0.7684124112129211,0.2511705458164215,-0.7476175427436829
1772649826199478300,5.801478271484375,-0.9305299520492554,0.08417090773582458,-0.8897925019264221
1772649826209519400,5.811519287109375,-1.130240559577942,0.06911351531744003,-0.6389232277870178
1772649826219560400,5.821560546875,-1.3527774810791016,0.36124709248542786,-0.08650004118680954
1772649826229601300,5.831601318359375,-1.2402470111846924,0.7079329490661621,0.3490161597728729
1772649826239642400,5.841642333984375,-0.7256990075111389,0.945375919342041,0.5332658886909485
1772649826249683500,5.851683349609375,-0.2206386774778366,0.7940706014633179,0.5681555867195129
1772649826259724300,5.861724365234375,-0.01950102671980858,0.4143996834754944,0.6008045673370361
1772649826269765400,5.871765380859375,0.23727662861347198,0.10871069133281708,0.6475476622581482
1772649826279806500,5.881806396484375,0.47083157300949097,-0.10771854966878891,0.6342307925224304
1772649826289847300,5.891847412109375,0.5172274708747864,-0.3233635127544403,0.44119876623153687
1772649826299888400,5.901888427734375,0.3895514905452728,-0.4928414821624756,0.22555892169475555
1772649826309930200,5.91193017578125,0.24874787032604218,-0.518627405166626,0.03104300983250141
1772649826319971300,5.921971435546875,0.14519190788269043,-0.2964521646499634,-0.1823563426733017
1772649826330012400,5.932012451171875,0.15299279987812042,0.08368619531393051,-0.2917400002479553
1772649826340053200,5.94205322265625,0.2054152637720108,0.3206484019756317,-0.2667454183101654
1772649826350094300,5.95209423828125,0.2492186427116394,0.3701106011867523,-0.22030727565288544
1772649826360135400,5.962135498046875,0.2781839966773987,0.32075557112693787,-0.1860792636871338
1772649826370176300,5.97217626953125,0.254713773727417,0.20831741392612457,-0.10644139349460602
1772649826380217300,5.98221728515625,0.2082405686378479,0.09578528255224228,0.05028429999947548
1772649826390258400,5.992258544921875,0.17402629554271698,0.05813222378492355,0.26258742809295654
1772649826400299300,6.00229931640625,0.19656462967395782,0.11651217192411423,0.48200419545173645
1772649826410340400,6.01234033203125,0.29885953664779663,0.19881020486354828,0.6578897833824158
1772649826420381200,6.022381103515625,0.4595027565956116,0.22433607280254364,0.7692306637763977
1772649826430423300,6.03242333984375,0.6491363048553467,0.1893031895160675,0.7869896292686462
1772649826440464400,6.04246435546875,0.811924934387207,0.11765962839126587,0.7277460098266602
1772649826450505500,6.05250537109375,0.8965868949890137,0.023679006844758987,0.6233845949172974
1772649826460546600,6.062546630859375,0.8913753628730774,-0.06726767867803574,0.5006442666053772
1772649826470587400,6.07258740234375,0.8099159002304077,-0.1254163682460785,0.37521424889564514
1772649826480628500,6.08262841796875,0.6797139644622803,-0.1936795711517334,0.25529634952545166
1772649826490669600,6.092669677734375,0.46138373017311096,-0.28562119603157043,0.10502954572439194
1772649826500710400,6.10271044921875,0.09370238333940506,-0.31554287672042847,-0.09714619070291519
1772649826510751500,6.11275146484375,-0.32562562823295593,-0.2936238646507263,-0.28497064113616943
1772649826520792600,6.12279248046875,-0.6250680088996887,-0.2814367115497589,-0.4402499794960022
1772649826530833400,6.13283349609375,-0.7835080623626709,-0.24634774029254913,-0.5700076222419739
1772649826540874500,6.14287451171875,-0.8361986875534058,-0.2062767595052719,-0.6243624687194824
1772649826550915600,6.15291552734375,-0.8661928772926331,-0.16876263916492462,-0.5407856106758118
1772649826560957400,6.16295751953125,-0.824141800403595,-0.1596791297197342,-0.3807823657989502
1772649826570998500,6.17299853515625,-0.6684889793395996,-0.15177084505558014,-0.17864370346069336
1772649826581039400,6.183039306640625,-0.44998592138290405,-0.18831366300582886,0.0037285012658685446
1772649826591080400,6.19308056640625,-0.2708985209465027,-0.17614907026290894,0.12614847719669342
1772649826601121500,6.20312158203125,-0.09611127525568008,-0.22479861974716187,0.1806977391242981
1772649826611162400,6.213162353515625,0.04956046864390373,-0.30835625529289246,0.2007092833518982
1772649826621203500,6.223203369140625,0.15592524409294128,-0.4050130248069763,0.22105742990970612
1772649826631244500,6.23324462890625,0.21240538358688354,-0.46493926644325256,0.23780643939971924
1772649826641285400,6.243285400390625,0.20831236243247986,-0.4832410216331482,0.23074665665626526
1772649826651326500,6.253326416015625,0.17075271904468536,-0.4714653193950653,0.18355946242809296
1772649826661367300,6.2633671875,0.09753336757421494,-0.42936474084854126,0.11702997982501984
1772649826671408600,6.27340869140625,0.0006126422667875886,-0.37602370977401733,0.03579870983958244
1772649826681449700,6.28344970703125,-0.10970507562160492,-0.3148152232170105,-0.05269253998994827
1772649826691491600,6.29349169921875,-0.21095454692840576,-0.28548747301101685,-0.11116880923509598
1772649826701532700,6.30353271484375,-0.2961046099662781,-0.26692497730255127,-0.144166961312294
1772649826711573500,6.313573486328125,-0.35179439187049866,-0.29353582859039307,-0.176611989736557
1772649826721614600,6.323614501953125,-0.40024128556251526,-0.37475451827049255,-0.22464290261268616
1772649826731655700,6.33365576171875,-0.41347959637641907,-0.49762848019599915,-0.24154122173786163
1772649826741696500,6.343696533203125,-0.3650209605693817,-0.5618346333503723,-0.20718325674533844
1772649826751737600,6.353737548828125,-0.23344548046588898,-0.4585370123386383,-0.19436541199684143
1772649826761778700,6.36377880859375,0.0004418559547048062,-0.12521418929100037,-0.2392181158065796
1772649826771819500,6.373819580078125,0.20622798800468445,0.02936682291328907,-0.3373507261276245
1772649826781860600,6.383860595703125,0.2802470922470093,0.002645997330546379,-0.4564720690250397
1772649826791901700,6.393901611328125,0.20712527632713318,-0.01181168295443058,-0.3976065516471863
1772649826801942500,6.403942626953125,0.20615455508232117,0.20035569369792938,-0.08723776042461395
1772649826811983600,6.413983642578125,0.636867880821228,0.7324659824371338,0.28065741062164307
1772649826822025500,6.424025390625,0.9933261275291443,1.1267287731170654,0.4202704429626465
1772649826832066600,6.434066650390625,1.0653952360153198,1.2604907751083374,0.30651625990867615
1772649826842107600,6.444107666015625,1.078163743019104,1.2812697887420654,0.17320428788661957
1772649826852148500,6.4541484375,0.9797016382217407,1.2697516679763794,0.14076916873455048
1772649826862189600,6.464189453125,0.7545343041419983,1.2060757875442505,0.16282786428928375
1772649826872230700,6.474230712890625,0.48500970005989075,1.0346715450286865,0.22062720358371735
1772649826882271500,6.484271484375,0.208250030875206,0.7655183672904968,0.2649283707141876
1772649826892312600,6.4943125,-0.05351122096180916,0.48228245973587036,0.2627311944961548
1772649826902353400,6.504353515625,-0.20018374919891357,0.3034898042678833,0.24535539746284485
1772649826912394500,6.51439453125,-0.17802301049232483,0.23971939086914062,0.25261351466178894
1772649826922435600,6.524435546875,-0.11912533640861511,0.21712219715118408,0.21576948463916779
1772649826932476400,6.534476318359375,-0.003714595688506961,0.1547296792268753,0.0365879163146019
1772649826942517500,6.544517578125,0.13522811233997345,0.052630484104156494,-0.15533597767353058
1772649826952559400,6.554559326171875,0.24171631038188934,-0.02537684142589569,-0.18229062855243683
1772649826962600400,6.564600341796875,0.31777727603912354,-0.003072600346058607,-0.05049530416727066
1772649826972641500,6.5746416015625,0.3620830774307251,0.08388195186853409,0.15665271878242493
1772649826982682400,6.584682373046875,0.3898524045944214,0.18296273052692413,0.3481946885585785
1772649826992723500,6.594723388671875,0.3975013792514801,0.2836392819881439,0.4666299819946289
1772649827002764500,6.6047646484375,0.3919859826564789,0.38432806730270386,0.5037747025489807
1772649827012805400,6.614805419921875,0.35603296756744385,0.4752434194087982,0.4457690119743347
1772649827022846500,6.624846435546875,0.24874407052993774,0.46020933985710144,0.3276093304157257
1772649827032887600,6.634887451171875,0.14883136749267578,0.4083757698535919,0.15230688452720642
1772649827042928400,6.644928466796875,0.06164426729083061,0.3192051351070404,-0.018033957108855247
1772649827052969500,6.654969482421875,-0.0641358494758606,0.2479686439037323,-0.16779571771621704
1772649827063010600,6.665010498046875,-0.2436922937631607,0.15349885821342468,-0.3581877648830414
1772649827073051400,6.675051513671875,-0.430824875831604,-0.03218982741236687,-0.602737545967102
1772649827083093800,6.68509375,-0.6026514768600464,-0.2345418632030487,-0.8198173642158508
1772649827093134600,6.695134521484375,-0.7240258455276489,-0.43065357208251953,-0.9553105235099792
1772649827103175700,6.70517578125,-0.776178240776062,-0.5865325927734375,-0.985808789730072
1772649827113216500,6.715216552734375,-0.7578288316726685,-0.6271076798439026,-0.8804020881652832
1772649827123257600,6.725257568359375,-0.6312456130981445,-0.5852696895599365,-0.6398866772651672
1772649827133298700,6.735298583984375,-0.4108709394931793,-0.5346933007240295,-0.3588041663169861
1772649827143339500,6.745339599609375,-0.17911680042743683,-0.49570727348327637,-0.14306814968585968
1772649827153380600,6.755380615234375,-0.025408945977687836,-0.40147173404693604,-0.028249168768525124
1772649827163421700,6.765421630859375,0.08904413133859634,-0.33860382437705994,-0.003745956579223275
1772649827173462500,6.775462646484375,0.16059711575508118,-0.317131370306015,-0.008855907246470451
1772649827183503600,6.785503662109375,0.18549901247024536,-0.3022408187389374,-0.019174590706825256
1772649827193544700,6.795544677734375,0.17180928587913513,-0.28543201088905334,-0.02417118102312088
1772649827203585500,6.80558544921875,0.13670162856578827,-0.2810250222682953,-0.01839398592710495
1772649827213627600,6.815627685546875,0.09258251637220383,-0.29508519172668457,0.012262756004929543
1772649827223668500,6.82566845703125,0.04630369693040848,-0.3072044253349304,0.05597960948944092
1772649827233709600,6.83570947265625,-0.008302835747599602,-0.2870774269104004,0.1053004115819931
1772649827243750700,6.845750732421875,-0.048145588487386703,-0.27067822217941284,0.11677651107311249
1772649827253791500,6.85579150390625,-0.05700448900461197,-0.3170379102230072,0.13375990092754364
1772649827263832600,6.86583251953125,-0.0537080280482769,-0.3529410660266876,0.10643985122442245
1772649827273873700,6.875873779296875,-0.01694054901599884,-0.40605977177619934,0.0464625246822834
1772649827283914500,6.88591455078125,0.024183452129364014,-0.49210864305496216,-0.018758557736873627
1772649827293955600,6.89595556640625,0.02582751028239727,-0.5638608932495117,-0.13837948441505432
1772649827303996700,6.90599658203125,-0.057642612606287,-0.7480040788650513,-0.2500450611114502
1772649827314037500,6.91603759765625,-0.22870264947414398,-0.8447694182395935,-0.1762378215789795
1772649827324078600,6.92607861328125,-0.5338694453239441,-0.5033495426177979,-0.0636761263012886
1772649827334119700,6.93611962890625,-0.5918777585029602,0.10918087512254715,0.1458461880683899
1772649827344161500,6.94616162109375,-0.21814227104187012,0.40781286358833313,0.4690658152103424
1772649827354202600,6.95620263671875,0.02913995459675789,0.2103249579668045,0.598710834980011
1772649827364243500,6.966243408203125,0.11273205280303955,0.024271726608276367,0.6084806323051453
1772649827374284500,6.976284423828125,0.2631511092185974,0.06039256602525711,0.5832877159118652
1772649827384325600,6.98632568359375,0.3977808356285095,0.20980282127857208,0.42545682191848755
1772649827394366500,6.996366455078125,0.36429405212402344,0.19661875069141388,0.22000420093536377
1772649827404407600,7.006407470703125,0.1907438188791275,0.060325104743242264,0.032058268785476685
1772649827414448400,7.016448486328125,-0.07999865710735321,-0.0815841555595398,-0.10935626178979874
1772649827424489500,7.026489501953125,-0.32748621702194214,-0.1429380625486374,-0.20374853909015656
1772649827434530600,7.036530517578125,-0.47932395339012146,-0.026629414409399033,-0.3056637644767761
1772649827444571100,7.046571044921875,-0.49076464772224426,0.1399313360452652,-0.3542480766773224
1772649827454612200,7.0566123046875,-0.38504838943481445,0.27137938141822815,-0.28022071719169617
1772649827464653300,7.0666533203125,-0.2661276161670685,0.26834338903427124,-0.20272940397262573
1772649827474694100,7.076694091796875,-0.17188073694705963,0.18599246442317963,-0.16429975628852844
1772649827484736300,7.086736328125,-0.10218848288059235,0.16800041496753693,-0.12733347713947296
1772649827494777000,7.096777099609375,-0.04433001950383186,0.26402103900909424,-0.05061383545398712
1772649827504818200,7.106818115234375,-0.038384512066841125,0.39898204803466797,0.08407340943813324
1772649827514859300,7.116859375,-0.06958552449941635,0.514116108417511,0.2465866208076477
1772649827524900000,7.126900146484375,-0.06634978204965591,0.5931792259216309,0.3853898048400879
1772649827534941200,7.136941162109375,-0.03292442858219147,0.6366832256317139,0.5029482841491699
1772649827544982300,7.146982177734375,0.04653976857662201,0.6452191472053528,0.6030988693237305
1772649827555023000,7.157023193359375,0.15323016047477722,0.5869547724723816,0.6407787203788757
1772649827565064200,7.167064208984375,0.26443737745285034,0.48928704857826233,0.6195277571678162
1772649827575105300,7.177105224609375,0.3932211995124817,0.4079833924770355,0.5788512229919434
1772649827585146000,7.18714599609375,0.49964165687561035,0.3700013756752014,0.49934840202331543
1772649827595187200,7.197187255859375,0.5422160625457764,0.38442856073379517,0.387088418006897
1772649827605228300,7.207228271484375,0.5133956074714661,0.33576568961143494,0.23319286108016968
1772649827615269000,7.21726904296875,0.3721046447753906,0.237737774848938,0.01726588048040867
1772649827625311500,7.2273115234375,0.16757096350193024,0.1070181280374527,-0.18243125081062317
1772649827635352300,7.237352294921875,-0.05124165117740631,0.07930412143468857,-0.30065736174583435
1772649827645393400,7.247393310546875,-0.26014479994773865,0.07158069312572479,-0.35749348998069763
1772649827655434500,7.2574345703125,-0.42355677485466003,0.03877386450767517,-0.40857288241386414
1772649827665475300,7.267475341796875,-0.5285694599151611,-0.008747581392526627,-0.4556274712085724
1772649827675516400,7.277516357421875,-0.5998203158378601,-0.03707638010382652,-0.44788071513175964
1772649827685557200,7.28755712890625,-0.5834501385688782,-0.048770055174827576,-0.39033299684524536
1772649827695598300,7.297598388671875,-0.44889387488365173,-0.042166177183389664,-0.2985174059867859
1772649827705639400,7.307639404296875,-0.25863444805145264,-0.028047693893313408,-0.160008504986763
1772649827715680300,7.31768017578125,-0.07455817610025406,0.009099037386476994,0.010439337231218815
1772649827725721300,7.327721435546875,0.09443590044975281,0.02552860975265503,0.17203888297080994
1772649827735762400,7.337762451171875,0.22348086535930634,-0.004785044584423304,0.2726903259754181
1772649827745803300,7.34780322265625,0.2897230088710785,-0.05565435066819191,0.2748147249221802
1772649827755845400,7.357845458984375,0.2697017788887024,-0.11674974113702774,0.2150638848543167
1772649827765886200,7.36788623046875,0.18194636702537537,-0.16220855712890625,0.13443082571029663
1772649827775927300,7.37792724609375,0.06296467036008835,-0.18780414760112762,0.026844080537557602
1772649827785968400,7.387968505859375,-0.0741998478770256,-0.211668461561203,-0.09759478271007538
1772649827796009200,7.39800927734375,-0.2201552391052246,-0.2427336722612381,-0.21223990619182587
1772649827806050300,7.40805029296875,-0.36214062571525574,-0.2823823094367981,-0.2763371169567108
1772649827816091400,7.41809130859375,-0.47784557938575745,-0.3306724727153778,-0.33823832869529724
1772649827826132200,7.42813232421875,-0.5674772262573242,-0.39667919278144836,-0.40510842204093933
1772649827836173300,7.43817333984375,-0.6306214928627014,-0.5488797426223755,-0.37907108664512634
1772649827846214400,7.44821435546875,-0.6365350484848022,-0.6677398085594177,-0.2569736838340759
1772649827856255200,7.458255126953125,-0.6069763898849487,-0.6977753043174744,-0.14571385085582733
1772649827866296300,7.46829638671875,-0.5088165402412415,-0.7481822967529297,-0.1968550682067871
1772649827876337400,7.47833740234375,-0.27629026770591736,-0.6728650331497192,-0.2727896273136139
1772649827886378200,7.488378173828125,-0.08144567161798477,-0.3666771352291107,-0.180357426404953
1772649827896420400,7.49842041015625,-0.1203184574842453,0.14275020360946655,0.23783725500106812
1772649827906461200,7.508461181640625,-0.0879216343164444,0.7655200362205505,0.4292205274105072
1772649827916502300,7.518502197265625,0.21595962345600128,1.0389480590820312,0.2403799593448639
1772649827926543400,7.52854345703125,0.5031602382659912,0.7015215158462524,0.17525875568389893
1772649827936584200,7.538584228515625,0.5002784729003906,0.16671714186668396,0.21397677063941956
1772649827946625300,7.548625244140625,0.5134571194648743,-0.07561028003692627,0.11903668940067291
1772649827956666000,7.558666015625,0.4605436325073242,-0.06498190760612488,-0.09161926060914993
1772649827966707200,7.568707275390625,0.29802316427230835,-0.01523832231760025,-0.21291346848011017
1772649827976748300,7.578748291015625,0.009990864433348179,-0.04323533549904823,-0.22391019761562347
1772649827986789000,7.5887890625,-0.2459849864244461,-0.03069797344505787,-0.1478697508573532
1772649827996830200,7.598830322265625,-0.29576465487480164,0.010898882523179054,0.03178148716688156
1772649828006871300,7.608871337890625,-0.26124051213264465,0.011294095776975155,0.21550364792346954
1772649828016912100,7.618912109375,-0.13344186544418335,0.05944007262587547,0.28898587822914124
1772649828026953200,7.628953125,0.0017143497243523598,0.1862507462501526,0.2378140091896057
1772649828036995000,7.6389951171875,0.076974056661129,0.31964439153671265,0.13332746922969818
1772649828047036200,7.6490361328125,0.10272336006164551,0.4181826710700989,0.08286962658166885
1772649828057077200,7.6590771484375,0.14843028783798218,0.5248534679412842,0.0741635113954544
1772649828067118000,7.6691181640625,0.20457904040813446,0.5702113509178162,0.09984171390533447
1772649828077159400,7.679159423828125,0.26834768056869507,0.5272728800773621,0.19680722057819366
1772649828087200500,7.689200439453125,0.34552183747291565,0.4365139305591583,0.32153740525245667
1772649828097241300,7.699241455078125,0.4340110719203949,0.33493563532829285,0.4517125189304352
1772649828107282400,7.709282470703125,0.50765460729599,0.23386253416538239,0.5741337537765503
1772649828117323500,7.719323486328125,0.547856330871582,0.17468415200710297,0.671419084072113
1772649828127364400,7.7293642578125,0.559512734413147,0.15367287397384644,0.7383395433425903
1772649828137405400,7.739405517578125,0.5223294496536255,0.15804177522659302,0.7624605894088745
1772649828147446300,7.7494462890625,0.42908230423927307,0.1862899214029312,0.6930506229400635
1772649828157487400,7.7594873046875,0.27735012769699097,0.1235688328742981,0.47793635725975037
1772649828167528400,7.769528564453125,0.002261839108541608,-0.08934050798416138,0.09506673365831375
1772649828177570300,7.7795703125,-0.38758787512779236,-0.2524717450141907,-0.30509278178215027
1772649828187611400,7.789611328125,-0.7528598308563232,-0.2892233729362488,-0.6070075631141663
1772649828197652200,7.79965234375,-0.9716544151306152,-0.29723885655403137,-0.7711490392684937
1772649828207693300,7.809693359375,-1.0595568418502808,-0.26674380898475647,-0.7888196110725403
1772649828217734400,7.819734375,-1.0443120002746582,-0.20598745346069336,-0.6573088765144348
1772649828227775200,7.829775146484375,-0.9273452758789062,-0.10686806589365005,-0.3828173577785492
1772649828237816300,7.83981640625,-0.7145521640777588,-0.01076893974095583,-0.023404408246278763
1772649828247857400,7.849857421875,-0.4424617886543274,0.06149087846279144,0.30541956424713135
1772649828257898200,7.859898193359375,-0.1851489245891571,0.13412536680698395,0.5328373312950134
1772649828267939300,7.869939208984375,0.03456506133079529,0.18851029872894287,0.5948394536972046
1772649828277980400,7.87998046875,0.226597860455513,0.14211015403270721,0.49886560440063477
1772649828288021200,7.890021240234375,0.3606025278568268,0.008965940214693546,0.3967219293117523
1772649828298062300,7.900062255859375,0.4245777428150177,-0.07882759720087051,0.3284268379211426
1772649828308103400,7.910103515625,0.42752692103385925,-0.12321875989437103,0.2699472904205322
1772649828318145300,7.920145263671875,0.38143134117126465,-0.1472090482711792,0.20982082188129425
1772649828328186400,7.930186279296875,0.29768022894859314,-0.1439882218837738,0.12748253345489502
1772649828338227200,7.940227294921875,0.19946104288101196,-0.1426835060119629,0.018535220995545387
1772649828348268300,7.950268310546875,0.10375449806451797,-0.18783579766750336,-0.11656854301691055
1772649828358309400,7.960309326171875,0.00782827939838171,-0.2911161780357361,-0.24487602710723877
1772649828368350200,7.97035009765625,-0.10935400426387787,-0.4035031795501709,-0.37467050552368164
1772649828378391300,7.980391357421875,-0.20057667791843414,-0.5111429691314697,-0.5035576820373535
1772649828388432400,7.990432373046875,-0.23850995302200317,-0.5575072765350342,-0.6085376143455505
1772649828398473200,8.00047314453125,-0.24781915545463562,-0.5939452648162842,-0.6021969318389893
1772649828408514300,8.010514404296876,-0.23763816058635712,-0.5563840270042419,-0.44518494606018066
1772649828418555100,8.02055517578125,-0.19115714728832245,-0.3344306945800781,-0.27619361877441406
1772649828428596200,8.03059619140625,-0.20402128994464874,-0.07017693668603897,-0.20950862765312195
1772649828438637300,8.04063720703125,-0.4003809690475464,0.25571244955062866,-0.20409810543060303
1772649828448678400,8.050678466796874,-0.4997387230396271,0.5788476467132568,-0.03032737784087658
1772649828458720500,8.060720458984376,-0.26307958364486694,0.9501819610595703,0.3237643539905548
1772649828468761300,8.07076123046875,0.13761590421199799,1.0094419717788696,0.5167399048805237
1772649828478802400,8.080802490234374,0.368890643119812,0.6797399520874023,0.48421332240104675
1772649828488843500,8.090843505859375,0.3179211914539337,0.2696286141872406,0.36521875858306885
1772649828498884400,8.10088427734375,0.3623565435409546,0.07091376930475235,0.21154509484767914
1772649828508925400,8.110925537109376,0.4638653099536896,-0.05589477717876434,0.12384853512048721
1772649828518966500,8.120966552734375,0.3273638188838959,-0.3469521701335907,0.02269628457725048
1772649828529007400,8.13100732421875,0.0500754788517952,-0.6700609922409058,-0.11366848647594452
1772649828539048400,8.14104833984375,-0.21019724011421204,-0.7307810187339783,-0.3574226200580597
1772649828549089500,8.151089599609374,-0.25059765577316284,-0.3994060158729553,-0.34380242228507996
1772649828559130400,8.16113037109375,-0.12746235728263855,-0.010277139022946358,-0.11731686443090439
1772649828569171500,8.17117138671875,-0.03237605839967728,0.1700444370508194,0.013989487662911415
1772649828579212500,8.181212646484376,0.015370110981166363,0.15778836607933044,0.022261906415224075
1772649828589253400,8.19125341796875,0.0519811175763607,0.1461610049009323,0.0017622257582843304
1772649828599294500,8.20129443359375,0.04719306901097298,0.23487722873687744,0.022252744063735008
1772649828609336600,8.211336669921875,0.014494244009256363,0.35287708044052124,0.08090513944625854
1772649828619377700,8.221377685546875,0.014989111572504044,0.4181269705295563,0.130872905254364
1772649828629418500,8.23141845703125,0.05456608533859253,0.45268601179122925,0.18354569375514984
1772649828639459600,8.24145947265625,0.14421701431274414,0.4852195084095001,0.23135150969028473
1772649828649500700,8.251500732421874,0.28330352902412415,0.4245625436306,0.25413432717323303
1772649828659541500,8.26154150390625,0.4261590242385864,0.28022125363349915,0.2554417848587036
1772649828669582600,8.27158251953125,0.5253654718399048,0.153504878282547,0.21773914992809296
1772649828679623700,8.281623779296876,0.5759444832801819,0.05937552452087402,0.16119208931922913
1772649828689664500,8.29166455078125,0.5735803842544556,0.01596945896744728,0.11175157874822617
1772649828699705600,8.30170556640625,0.5379093289375305,-0.004906956106424332,0.06464270502328873
1772649828709746700,8.31174658203125,0.41913896799087524,-0.0889134407043457,-0.04980291426181793
1772649828719787500,8.32178759765625,0.19664917886257172,-0.25742629170417786,-0.2551414370536804
1772649828729828600,8.33182861328125,-0.07615038752555847,-0.39533141255378723,-0.4458637237548828
1772649828739869700,8.34186962890625,-0.35170722007751465,-0.44829514622688293,-0.5784843564033508
1772649828749910500,8.35191064453125,-0.5846323370933533,-0.46569570899009705,-0.659468948841095
1772649828759952600,8.36195263671875,-0.7116498947143555,-0.49517661333084106,-0.6953700184822083
1772649828769993500,8.371993408203124,-0.7353222370147705,-0.5205099582672119,-0.6845128536224365
1772649828780034600,8.38203466796875,-0.6983206272125244,-0.531309187412262,-0.6067178845405579
1772649828790075600,8.39207568359375,-0.6055046319961548,-0.5257407426834106,-0.45294302701950073
1772649828800116500,8.402116455078126,-0.4385111629962921,-0.49664396047592163,-0.27979612350463867
1772649828810157600,8.412157470703125,-0.23098431527614594,-0.4497893750667572,-0.145676389336586
1772649828820198700,8.42219873046875,-0.04881594702601433,-0.4205062687397003,-0.0537169948220253
1772649828830239500,8.432239501953125,0.11029807478189468,-0.4193249046802521,0.019520998001098633
1772649828840280600,8.442280517578125,0.24342212080955505,-0.45474207401275635,0.0670822486281395
1772649828850321400,8.4523212890625,0.3051097095012665,-0.5148602724075317,0.0931956097483635
1772649828860362500,8.462362548828125,0.3052765727043152,-0.5391168594360352,0.12117884308099747
1772649828870403600,8.472403564453124,0.2718070149421692,-0.5161598920822144,0.1512105017900467
1772649828880444400,8.4824443359375,0.2274295687675476,-0.45583727955818176,0.1868518441915512
1772649828890485500,8.492485595703124,0.18655936419963837,-0.38684597611427307,0.235322967171669
1772649828900527400,8.50252734375,0.1559833437204361,-0.33633819222450256,0.288890540599823
1772649828910568400,8.512568359375,0.10490391403436661,-0.3008829951286316,0.30075517296791077
1772649828920609500,8.522609619140624,0.03925011679530144,-0.33281755447387695,0.2469232678413391
1772649828930650400,8.532650390625,0.002966412575915456,-0.41542643308639526,0.17460326850414276
1772649828940691500,8.54269140625,0.0040381415747106075,-0.4521730840206146,0.09825590252876282
1772649828950732500,8.552732666015626,-0.0017827297560870647,-0.48957717418670654,0.022656479850411415
1772649828960773400,8.5627734375,-0.03421559929847717,-0.5142645239830017,-0.14385639131069183
1772649828970814500,8.572814453125,-0.0631662905216217,-0.5737238526344299,-0.4832096993923187
1772649828980855600,8.58285546875,-0.12364941835403442,-0.6658877730369568,-0.9384911060333252
1772649828990896400,8.592896484375,-0.20656746625900269,-0.6881507039070129,-1.0679682493209839
1772649829000937500,8.6029375,-0.1954786479473114,-0.10693641006946564,-0.3759830594062805
1772649829010978600,8.612978515625,0.06387490034103394,0.6843073964118958,0.17801064252853394
1772649829021019400,8.623019287109376,0.3149758279323578,0.974044144153595,0.2510640621185303
1772649829031060500,8.633060546875,0.5648102164268494,0.5686591267585754,0.3127383589744568
1772649829041101600,8.6431015625,0.6616689562797546,0.1806728094816208,0.37144672870635986
1772649829051143700,8.653143798828125,0.7043434381484985,0.21868011355400085,0.34231308102607727
1772649829061184800,8.663184814453125,0.6909207701683044,0.39186710119247437,0.2786526381969452
1772649829071225600,8.6732255859375,0.4862312972545624,0.3913317918777466,0.1083109900355339
1772649829081266700,8.6832666015625,0.15120439231395721,0.2485039234161377,-0.12542743980884552
1772649829091307500,8.6933076171875,-0.12825627624988556,0.12741504609584808,-0.2301751673221588
1772649829101348600,8.7033486328125,-0.2912261188030243,0.055085599422454834,-0.13987776637077332
1772649829111389700,8.7133896484375,-0.301184743642807,0.02425152249634266,0.016651112586259842
1772649829121430500,8.723430419921876,-0.19133691489696503,0.002135341754183173,0.11668387800455093
1772649829131471600,8.7334716796875,-0.027234533801674843,0.0008149465429596603,0.18575455248355865
1772649829141512700,8.7435126953125,0.10183116793632507,0.02611788548529148,0.24103252589702606
1772649829151553500,8.753553466796875,0.14600369334220886,0.08752798289060593,0.32177823781967163
1772649829161594600,8.7635947265625,0.13954220712184906,0.21217884123325348,0.4263334274291992
1772649829171635700,8.7736357421875,0.13590672612190247,0.36788880825042725,0.5076714158058167
1772649829181676500,8.783676513671875,0.1976960301399231,0.47505345940589905,0.5914206504821777
1772649829191717600,8.793717529296876,0.32357701659202576,0.5301929116249084,0.6970384120941162
1772649829201759500,8.803759521484375,0.5040328502655029,0.5027639865875244,0.7861825823783875
1772649829211800600,8.813800537109374,0.6768940687179565,0.4564385712146759,0.8715733885765076
1772649829221841700,8.823841552734375,0.7862899899482727,0.45860740542411804,0.9351414442062378
1772649829231882500,8.833882568359375,0.8446148037910461,0.39696189761161804,0.9213683605194092
1772649829241923600,8.843923583984376,0.8709893822669983,0.32157838344573975,0.8759251236915588
1772649829251964700,8.853964599609375,0.8424011468887329,0.27418848872184753,0.8315382599830627
1772649829262005500,8.864005615234374,0.7282872796058655,0.19471387565135956,0.7302212715148926
1772649829272046600,8.874046630859375,0.5445403456687927,0.09064394235610962,0.5304506421089172
1772649829282087700,8.884087646484375,0.3159371018409729,-0.05453416705131531,0.270561546087265
1772649829292128500,8.89412841796875,0.027698660269379616,-0.21159568428993225,0.008112344890832901
1772649829302169600,8.904169677734375,-0.24616739153862,-0.3542732298374176,-0.24688419699668884
1772649829312210400,8.91421044921875,-0.43813416361808777,-0.4776979684829712,-0.43139171600341797
1772649829322251500,8.92425146484375,-0.5743193626403809,-0.647554874420166,-0.5131518840789795
1772649829332292600,8.934292724609374,-0.6633450984954834,-0.7921367883682251,-0.4799708127975464
1772649829342333400,8.94433349609375,-0.5854032039642334,-0.8096213936805725,-0.3019219934940338
1772649829352375600,8.95437548828125,-0.3382378816604614,-0.713798999786377,0.012128078378736973
1772649829362416400,8.96441650390625,-0.03708450123667717,-0.5237220525741577,0.39884766936302185
1772649829372457500,8.97445751953125,0.23452889919281006,-0.29938989877700806,0.6708935499191284
1772649829382498600,8.98449853515625,0.4747031629085541,-0.19736243784427643,0.7361271381378174
1772649829392539400,8.994539306640625,0.601830244064331,-0.18626530468463898,0.6818327307701111
1772649829402580500,9.00458056640625,0.6322057843208313,-0.1739400178194046,0.5903328061103821
1772649829412621600,9.01462158203125,0.5894261002540588,-0.18659669160842896,0.4771362245082855
1772649829422662400,9.024662353515625,0.48296958208084106,-0.23513327538967133,0.33127638697624207
1772649829432703500,9.034703369140624,0.33650079369544983,-0.3089151084423065,0.1670275181531906
1772649829442745000,9.0447451171875,0.18785052001476288,-0.38470834493637085,0.024805570021271706
1772649829452786000,9.054785888671875,0.059224631637334824,-0.43652892112731934,-0.0693342387676239
1772649829462827000,9.064826904296876,-0.058170001953840256,-0.4952338933944702,-0.09740161150693893
1772649829472867800,9.074867919921875,-0.18683449923992157,-0.5419608950614929,-0.11175844073295593
1772649829482909000,9.084908935546874,-0.22418172657489777,-0.514861524105072,-0.03234202414751053
1772649829492950000,9.094949951171875,-0.2573700547218323,-0.4762674868106842,0.060640912503004074
1772649829502990800,9.104990966796874,-0.271856427192688,-0.4492894113063812,-0.03946169093251228
1772649829513033000,9.115032958984376,-0.1935959905385971,-0.41167303919792175,-0.20096004009246826
1772649829523073800,9.12507373046875,-0.09909966588020325,-0.3397977650165558,-0.13438378274440765
1772649829533115000,9.135114990234374,-0.0851937010884285,-0.31701523065567017,-0.6429234147071838
1772649829543156000,9.145156005859375,-0.17404457926750183,-0.6323466300964355,-0.913734495639801
1772649829553196800,9.15519677734375,-0.435059130191803,0.0669131651520729,-0.0718727633357048
1772649829563238000,9.16523779296875,-0.03239786997437477,0.8616434335708618,0.9673039317131042
1772649829573279000,9.175279052734375,0.6977338194847107,0.7660140991210938,1.5493323802947998
1772649829583319800,9.18531982421875,0.7738783359527588,0.19860799610614777,1.6218388080596924
1772649829593361000,9.19536083984375,0.49711015820503235,-0.3166468143463135,1.3937156200408936
1772649829603402000,9.205402099609374,0.438329815864563,-0.2656521797180176,1.1674985885620117
1772649829613442800,9.21544287109375,0.40831172466278076,0.11135927587747574,0.8873404264450073
1772649829623484000,9.22548388671875,0.26263129711151123,0.30089133977890015,0.5224560499191284
1772649829633525000,9.23552490234375,0.018243134021759033,0.11802218109369278,0.19221238791942596
1772649829643565800,9.24556591796875,-0.10277692973613739,-0.15642911195755005,-0.0188121497631073
1772649829653607000,9.25560693359375,-0.0684911236166954,-0.35139650106430054,-0.025336096063256264
1772649829663648800,9.265648681640625,0.022807903587818146,-0.30215632915496826,0.04479275271296501
1772649829673689900,9.27568994140625,0.19387392699718475,-0.17232908308506012,0.17079275846481323
1772649829683731000,9.28573095703125,0.29129213094711304,-0.13515400886535645,0.3760650157928467
1772649829693771800,9.295771728515625,0.30983731150627136,-0.14416640996932983,0.6376606822013855
1772649829703812900,9.305812744140624,0.2590436041355133,-0.13831818103790283,0.7424322962760925
1772649829713854000,9.31585400390625,0.18843573331832886,-0.07341746985912323,0.6111016869544983
1772649829723894800,9.325894775390625,0.07918347418308258,0.011312942951917648,0.40005069971084595
1772649829733935900,9.335935791015626,-0.019601428881287575,0.01787523925304413,0.2782459855079651
1772649829743976700,9.345976806640625,-0.08211290836334229,-0.07389866560697556,0.2734598219394684
1772649829754017800,9.356017822265626,-0.09858349710702896,-0.26028263568878174,0.31641024351119995
1772649829764059000,9.366058837890625,-0.07600177079439163,-0.43388256430625916,0.36055541038513184
1772649829774099700,9.376099609375,-0.031448423862457275,-0.5107608437538147,0.3664087653160095
1772649829784140800,9.386140869140625,0.024161597713828087,-0.5219358205795288,0.3273286521434784
1772649829794182000,9.396181884765625,0.044365137815475464,-0.49744805693626404,0.22976696491241455
1772649829804222700,9.40622265625,0.042793095111846924,-0.4521298408508301,0.14918287098407745
1772649829814263800,9.416263916015625,0.023992246016860008,-0.3926771581172943,0.11451677232980728
1772649829824306000,9.426305908203124,-0.0034524020738899708,-0.31849026679992676,0.09826239943504333
1772649829834347000,9.436346923828125,-0.03080226480960846,-0.22945652902126312,0.0799100250005722
1772649829844388000,9.44638818359375,-0.051234617829322815,-0.1358223557472229,0.03374343737959862
1772649829854429000,9.456428955078126,-0.05455318093299866,-0.06079099699854851,-0.04301392287015915
1772649829864470000,9.466469970703125,-0.04634418338537216,-0.00908072292804718,-0.12063989043235779
1772649829874511000,9.476510986328124,-0.027234403416514397,0.02443968690931797,-0.1960587352514267
1772649829884552000,9.486552001953125,-0.020005932077765465,0.04303346574306488,-0.26473286747932434
1772649829894593000,9.496593017578125,-0.0092334458604455,0.05706912651658058,-0.2996557056903839
1772649829904634000,9.506634033203126,0.011518986895680428,0.052848853170871735,-0.27805784344673157
1772649829914675000,9.516675048828125,0.034186214208602905,0.036107420921325684,-0.2061024308204651
1772649829924716000,9.526716064453124,0.06317871809005737,0.016640249639749527,-0.10439417511224747
1772649829934757000,9.536757080078125,0.10163529962301254,0.007386562880128622,-0.0287870354950428
1772649829944798000,9.5467978515625,0.13750730454921722,-0.008702121675014496,0.030480079352855682
1772649829954839000,9.556839111328125,0.16570140421390533,-0.02082989178597927,0.06225132569670677
1772649829964880000,9.5668798828125,0.17131324112415314,-0.03734052926301956,0.07174062728881836
1772649829974921000,9.5769208984375,0.1526591181755066,-0.05117778107523918,0.0485982820391655
1772649829984962800,9.586962890625,0.11235159635543823,-0.07085272669792175,-0.009092380292713642
1772649829995004000,9.59700390625,0.0537700429558754,-0.09989795833826065,0.06901679933071136
1772649830005045000,9.607044921875,-0.021412352100014687,-0.14671289920806885,0.21288850903511047
1772649830015085800,9.6170859375,0.0003912134561687708,-0.13717398047447205,0.154923215508461
1772649830025127000,9.627126953125,0.019745130091905594,-0.10077383369207382,0.07757744193077087
1772649830035168000,9.63716796875,0.05695082247257233,-0.0699424147605896,0.03655996546149254
1772649830045208800,9.647208740234374,0.0656086653470993,-0.06153971329331398,-0.0016396648716181517
1772649830055250000,9.65725,0.03910035640001297,-0.06376291811466217,-0.017719032242894173
1772649830065291000,9.667291015625,0.023074645549058914,-0.07167518883943558,-0.03704605996608734
1772649830075331800,9.677331787109376,0.00993061438202858,-0.06293762475252151,-0.07484670728445053
1772649830085373000,9.687373046875,-0.016532782465219498,-0.0552130863070488,-0.09307480603456497
1772649830095414000,9.6974140625,-0.004439902026206255,-0.0476214773952961,-0.04521380737423897
1772649830105454800,9.707454833984375,0.019877344369888306,-0.05184052139520645,0.018056338652968407
1772649830115496000,9.717495849609374,0.020417699590325356,-0.040904249995946884,0.02860884740948677
1772649830125537800,9.727537841796876,0.014888719655573368,-0.01661250926554203,-0.00017050723545253277
1772649830135579000,9.737578857421875,-0.002813311293721199,0.0157100111246109,-0.03041975572705269
1772649830145620000,9.747619873046874,-0.0278677549213171,0.04780195653438568,-0.04132742062211037
1772649830155660800,9.757660888671875,-0.038735851645469666,0.07613693177700043,-0.02311246655881405
1772649830165702000,9.767701904296874,-0.035050131380558014,0.11670928448438644,-0.008100273087620735
1772649830175743000,9.777742919921875,-0.027055852115154266,0.1470530778169632,-0.0012881739530712366
1772649830185783800,9.78778369140625,-0.028569787740707397,0.16627757251262665,-0.004589303396642208
1772649830195825000,9.797824951171876,-0.040937237441539764,0.16308577358722687,-0.008788575418293476
1772649830205866000,9.807865966796875,-0.054314348846673965,0.14657919108867645,-0.004152216017246246
1772649830215906800,9.81790673828125,-0.06218558922410011,0.11714567244052887,0.0017600014107301831
1772649830225948000,9.827947998046875,-0.058401696383953094,0.09035767614841461,0.025181295350193977
1772649830235988700,9.83798876953125,-0.04700017347931862,0.06145837903022766,0.041426315903663635
1772649830246029800,9.84802978515625,-0.04051641747355461,0.03387751802802086,0.04066803306341171
1772649830256071000,9.85807080078125,-0.04001174867153168,0.009474439546465874,0.02692585438489914
1772649830266111700,9.86811181640625,-0.0423031747341156,0.001227102940902114,0.017060332000255585
1772649830276152800,9.87815283203125,-0.05426130071282387,0.0013506736140698195,-0.00908019207417965
1772649830286194700,9.888194580078125,-0.06905782222747803,-0.0011273978743702173,-0.029829148203134537
1772649830296235800,9.89823583984375,-0.07990061491727829,-0.003310923697426915,-0.028323661535978317
1772649830306276900,9.90827685546875,-0.08440494537353516,-0.0017124754376709461,-0.014771963469684124
1772649830316317700,9.918317626953124,-0.07658883184194565,0.002017814200371504,-0.004645293112844229
1772649830326358800,9.92835888671875,-0.06634491682052612,0.010889806784689426,-0.002368696965277195
1772649830336400000,9.93839990234375,-0.046127792447805405,0.027094077318906784,0.0031744062434881926
1772649830346440700,9.948440673828125,-0.030192935839295387,0.04792901128530502,-0.0004543229006230831
1772649830356482000,9.95848193359375,-0.06778452545404434,0.007961887866258621,0.20079649984836578
1772649830366523100,9.968523193359376,-0.02294638194143772,0.032309673726558685,0.04498963803052902
1772649830376564000,9.97856396484375,0.009117546491324902,0.07454101741313934,-0.19626371562480927
1772649830386605000,9.98860498046875,-0.0026810774579644203,0.07149206846952438,-0.14742687344551086
