time,seconds_elapsed,z,y,x
1772648224464741600,0.45074169921875,-0.039148688316345215,-0.03326129913330078,0.2402215600013733
1772648224484750000,0.47075,-0.08988773822784424,0.022704124450683594,0.2979468107223511
1772648224504758500,0.490758544921875,-0.09122288227081299,0.11012077331542969,0.34960269927978516
1772648224524766700,0.5107666015625,0.030674219131469727,0.1664257049560547,0.3047211766242981
1772648224544775200,0.530775146484375,0.0682297945022583,0.23674964904785156,0.13536357879638672
1772648224564784000,0.5507841796875,0.04535853862762451,0.42671680450439453,0.034775495529174805
1772648224584793300,0.57079345703125,0.07845902442932129,0.616943359375,0.08541673421859741
1772648224604802600,0.590802490234375,0.1833251714706421,0.5873708724975586,0.2703147530555725
1772648224624812000,0.61081201171875,0.26455235481262207,0.2926950454711914,0.3758155107498169
1772648224644821200,0.6308212890625,0.43956828117370605,-0.2032451629638672,0.4679141044616699
1772648224664830500,0.65083056640625,0.7197939157485962,-0.8576669692993164,0.4658798575401306
1772648224684839700,0.670839599609375,0.8665932416915894,-1.270162582397461,0.45727941393852234
1772648224704849200,0.69084912109375,0.9040566682815552,-1.3235893249511719,0.518235445022583
1772648224724858400,0.7108583984375,1.0057520866394043,-1.0446405410766602,0.6382442712783813
1772648224744867800,0.730867919921875,0.9721838235855103,-0.6393280029296875,0.4298509359359741
1772648224764877000,0.750876953125,0.5706191062927246,-0.6957502365112305,0.49619269371032715
1772648224784886300,0.77088623046875,0.509413480758667,-0.5926132202148438,0.4460579752922058
1772648224804895500,0.7908955078125,0.47341251373291016,-0.67169189453125,0.5294525623321533
1772648224824905000,0.810905029296875,0.4147005081176758,-0.19311046600341797,0.4813325107097626
1772648224844914200,0.8309140625,0.40427374839782715,0.8284931182861328,0.3048679828643799
1772648224864923400,0.85092333984375,0.23717021942138672,1.604358196258545,0.1225714385509491
1772648224884932900,0.870932861328125,0.07507872581481934,1.8997817039489746,0.10544916987419128
1772648224904942000,0.890942138671875,0.15070676803588867,1.5685105323791504,0.29272857308387756
1772648224924951300,0.910951416015625,0.2343454360961914,1.0032939910888672,0.5247385501861572
1772648224944960800,0.930960693359375,0.4404013156890869,0.6582756042480469,0.7230772972106934
1772648224964970000,0.950969970703125,0.520857572555542,0.5470399856567383,0.8336068987846375
1772648224984979200,0.970979248046875,0.43561601638793945,0.7928829193115234,0.946671187877655
1772648225004988700,0.99098876953125,0.3512556552886963,1.0136384963989258,1.0069489479064941
1772648225024998000,1.010997802734375,0.32955408096313477,0.884861946105957,1.023782730102539
1772648225045007000,1.031007080078125,0.48460865020751953,0.3632221221923828,1.0094208717346191
1772648225065017300,1.051017333984375,0.9671759605407715,0.015473365783691406,0.8774680495262146
1772648225085028600,1.071028564453125,1.4334003925323486,-0.23186397552490234,0.6129269003868103
1772648225105039600,1.09103955078125,1.5863535404205322,-0.3344764709472656,0.2670748829841614
1772648225125050600,1.111050537109375,1.3883800506591797,-0.4151582717895508,0.17779159545898438
1772648225145062000,1.131061767578125,1.1935415267944336,-0.16552734375,0.28091520071029663
1772648225165073000,1.151072998046875,1.147456407546997,0.15974807739257812,0.5813602209091187
1772648225185084000,1.171083984375,1.45243501663208,0.3677206039428711,1.2125619649887085
1772648225205095200,1.19109521484375,2.0245542526245117,0.16062164306640625,1.4791351556777954
1772648225225106200,1.211106201171875,2.3595759868621826,-0.689661979675293,1.437450885772705
1772648225245116400,1.231116455078125,1.6412532329559326,-3.574570655822754,1.0377546548843384
1772648225265125400,1.25112548828125,1.298335075378418,-5.073174476623535,-0.45544445514678955
1772648225285134300,1.27113427734375,-0.23305106163024902,-3.8847169876098633,-1.645329236984253
1772648225305143300,1.291143310546875,-0.0839545726776123,-0.0759897232055664,-1.9805216789245605
1772648225325152300,1.31115234375,0.6644206047058105,3.552858829498291,-1.2933576107025146
1772648225345161200,1.3311611328125,0.01021575927734375,2.521249294281006,-0.6889092326164246
1772648225365170200,1.351170166015625,-0.16496801376342773,1.61643648147583,-0.20596608519554138
1772648225385179000,1.371178955078125,-0.37578046321868896,0.8449487686157227,-0.05342525243759155
1772648225405187800,1.391187744140625,-1.0890012979507446,-0.40895748138427734,-0.5542296767234802
1772648225425196800,1.41119677734375,-1.6943213939666748,-0.22243022918701172,-1.1853225231170654
1772648225445205800,1.431205810546875,-2.4161226749420166,0.9636011123657227,-1.521114706993103
1772648225465214700,1.451214599609375,-2.459235429763794,0.7071990966796875,-1.6235666275024414
1772648225485223700,1.4712236328125,-2.047438621520996,-0.10715007781982422,-1.072778344154358
1772648225505232600,1.491232666015625,-0.8890773057937622,-0.32286643981933594,-0.10892963409423828
1772648225525241600,1.51124169921875,0.020619988441467285,-0.9607753753662109,0.5987445116043091
1772648225545250600,1.53125048828125,0.07884800434112549,-0.6888742446899414,0.6222777366638184
1772648225565260800,1.5512607421875,-0.06169140338897705,-0.16756153106689453,0.28099387884140015
1772648225585272600,1.5712724609375,-0.3028078079223633,0.12162399291992188,0.288671612739563
1772648225605284400,1.591284423828125,-0.40457308292388916,0.44055747985839844,0.12360519170761108
1772648225625296100,1.611296142578125,-0.23851561546325684,0.5586996078491211,0.04551512002944946
1772648225645308000,1.631307861328125,0.04297029972076416,0.6530008316040039,0.15251153707504272
1772648225665319700,1.651319580078125,0.2793309688568115,0.6362209320068359,0.35012203454971313
1772648225685331200,1.671331298828125,0.17068898677825928,0.600677490234375,0.1724468469619751
1772648225705343000,1.691343017578125,-0.05004680156707764,0.6695222854614258,-0.07390886545181274
1772648225725354800,1.711354736328125,-0.2523614168167114,0.6517934799194336,-0.006542325019836426
1772648225745366500,1.731366455078125,0.03134167194366455,0.20050907135009766,0.6831000447273254
1772648225765378300,1.75137841796875,0.5904860496520996,-0.2023334503173828,1.3118343353271484
1772648225785390000,1.77139013671875,0.7499399185180664,-0.44122314453125,1.5939886569976807
1772648225805401600,1.791401611328125,0.5142141580581665,-0.3862314224243164,1.4693652391433716
1772648225825413400,1.811413330078125,0.3755796551704407,-0.27210330963134766,1.2350780963897705
1772648225845425200,1.831425048828125,0.042328715324401855,-0.1671600341796875,1.3937771320343018
1772648225865437000,1.85143701171875,-0.5015257596969604,-0.015097618103027344,1.7107887268066406
1772648225885448700,1.87144873046875,-0.7479996681213379,-0.06368541717529297,2.269897222518921
1772648225905460500,1.89146044921875,-0.22433686256408691,-0.1232442855834961,2.4671554565429688
1772648225925472300,1.91147216796875,0.3634553551673889,-1.1174297332763672,2.0181617736816406
1772648225945483800,1.93148388671875,-0.02991706132888794,-2.481600761413574,1.3780624866485596
1772648225965495600,1.95149560546875,-0.039141178131103516,-3.7266225814819336,0.6027906537055969
1772648225985507300,1.97150732421875,-0.16596847772598267,-4.132770538330078,-0.6014329195022583
1772648226005519000,1.99151904296875,1.085250735282898,-3.5694684982299805,-2.0295445919036865
1772648226025531000,2.01153076171875,0.8336657881736755,-1.727273941040039,-3.104398488998413
1772648226045542700,2.031542724609375,0.21783697605133057,0.7678747177124023,-3.1741273403167725
1772648226065553200,2.05155322265625,0.9806170463562012,2.2759079933166504,-2.3735203742980957
1772648226085563000,2.07156298828125,1.0115702152252197,1.808769702911377,-2.5161657333374023
1772648226105572600,2.091572509765625,-0.09877967834472656,0.5512065887451172,-2.727292776107788
1772648226125582600,2.11158251953125,-0.7511589527130127,-1.2640104293823242,-1.5265787839889526
1772648226145592300,2.13159228515625,0.47690367698669434,-2.3059921264648438,-0.28408461809158325
1772648226165602000,2.15160205078125,0.4733628034591675,-1.8452577590942383,0.12622171640396118
1772648226185611800,2.17161181640625,0.2026740312576294,-0.44353294372558594,0.2760065495967865
1772648226205621500,2.19162158203125,0.7450535297393799,0.6878385543823242,-0.00449574738740921
1772648226225631500,2.211631591796875,0.9711552858352661,1.3166770935058594,-0.6191713809967041
1772648226245641200,2.23164111328125,0.5900205373764038,1.589707374572754,-1.0672938823699951
1772648226265651000,2.25165087890625,0.30040526390075684,1.7417168617248535,-0.9788673520088196
1772648226285660700,2.27166064453125,0.3728436231613159,1.9588818550109863,-0.7076420783996582
1772648226305670400,2.29167041015625,0.07001960277557373,2.3229126930236816,-0.27380281686782837
1772648226325680400,2.311680419921875,-0.46162843704223633,2.7966227531433105,0.19255274534225464
1772648226345690000,2.331690185546875,-0.6617121696472168,2.2685160636901855,0.7158911228179932
1772648226365699800,2.351699951171875,-0.23820507526397705,1.9259896278381348,0.8681718111038208
1772648226385709600,2.37170947265625,0.2547581195831299,1.4744539260864258,0.6138564348220825
1772648226405719300,2.39171923828125,0.44187653064727783,0.9778566360473633,0.46879756450653076
1772648226425729300,2.411729248046875,0.8734054565429688,0.9277029037475586,0.48530900478363037
1772648226445739000,2.431739013671875,1.2422246932983398,0.25193119049072266,0.6496534943580627
1772648226465748700,2.451748779296875,1.36033034324646,-0.8282070159912109,0.9964652061462402
1772648226485758500,2.471758544921875,1.23691725730896,-1.7464733123779297,0.6604766249656677
1772648226505768200,2.491768310546875,1.558208703994751,-2.0286998748779297,0.283666729927063
1772648226525778000,2.51177783203125,1.7818124294281006,-2.5459890365600586,0.1840735822916031
1772648226545788000,2.531787841796875,2.3487672805786133,-1.3607406616210938,0.19361387193202972
1772648226565797400,2.55179736328125,2.9566593170166016,-0.7593879699707031,-0.18995225429534912
1772648226585806800,2.571806884765625,2.623563528060913,-2.842245101928711,-0.12967319786548615
1772648226605816300,2.59181640625,2.1193294525146484,-4.904626846313477,-1.1140615940093994
1772648226625825500,2.611825439453125,-0.7774642705917358,-4.561692237854004,-1.7722817659378052
1772648226645835000,2.6318349609375,-2.1607789993286133,-0.7285366058349609,-1.762054681777954
1772648226665844500,2.651844482421875,0.07473599910736084,4.866546630859375,-2.061983346939087
1772648226685853700,2.671853759765625,-0.02175271511077881,3.482895851135254,-1.6032582521438599
1772648226705863200,2.69186328125,-0.008009910583496094,1.5086565017700195,-1.5801893472671509
1772648226725872600,2.71187255859375,-1.0621557235717773,0.772735595703125,-1.7638942003250122
1772648226745882000,2.731882080078125,-2.1247010231018066,0.537266731262207,-2.2895524501800537
1772648226765891300,2.751891357421875,-2.6464624404907227,-0.022795677185058594,-1.6669983863830566
1772648226785900800,2.77190087890625,-2.9442334175109863,-0.17439556121826172,-1.1185146570205688
1772648226805910300,2.79191015625,-1.7724871635437012,0.6613311767578125,-1.4033021926879883
1772648226825919500,2.81191943359375,-0.4134272336959839,0.8381204605102539,-1.308319330215454
1772648226845929000,2.831928955078125,-0.13960909843444824,0.12128448486328125,-0.9109551310539246
1772648226865938400,2.8519384765625,-0.10310888290405273,-1.0650959014892578,-0.19586658477783203
1772648226885948000,2.871947998046875,-0.1944342851638794,-0.860539436340332,0.4990500211715698
1772648226905957000,2.89195703125,-0.020921826362609863,0.2773628234863281,0.4508485794067383
1772648226925966600,2.911966552734375,-0.19157981872558594,0.6361064910888672,0.23098289966583252
1772648226945976000,2.93197607421875,-0.39344894886016846,0.7055454254150391,0.1518586277961731
1772648226965985300,2.9519853515625,-0.9540016651153564,0.8363504409790039,-0.11189550161361694
1772648226985994800,2.971994873046875,-0.8091239929199219,0.5882349014282227,0.17904603481292725
1772648227006004200,2.992004150390625,-0.03539466857910156,-0.006367683410644531,0.742987871170044
1772648227026013700,3.012013671875,0.15769922733306885,-0.1821432113647461,0.8462415933609009
1772648227046023000,3.03202294921875,0.1963115930557251,-0.05924701690673828,0.7666561007499695
1772648227066032600,3.05203271484375,0.20958971977233887,0.146209716796875,0.642928421497345
1772648227086042600,3.072042724609375,0.3703380227088928,-0.05022716522216797,0.9022396206855774
1772648227106052600,3.092052490234375,0.6670910120010376,-0.18789291381835938,1.0353710651397705
1772648227126062600,3.1120625,0.9118273258209229,-0.184906005859375,0.8012803196907043
1772648227146072600,3.132072509765625,1.190575122833252,-0.2646188735961914,0.5293633341789246
1772648227166082600,3.15208251953125,0.6185644268989563,-0.4028749465942383,0.6199851632118225
1772648227186092500,3.172092529296875,0.21903300285339355,-0.4348173141479492,1.3783674240112305
1772648227206102500,3.1921025390625,0.016203224658966064,-0.4104471206665039,1.9963338375091553
1772648227226112500,3.212112548828125,0.0037332773208618164,-0.4856595993041992,2.2890384197235107
1772648227246122200,3.232122314453125,0.45926719903945923,-1.0231342315673828,2.2465531826019287
1772648227266132500,3.252132568359375,-0.1205519437789917,-1.5450639724731445,1.9832335710525513
1772648227286142200,3.27214208984375,-0.20521068572998047,-1.9598255157470703,2.244021415710449
1772648227306152200,3.292152099609375,0.36202871799468994,-2.430339813232422,1.7304060459136963
1772648227326162200,3.312162109375,0.3385556936264038,-2.528392791748047,-0.011327385902404785
1772648227346172200,3.332172119140625,0.33653491735458374,-1.9323310852050781,-2.0937323570251465
1772648227366182100,3.35218212890625,0.6245046257972717,-0.5831432342529297,-3.0849645137786865
1772648227386192100,3.372192138671875,0.6588749289512634,1.4688053131103516,-3.149240255355835
1772648227406202000,3.3922021484375,1.393043041229248,2.5698180198669434,-3.007573366165161
1772648227426212000,3.412212158203125,0.8108420372009277,1.3206405639648438,-3.531388521194458
1772648227446222000,3.43222216796875,-0.6234369277954102,-0.28814029693603516,-4.103785514831543
1772648227466232000,3.452232177734375,-1.213713526725769,-1.2352333068847656,-2.751180410385132
1772648227486242000,3.472241943359375,0.0389556884765625,-1.99322509765625,-0.4434848129749298
1772648227506251800,3.492251708984375,0.7479960918426514,-2.43472957611084,0.7880492806434631
1772648227526261800,3.51226171875,0.5554141998291016,-1.5708179473876953,0.6919214725494385
1772648227546271700,3.532271728515625,0.30152106285095215,-0.16294384002685547,-0.09209278225898743
1772648227566281700,3.55228173828125,0.41858232021331787,0.6043634414672852,-0.5005033016204834
1772648227586291200,3.572291259765625,0.49488651752471924,1.397812843322754,-0.7391852140426636
1772648227606301000,3.592301025390625,0.18744921684265137,2.3511996269226074,-0.7089564800262451
1772648227626310700,3.612310546875,0.16974866390228271,2.628535747528076,-0.33967849612236023
1772648227646320400,3.6323203125,0.24208307266235352,2.376011371612549,-0.07455019652843475
1772648227666330000,3.652330078125,0.056302428245544434,2.2616543769836426,-0.014083370566368103
1772648227686339800,3.67233984375,-0.356518030166626,2.0445542335510254,0.2278227061033249
1772648227706349600,3.692349609375,-0.24072813987731934,1.676363468170166,0.6348130702972412
1772648227726359300,3.712359375,0.07227981090545654,1.6898159980773926,0.7829387784004211
1772648227746369000,3.732369140625,0.30973541736602783,1.522841453552246,0.692846417427063
1772648227766378800,3.752378662109375,0.7682737112045288,1.2337255477905273,0.4513794183731079
1772648227786388500,3.772388427734375,1.0914733409881592,0.22918128967285156,0.468572735786438
1772648227806398200,3.792398193359375,1.7090562582015991,-1.2776050567626953,0.18190684914588928
1772648227826408000,3.812407958984375,1.5939702987670898,-2.54531192779541,-0.48774072527885437
1772648227846417400,3.83241748046875,2.1122593879699707,-2.2270469665527344,-0.18762612342834473
1772648227866427100,3.85242724609375,2.4514083862304688,-2.1662702560424805,0.9514217376708984
1772648227886436900,3.872436767578125,3.0103156566619873,-1.320180892944336,1.2611892223358154
1772648227906446600,3.892446533203125,2.085383176803589,-1.279256820678711,0.8524818420410156
1772648227926456300,3.912456298828125,2.4305286407470703,-5.754054069519043,-0.6224533319473267
1772648227946466000,3.932466064453125,-2.426427125930786,-8.575688362121582,-0.7292496562004089
1772648227966475800,3.952475830078125,-2.236729145050049,-1.5407400131225586,-1.6063991785049438
1772648227986485500,3.972485595703125,-0.05786001682281494,5.76961088180542,-2.27066969871521
1772648228006495200,3.9924951171875,-0.5386232137680054,4.416693687438965,-1.463375449180603
1772648228026505000,4.0125048828125,-0.4037224054336548,3.1110386848449707,-1.7557295560836792
1772648228046514700,4.0325146484375,-0.9009310007095337,2.481961727142334,-1.9109784364700317
1772648228066524000,4.05252392578125,-1.8258136510849,0.8272619247436523,-2.192152261734009
1772648228086533000,4.072533203125,-2.4094786643981934,-1.642557144165039,-1.3822376728057861
1772648228106542300,4.092542236328125,-2.7515311241149902,-1.0372419357299805,-0.8587810397148132
1772648228126551800,4.1125517578125,-1.6220026016235352,0.29189300537109375,-1.4055252075195312
1772648228146561000,4.13256103515625,-0.5005358457565308,1.0990266799926758,-1.4749691486358643
1772648228166570200,4.1525703125,-0.19466841220855713,0.6413736343383789,-0.9583305716514587
1772648228186579500,4.172579345703125,-0.4461190700531006,-0.8362302780151367,0.0008397102355957031
1772648228206588700,4.192588623046875,-0.2758944034576416,-0.6451292037963867,0.7239773273468018
1772648228226598000,4.212597900390625,-0.13839352130889893,0.2502470016479492,0.5423515439033508
1772648228246607000,4.232607177734375,-0.29915571212768555,0.44154930114746094,0.37894392013549805
1772648228266616300,4.2526162109375,-0.5442361831665039,0.8558807373046875,0.05913686752319336
1772648228286625500,4.27262548828125,-0.8300255537033081,1.072113037109375,-0.33942604064941406
1772648228306635000,4.292635009765625,-0.9239891171455383,0.9253950119018555,-0.33266788721084595
1772648228326644200,4.312644287109375,0.02109384536743164,0.4894075393676758,0.26155537366867065
1772648228346653400,4.3326533203125,0.07657170295715332,0.11057186126708984,0.4792187809944153
1772648228366662700,4.35266259765625,0.24507200717926025,-0.2609825134277344,0.5258869528770447
1772648228386671900,4.372671875,0.39795154333114624,-0.4543495178222656,0.5914759039878845
1772648228406681000,4.39268115234375,0.814511239528656,-0.4699687957763672,0.7870176434516907
1772648228426690300,4.412690185546875,1.076778531074524,-0.3698854446411133,1.041006326675415
1772648228446699500,4.432699462890625,0.6867929697036743,-0.05539989471435547,1.2504713535308838
1772648228466708700,4.452708740234375,0.6021460294723511,-0.11319255828857422,1.5842714309692383
1772648228486718200,4.47271826171875,0.24308240413665771,-0.38364219665527344,1.891228199005127
1772648228506727400,4.4927275390625,-0.08495616912841797,-0.49565792083740234,2.300936698913574
1772648228526736600,4.512736572265625,-0.09445267915725708,-0.7266130447387695,2.522587776184082
1772648228546745900,4.532745849609375,0.38669246435165405,-1.2539472579956055,2.433772325515747
1772648228566755600,4.552755615234375,-0.21475398540496826,-1.7494592666625977,2.4066128730773926
1772648228586765800,4.572765869140625,-0.9033037424087524,-2.4367971420288086,2.668057680130005
1772648228606776000,4.592776123046875,-0.5660712122917175,-2.8319625854492188,2.145085573196411
1772648228626786000,4.6127861328125,0.3366472125053406,-2.843979835510254,-0.48187255859375
1772648228646796300,4.63279638671875,0.9711436033248901,-2.125110626220703,-2.931905746459961
1772648228666806500,4.652806640625,0.6020546555519104,-0.33980369567871094,-3.9338326454162598
1772648228686816500,4.67281640625,0.8731691837310791,1.652174949645996,-3.776026725769043
1772648228706826800,4.69282666015625,1.211001992225647,2.234351634979248,-3.302651882171631
1772648228726837000,4.7128369140625,0.10317099094390869,0.9298076629638672,-3.5297532081604004
1772648228746847200,4.73284716796875,-1.276710033416748,-0.012757301330566406,-2.774979591369629
1772648228766857200,4.752857177734375,-0.8611584305763245,-1.0821399688720703,-0.9000639915466309
1772648228786867500,4.772867431640625,0.36903059482574463,-2.450632095336914,0.845112144947052
1772648228806877700,4.792877685546875,0.39286184310913086,-2.480502128601074,1.168208360671997
1772648228826888000,4.812887939453125,0.18776845932006836,-1.0382518768310547,0.5491942763328552
1772648228846898000,4.83289794921875,0.6913362741470337,0.5661373138427734,-0.4320783019065857
1772648228866908200,4.852908203125,0.8983458280563354,1.1431255340576172,-1.089399814605713
1772648228886918400,4.87291845703125,0.6562432050704956,1.554173469543457,-1.3930073976516724
1772648228906928400,4.892928466796875,0.3238312005996704,2.1225123405456543,-1.1353315114974976
1772648228926938600,4.912938720703125,0.05306541919708252,2.3247122764587402,-0.6934912204742432
1772648228946948900,4.932948974609375,-0.33929741382598877,2.551755428314209,-0.1902507245540619
1772648228966958800,4.952958740234375,-0.8458727598190308,2.742673397064209,0.3718460500240326
1772648228986969000,4.972968994140625,-1.0556474924087524,2.09092378616333,0.9091185927391052
1772648229006979300,4.992979248046875,-0.3922233581542969,1.7151904106140137,1.1613858938217163
1772648229026989600,5.012989501953125,0.3252640962600708,1.4367790222167969,0.8583588600158691
1772648229046999600,5.03299951171875,0.9617304801940918,1.2169609069824219,0.548914909362793
1772648229067009300,5.05300927734375,1.611116886138916,0.9310598373413086,0.3905540108680725
1772648229087018200,5.073018310546875,1.9990284442901611,-0.17641639709472656,0.6499626040458679
1772648229107027500,5.09302734375,1.3469945192337036,-1.6529598236083984,0.07040062546730042
1772648229127036700,5.11303662109375,0.9521445035934448,-2.232865333557129,-0.8550534248352051
1772648229147046000,5.1330458984375,1.5690733194351196,-2.047229766845703,-0.17596647143363953
1772648229167055000,5.15305517578125,2.4877982139587402,-1.1206626892089844,0.24615392088890076
1772648229187064000,5.17306396484375,3.353952407836914,-0.43500423431396484,1.0859301090240479
1772648229207073300,5.1930732421875,2.2630369663238525,-3.0897674560546875,0.9688905477523804
1772648229227082500,5.21308251953125,2.5515596866607666,-8.205525398254395,-1.341895341873169
1772648229247091700,5.233091796875,-4.199262619018555,-8.673175811767578,-0.9413873553276062
1772648229267101000,5.253100830078125,-0.5960937738418579,1.9923300743103027,-1.8123584985733032
1772648229287110000,5.27310986328125,0.061737060546875,6.749371528625488,-1.4957929849624634
1772648229307119000,5.293119140625,-1.1880704164505005,3.6708197593688965,-1.034343957901001
1772648229327128300,5.31312841796875,-0.8609374761581421,2.3683066368103027,-0.9211580753326416
1772648229347137500,5.333137451171875,-1.8676073551177979,0.6076574325561523,-1.3430609703063965
1772648229367146800,5.353146728515625,-2.5445237159729004,-0.9752836227416992,-1.9244998693466187
1772648229387156000,5.373156005859375,-2.9678306579589844,-0.8002433776855469,-1.2245488166809082
1772648229407165000,5.3931650390625,-2.853670120239258,0.4719705581665039,-1.199392557144165
1772648229427174100,5.413174072265625,-1.1984115839004517,1.3896474838256836,-1.7611738443374634
1772648229447183400,5.433183349609375,-0.34269702434539795,1.6893181800842285,-1.7452398538589478
1772648229467192600,5.453192626953125,-0.19254648685455322,0.21059226989746094,-0.7589460611343384
1772648229487201800,5.473201904296875,-0.05672919750213623,-1.174448013305664,-0.013320088386535645
1772648229507210800,5.493210693359375,0.0531313419342041,0.027029037475585938,0.6704780459403992
1772648229527220000,5.513219970703125,0.00013327598571777344,0.25377655029296875,0.6049081683158875
1772648229547229200,5.533229248046875,-0.5402728319168091,0.3662071228027344,0.4160228371620178
1772648229567239000,5.553239013671875,-0.9915248155593872,0.5899028778076172,0.21499228477478027
1772648229587249000,5.573248779296875,-0.8971978425979614,0.5674114227294922,-0.14170968532562256
1772648229607259100,5.593259033203125,0.07731044292449951,0.5310983657836914,0.20032531023025513
1772648229627269000,5.61326904296875,0.839076042175293,0.1725015640258789,0.8787239193916321
1772648229647279000,5.633279052734375,0.4369332790374756,-0.07896709442138672,0.9194092750549316
1772648229667289300,5.653289306640625,0.0535275936126709,0.11457443237304688,0.5794546008110046
1772648229687299300,5.67329931640625,0.0193098783493042,0.1454010009765625,0.26155292987823486
1772648229707309300,5.693309326171875,0.5648487210273743,-0.17946338653564453,0.1772465705871582
1772648229727319600,5.713319580078125,0.9991034269332886,-0.3928546905517578,0.38376688957214355
1772648229747329500,5.73332958984375,0.6153937578201294,-0.27977466583251953,0.8262457251548767
1772648229767339500,5.753339599609375,-0.12229597568511963,-0.2994422912597656,1.5777535438537598
1772648229787349800,5.773349853515625,-0.7471439242362976,-0.3749399185180664,2.3225491046905518
1772648229807359700,5.79335986328125,-0.17003875970840454,-0.6472225189208984,2.470458984375
1772648229827369700,5.81336962890625,0.9109417200088501,-1.2818994522094727,2.1547598838806152
1772648229847380000,5.8333798828125,0.2737662196159363,-1.7721986770629883,1.9492031335830688
1772648229867390000,5.853389892578125,-0.4433404803276062,-2.5272216796875,2.2217464447021484
1772648229887400000,5.87339990234375,-0.36406901478767395,-2.9004030227661133,1.6265878677368164
1772648229907410200,5.89341015625,0.4730442762374878,-2.889174461364746,-0.63409423828125
1772648229927420200,5.913420166015625,0.7546793222427368,-2.0237255096435547,-2.9259228706359863
1772648229947430100,5.93343017578125,0.6091738343238831,-0.18955707550048828,-3.8747401237487793
1772648229967440400,5.9534404296875,1.0695252418518066,1.8988184928894043,-3.771270513534546
1772648229987450400,5.973450439453125,0.9843447208404541,2.149034023284912,-3.718247652053833
1772648230007460400,5.99346044921875,-0.21295428276062012,0.6322917938232422,-4.1031494140625
1772648230027470600,6.013470703125,-1.7030236721038818,0.00115966796875,-3.3395755290985107
1772648230047480600,6.03348046875,-0.7335106134414673,-0.8420915603637695,-1.5508034229278564
1772648230067490300,6.053490234375,0.6849205493927002,-2.360492706298828,0.24756434559822083
1772648230087500000,6.0735,0.9770770072937012,-2.6390600204467773,0.9581339955329895
1772648230107509800,6.093509765625,0.4261326789855957,-1.2281055450439453,0.4890802502632141
1772648230127519500,6.11351953125,0.4246864318847656,0.4180784225463867,-0.15474334359169006
1772648230147529000,6.133529052734375,0.6789926290512085,1.4916677474975586,-0.49125543236732483
1772648230167538700,6.15353857421875,0.5312111377716064,1.7589640617370605,-0.7583609223365784
1772648230187548400,6.17354833984375,0.0883781909942627,1.912717342376709,-0.7344481348991394
1772648230207558100,6.19355810546875,-0.0009390115737915039,2.313045024871826,-0.4811551570892334
1772648230227567600,6.213567626953125,-0.062482595443725586,2.4566140174865723,-0.25576648116111755
1772648230247577300,6.233577392578125,-0.26868224143981934,2.088561534881592,0.3205108642578125
1772648230267587000,6.253587158203125,-0.14084088802337646,1.5624761581420898,0.9270945191383362
1772648230287596800,6.2735966796875,0.1206202507019043,1.3160228729248047,1.1167302131652832
1772648230307606300,6.293606201171875,0.3843839168548584,1.0292997360229492,0.9336496591567993
1772648230327616000,6.313615966796875,0.45549261569976807,0.9440774917602539,0.7340255975723267
1772648230347625700,6.333625732421875,0.8226995468139648,0.9242258071899414,0.43880292773246765
1772648230367635200,6.35363525390625,1.4618654251098633,-0.015520095825195312,0.12006226181983948
1772648230387645000,6.37364501953125,2.170679807662964,-1.5849666595458984,-0.524694561958313
1772648230407654700,6.393654541015625,1.8862413167953491,-2.4208993911743164,-0.7351012825965881
1772648230427664400,6.413664306640625,1.8442302942276,-2.300318717956543,-0.3722086548805237
1772648230447673900,6.433673828125,2.352604389190674,-0.4684925079345703,-0.2811763882637024
1772648230467683600,6.45368359375,2.0093746185302734,0.2382822036743164,-0.4359343349933624
1772648230487693300,6.473693359375,1.5743138790130615,-2.9565610885620117,-0.1476568877696991
1772648230507703000,6.493703125,1.1368227005004883,-5.666187286376953,-1.000568151473999
1772648230527712500,6.51371240234375,-2.2299129962921143,-5.628683090209961,-2.123908758163452
1772648230547722200,6.53372216796875,-0.494662880897522,1.233184814453125,-2.4039535522460938
1772648230567731500,6.5537314453125,-0.31816136837005615,3.9367213249206543,-1.8210636377334595
1772648230587740400,6.573740478515625,-1.1470634937286377,1.8289103507995605,-0.9959927797317505
1772648230607749400,6.593749267578125,-1.336482048034668,1.585066318511963,-0.7583955526351929
1772648230627758300,6.61375830078125,-1.5802135467529297,1.2574243545532227,-0.7834900617599487
1772648230647767300,6.633767333984375,-1.8549127578735352,0.5949249267578125,-0.6788675785064697
1772648230667776300,6.6537763671875,-2.2092392444610596,0.17557907104492188,-0.554317831993103
1772648230687785200,6.67378515625,-2.567897081375122,-0.26848888397216797,-0.8591344356536865
1772648230707794200,6.693794189453125,-1.792507529258728,-0.2552051544189453,-1.4027396440505981
1772648230727803100,6.71380322265625,-0.5484185218811035,0.38663482666015625,-1.5908329486846924
1772648230747812000,6.73381201171875,-0.20447468757629395,-0.1927947998046875,-0.7864859104156494
1772648230767821000,6.753821044921875,-0.11910295486450195,-0.733983039855957,0.7055280804634094
1772648230787830000,6.773830078125,0.0766143798828125,-0.018691062927246094,1.2458631992340088
1772648230807839000,6.7938388671875,0.2552649974822998,0.26937294006347656,0.9257603883743286
1772648230827848000,6.813847900390625,-0.002321481704711914,0.35317039489746094,0.3373740315437317
1772648230847857000,6.83385693359375,-0.4082520008087158,0.8268680572509766,-0.1170433759689331
1772648230867865900,6.853865966796875,-0.7741241455078125,0.8625507354736328,-0.28004175424575806
1772648230887874800,6.873874755859375,-0.9892891645431519,0.6428117752075195,-0.3044387102127075
1772648230907883800,6.8938837890625,-0.4607592821121216,0.19877910614013672,-0.09581011533737183
1772648230927893000,6.91389306640625,-0.05326378345489502,0.1132802963256836,0.1601426601409912
1772648230947902000,6.93390185546875,0.2705744504928589,-0.15971851348876953,0.3387530446052551
1772648230967911000,6.953910888671875,0.3546236753463745,-0.21915912628173828,0.48141032457351685
1772648230987920000,6.973919921875,0.6065793037414551,-0.15801620483398438,0.5485443472862244
1772648231007928800,6.9939287109375,0.7645888328552246,-0.20903873443603516,0.6241427063941956
1772648231027937800,7.013937744140625,0.6358572244644165,-0.3528909683227539,0.7454096674919128
1772648231047946800,7.03394677734375,0.10714840888977051,-0.33598899841308594,0.9968608021736145
1772648231067956500,7.05395654296875,-0.49285614490509033,0.024236679077148438,1.5344189405441284
1772648231087966700,7.073966796875,-0.7712973356246948,0.18671607971191406,1.984720230102539
1772648231107977000,7.09397705078125,-0.43064916133880615,-0.1288890838623047,2.0926530361175537
1772648231127987200,7.1139873046875,-0.048487067222595215,-0.9699010848999023,1.9541714191436768
1772648231147997400,7.13399755859375,-0.27565622329711914,-1.4300003051757812,1.7842962741851807
1772648231168007700,7.154007568359375,-0.3464229106903076,-2.211686134338379,1.795106053352356
1772648231188018000,7.174017822265625,-0.3840932846069336,-2.754422187805176,1.2861688137054443
1772648231208028000,7.19402783203125,0.3375197649002075,-2.7592124938964844,-0.350327730178833
1772648231228038400,7.214038330078125,1.070932388305664,-2.0078125,-2.1794815063476562
1772648231248048400,7.23404833984375,0.8233644962310791,-0.34236717224121094,-2.912766933441162
1772648231268058600,7.25405859375,0.2519233226776123,1.5191612243652344,-2.8118553161621094
1772648231288068900,7.27406884765625,0.3957589864730835,2.8749194145202637,-2.2960264682769775
1772648231308079000,7.2940791015625,1.0629215240478516,1.5514869689941406,-2.489590644836426
1772648231328089300,7.31408935546875,-0.07663214206695557,0.02261066436767578,-3.0020086765289307
1772648231348099600,7.334099609375,-0.7287962436676025,-2.1396255493164062,-2.0226073265075684
1772648231368109800,7.35410986328125,0.35418617725372314,-3.778744697570801,0.2669270634651184
1772648231388120000,7.3741201171875,0.3938119411468506,-2.7843751907348633,0.8582505583763123
1772648231408130300,7.39413037109375,0.009559392929077148,-0.8921041488647461,0.40854740142822266
1772648231428140500,7.414140625,0.10332763195037842,0.7926139831542969,0.09152285009622574
1772648231448150800,7.43415087890625,0.41715824604034424,1.1822996139526367,-0.5521054863929749
1772648231468161000,7.4541611328125,0.47852277755737305,1.3516817092895508,-1.2044720649719238
1772648231488171300,7.474171142578125,-0.032774925231933594,1.8911900520324707,-1.184489369392395
1772648231508181500,7.494181396484375,-0.24641990661621094,2.0803751945495605,-0.7600488066673279
1772648231528191700,7.514191650390625,-0.019328594207763672,1.7743945121765137,-0.2674860954284668
1772648231548202000,7.534201904296875,-0.13027000427246094,1.5071525573730469,0.11616182327270508
1772648231568211700,7.554211669921875,-0.4884880781173706,1.139204978942871,0.5337682962417603
1772648231588221700,7.5742216796875,-0.33285725116729736,1.0777320861816406,0.899003803730011
1772648231608231400,7.5942314453125,0.030089616775512695,1.1893739700317383,0.9780113101005554
1772648231628241400,7.614241455078125,0.3285512924194336,1.3548126220703125,0.7834921479225159
1772648231648251100,7.634251220703125,0.5430424213409424,1.228184700012207,0.6312474608421326
1772648231668261000,7.65426123046875,0.6968698501586914,0.9167604446411133,0.46335649490356445
1772648231688270800,7.674270751953125,1.1102268695831299,0.23917675018310547,0.17755146324634552
1772648231708280800,7.69428076171875,0.7589223384857178,-1.155221939086914,0.05028533935546875
1772648231728290600,7.71429052734375,0.8310749530792236,-0.9593620300292969,-0.6189805269241333
1772648231748300500,7.734300537109375,1.1934740543365479,-0.8205041885375977,-0.6832272410392761
1772648231768310300,7.754310302734375,1.8609637022018433,-0.8470058441162109,-0.10995399951934814
1772648231788320300,7.7743203125,2.169445276260376,-0.5444736480712891,0.40790191292762756
1772648231808330200,7.794330322265625,2.339846611022949,-0.8528690338134766,0.8048344850540161
1772648231828340000,7.814340087890625,1.5117450952529907,-2.7541580200195312,1.025538444519043
1772648231848349700,7.834349609375,0.506920337677002,-4.249253273010254,0.21312879025936127
1772648231868359700,7.854359619140625,-0.4204665422439575,-3.4218950271606445,-1.692888855934143
1772648231888369700,7.87436962890625,-1.0063992738723755,-1.393568992614746,-1.9178457260131836
1772648231908379400,7.89437939453125,0.14673280715942383,2.6157212257385254,-1.9632872343063354
1772648231928389000,7.91438916015625,-0.27648305892944336,1.3250436782836914,-1.6230995655059814
1772648231948399000,7.934399169921875,-0.3067876100540161,0.5814352035522461,-1.1905109882354736
1772648231968409000,7.9544091796875,-0.6813763380050659,0.6423130035400391,-1.3921830654144287
1772648231988418800,7.974418701171875,-1.1822859048843384,1.2162714004516602,-1.8679808378219604
1772648232008428500,7.994428466796875,-2.050299644470215,0.9258556365966797,-1.865357756614685
1772648232028438500,8.0144384765625,-2.8339672088623047,0.2073831558227539,-1.4655530452728271
1772648232048448500,8.034448486328126,-3.01908802986145,-0.04985237121582031,-1.4682574272155762
1772648232068458000,8.0544580078125,-2.42811918258667,-0.13383865356445312,-1.292647361755371
1772648232088467200,8.07446728515625,-1.116203784942627,-0.3774557113647461,-1.246229887008667
1772648232108476700,8.0944765625,-0.4875040054321289,-0.9632625579833984,-0.7041379809379578
1772648232128486100,8.114486083984374,-0.08870279788970947,-1.0348825454711914,0.28014111518859863
1772648232148495600,8.13449560546875,-0.33757638931274414,-0.2363605499267578,0.5212541818618774
1772648232168504800,8.1545048828125,-0.8136168718338013,0.03875160217285156,0.2697737216949463
1772648232188514300,8.174514404296875,-1.3144174814224243,0.5053749084472656,-0.10734641551971436
1772648232208523800,8.194523681640625,-1.6713731288909912,0.709686279296875,-0.6462596654891968
1772648232228533200,8.214533203125,-1.134931206703186,0.3641061782836914,-0.8727937936782837
1772648232248542500,8.23454248046875,-0.427642822265625,-0.36649322509765625,-0.9072166681289673
1772648232268552000,8.254552001953124,-0.09205162525177002,-0.6977815628051758,-0.8099585771560669
1772648232288561400,8.2745615234375,-0.06615734100341797,-0.5486516952514648,-0.5792372226715088
1772648232308571000,8.29457080078125,-0.29337310791015625,-0.37031078338623047,-0.34555894136428833
1772648232328580000,8.314580078125,-0.5929036140441895,-0.2747774124145508,-0.22092628479003906
1772648232348589600,8.334589599609375,-0.8124178647994995,-0.31470680236816406,-0.16455858945846558
1772648232368599000,8.35459912109375,-1.0241073369979858,-0.04973125457763672,-0.16070657968521118
1772648232388608500,8.3746083984375,-0.6080161333084106,0.018583297729492188,-0.365445613861084
1772648232408617700,8.39461767578125,-0.27943849563598633,-0.1271991729736328,-0.6586180925369263
1772648232428627200,8.414627197265625,-0.10788190364837646,-0.24737930297851562,-0.987480878829956
1772648232448636700,8.43463671875,0.07239294052124023,0.0344696044921875,-1.0039513111114502
1772648232468646000,8.45464599609375,-0.06917786598205566,0.10772228240966797,-0.9043020009994507
1772648232488655400,8.4746552734375,0.0010707378387451172,0.3474235534667969,-0.7497004270553589
1772648232508664800,8.494664794921874,-0.02774953842163086,0.023726463317871094,-0.6133918762207031
1772648232528674300,8.51467431640625,-0.08152937889099121,-0.2040414810180664,-0.499692440032959
1772648232548683800,8.534683837890626,0.03409731388092041,-0.18467998504638672,-0.4954402446746826
1772648232568693000,8.55469287109375,0.3435724973678589,-0.2413768768310547,-0.4722698926925659
1772648232588702700,8.57470263671875,0.4967970848083496,-0.1410064697265625,-0.38593482971191406
1772648232608712200,8.594712158203125,0.5581828355789185,0.004933357238769531,-0.2535194158554077
1772648232628721700,8.6147216796875,0.3452798128128052,-0.18618297576904297,-0.27251148223876953
1772648232648731400,8.6347314453125,0.2041630744934082,-0.12447929382324219,-0.2313004732131958
1772648232668740900,8.654740966796876,0.2002803087234497,-0.038092613220214844,-0.2863513231277466
