time,seconds_elapsed,z,y,x
1772648224292168400,0.27816845703125,-0.022903166711330414,0.005992107093334198,0.028495799750089645
1772648224312177000,0.298177001953125,-0.009587371721863747,-0.04407527670264244,0.02689790353178978
1772648224322181000,0.30818115234375,-0.002130527049303055,-0.06751107424497604,0.01837579533457756
1772648224332185300,0.318185302734375,0.004793685860931873,-0.08775108307600021,0.008788423612713814
1772648224342189300,0.328189208984375,0.012783162295818329,-0.11118687689304352,0.00026631588116288185
1772648224352193500,0.338193603515625,0.01012000348418951,-0.13302478194236755,0.008255792781710625
1772648224362197800,0.34819775390625,0,-0.13941636681556702,0.02689790353178978
1772648224372202000,0.358201904296875,-0.006924212910234928,-0.13195951282978058,0.03914843499660492
1772648224382206200,0.368206298828125,-0.019707374274730682,-0.13462267816066742,0.0588558092713356
1772648224392210400,0.37821044921875,-0.029827378690242767,-0.1255679428577423,0.07696528732776642
1772648224402214400,0.38821435546875,-0.03834948688745499,-0.11757846176624298,0.09294424206018448
1772648224412218600,0.398218505859375,-0.042610540986061096,-0.10799109190702438,0.10572740435600281
1772648224422222800,0.408222900390625,-0.04846949130296707,-0.10213214159011841,0.11424951255321503
1772648224432227000,0.41822705078125,-0.055926334112882614,-0.09627319127321243,0.11691267043352127
1772648224442231300,0.428231201171875,-0.0612526535987854,-0.09094687551259995,0.12064109742641449
1772648224452235500,0.438235595703125,-0.06817686557769775,-0.08668582141399384,0.120108462870121
1772648224462239700,0.44823974609375,-0.07510107755661011,-0.079228974878788,0.11957582831382751
1772648224472243700,0.45824365234375,-0.08202528953552246,-0.0744352862238884,0.11371687799692154
1772648224482248000,0.468248046875,-0.0894821360707283,-0.06697844713926315,0.10732530057430267
1772648224492252200,0.478252197265625,-0.09640634804964066,-0.04886896535754204,0.10253161191940308
1772648224502256400,0.48825634765625,-0.10120003670454025,-0.02703106217086315,0.10199898481369019
1772648224512260600,0.498260498046875,-0.11078740656375885,-0.0003994738217443228,0.10412950813770294
1772648224522264800,0.508264892578125,-0.12357056885957718,0.02143842913210392,0.10998845845460892
1772648224532268800,0.518268798828125,-0.13582110404968262,0.04913527891039848,0.12117372453212738
1772648224542273000,0.52827294921875,-0.15393057465553284,0.0810931846499443,0.13555479049682617
1772648224552277200,0.53827734375,-0.17204006016254425,0.10932266712188721,0.147805318236351
1772648224562281700,0.54828173828125,-0.1928126960992813,0.14181320369243622,0.15632742643356323
1772648224572286500,0.558286376953125,-0.2162484973669052,0.16844479739665985,0.16058847308158875
1772648224582291000,0.568291015625,-0.2407495528459549,0.17803215980529785,0.16484953463077545
1772648224592295700,0.578295654296875,-0.2689790427684784,0.17430374026298523,0.16591478884220123
1772648224602300200,0.588300048828125,-0.2924148440361023,0.15992268919944763,0.15952321887016296
1772648224612305000,0.598304931640625,-0.3115895688533783,0.14660689234733582,0.15153373777866364
1772648224622309600,0.6083095703125,-0.32330748438835144,0.13648688793182373,0.14514215290546417
1772648224632314000,0.618314208984375,-0.3344927430152893,0.12476898729801178,0.14247900247573853
1772648224642318800,0.62831884765625,-0.34088432788848877,0.11624687910079956,0.1387505680322647
1772648224652323600,0.638323486328125,-0.35153695940971375,0.11518161743879318,0.14247900247573853
1772648224662328000,0.648328125,-0.3536674976348877,0.10879004001617432,0.14674004912376404
1772648224672332800,0.658332763671875,-0.3568632900714874,0.10080055892467499,0.1675126850605011
1772648224682337500,0.668337646484375,-0.358993798494339,0.09707213938236237,0.1957421749830246
1772648224692342300,0.67834228515625,-0.36538538336753845,0.10080055892467499,0.22290639579296112
1772648224702346800,0.6883466796875,-0.3669832944869995,0.10293108969926834,0.24474430084228516
1772648224712351500,0.6983515625,-0.3723095953464508,0.09867003560066223,0.26818010210990906
1772648224722356200,0.708356201171875,-0.38456013798713684,0.09227845072746277,0.29161590337753296
1772648224732360700,0.718360595703125,-0.3952127695083618,0.09014792740345001,0.3219758868217468
1772648224742365400,0.728365478515625,-0.37017908692359924,0.10186582803726196,0.35286855697631836
1772648224752370000,0.738369873046875,-0.3339601159095764,0.14873741567134857,0.3789674937725067
1772648224762374700,0.748374755859375,-0.36005908250808716,0.21638165414333344,0.3800327479839325
1772648224772379400,0.75837939453125,-0.34141695499420166,0.3255711793899536,0.38109803199768066
1772648224782383900,0.7683837890625,-0.30466535687446594,0.4406196177005768,0.37736961245536804
1772648224792388600,0.778388671875,-0.2700442969799042,0.5253080725669861,0.37151065468788147
1772648224802393300,0.788393310546875,-0.25193482637405396,0.6041375994682312,0.3608580231666565
1772648224812397800,0.798397705078125,-0.22796639800071716,0.6701838970184326,0.3475422263145447
1772648224822402600,0.808402587890625,-0.21358533203601837,0.7170554995536804,0.3411506414413452
1772648224832407300,0.8184072265625,-0.1880190074443817,0.7282407879829407,0.3406180143356323
1772648224842411800,0.828411865234375,-0.1597895324230194,0.719186007976532,0.3384874761104584
1772648224852416500,0.83841650390625,-0.1278316229581833,0.7042723298072815,0.33369380235671997
1772648224862421200,0.848421142578125,-0.09800424426794052,0.6829670667648315,0.3129211664199829
1772648224872425700,0.85842578125,-0.07243791967630386,0.6605965495109558,0.2804306149482727
1772648224882430500,0.868430419921875,-0.05699159950017929,0.6318344473838806,0.23622219264507294
1772648224892435200,0.878435302734375,-0.04154527932405472,0.5924196839332581,0.18295900523662567
1772648224902439700,0.888439697265625,-0.03568632900714874,0.5455480813980103,0.12277162075042725
1772648224912444400,0.8984443359375,-0.03994738310575485,0.5056006908416748,0.07110633701086044
1772648224922449200,0.90844921875,-0.050600018352270126,0.4768385887145996,0.016777900978922844
1772648224932453600,0.91845361328125,-0.051665280014276505,0.448076456785202,-0.021038955077528954
1772648224942458400,0.928458251953125,-0.050600018352270126,0.4310322403907776,-0.04447475075721741
1772648224952463000,0.938463134765625,-0.047936856746673584,0.42410802841186523,-0.06578002125024796
1772648224962467600,0.948467529296875,-0.043143171817064285,0.4161185622215271,-0.07643266022205353
1772648224972472300,0.958472412109375,-0.038882117718458176,0.41878172755241394,-0.07909581810235977
1772648224982477000,0.96847705078125,-0.03142527490854263,0.43156489729881287,-0.07856318354606628
1772648224992481500,0.9784814453125,-0.023435797542333603,0.4496743679046631,-0.08868318796157837
1772648225002486300,0.988486328125,-0.013848425820469856,0.4773712158203125,-0.10839056223630905
1772648225012491000,0.998490966796875,-0.002130527049303055,0.517318606376648,-0.13662004470825195
1772648225022495500,1.00849560546875,0.01597895286977291,0.5647228360176086,-0.17124110460281372
1772648225032500200,1.018500244140625,0.0330231711268425,0.6126596927642822,-0.2005358636379242
1772648225042505000,1.0285048828125,0.04953475296497345,0.6568681001663208,-0.21864533424377441
1772648225052509400,1.038509521484375,0.055393703281879425,0.6936197280883789,-0.22610218822956085
1772648225062514700,1.0485146484375,0.055926334112882614,0.7005439400672913,-0.2191779762506485
1772648225072520200,1.058520263671875,0.05752423033118248,0.6898912787437439,-0.19254638254642487
1772648225082525700,1.068525634765625,0.055393703281879425,0.6504765152931213,-0.15526215732097626
1772648225092531200,1.07853125,0.05432844161987305,0.5924196839332581,-0.1153147742152214
1772648225102536700,1.08853662109375,0.055393703281879425,0.5460807085037231,-0.07696528732776642
1772648225112542500,1.09854248046875,0.055926334112882614,0.5109270215034485,-0.04447475075721741
1772648225122548000,1.1085478515625,0.04580633342266083,0.47470805048942566,-0.028495799750089645
1772648225132553500,1.118553466796875,0.027164220809936523,0.4294343590736389,-0.01837579533457756
1772648225142559000,1.12855908203125,0.012783162295818329,0.3884217143058777,-0.021038955077528954
1772648225152564500,1.138564453125,0.001597895286977291,0.3394196033477783,-0.036485277116298676
1772648225162570000,1.148570068359375,-0.006924212910234928,0.30160272121429443,-0.04394211992621422
1772648225172575700,1.15857568359375,-0.01704421639442444,0.2701774537563324,-0.049268439412117004
1772648225182581200,1.168581298828125,-0.027164220809936523,0.2520679831504822,-0.049268439412117004
1772648225192586800,1.178586669921875,-0.03355580195784569,0.23981745541095734,-0.04287685826420784
1772648225202592300,1.18859228515625,-0.059122126549482346,0.22383849322795868,-0.017310531809926033
1772648225212597800,1.19859765625,-0.04154527932405472,0.2185121774673462,0.032756853848695755
1772648225222603300,1.208603271484375,0.01012000348418951,0.199337437748909,0.11371687799692154
1772648225232609000,1.218609130859375,0.022903166711330414,0.16311848163604736,0.2000032216310501
1772648225242614300,1.2286142578125,-0.010652635246515274,0.11997530609369278,0.24580955505371094
1772648225252618800,1.23861865234375,-0.051665280014276505,0.06831002235412598,0.26977798342704773
1772648225262623200,1.248623291015625,-0.055926334112882614,-0.00945421401411295,0.29321378469467163
1772648225272627700,1.258627685546875,-0.02024000696837902,-0.11118687689304352,0.2522011399269104
1772648225282632200,1.268632080078125,0.023435797542333603,-0.20066902041435242,0.17496953904628754
1772648225292636400,1.278636474609375,-0.007989476434886456,-0.1926795393228531,0.12436951696872711
1772648225302641000,1.288640869140625,-0.054861072450876236,-0.19747322797775269,0.11158635467290878
1772648225312645400,1.298645263671875,-0.050600018352270126,-0.28802061080932617,0.09241160750389099
1772648225322649900,1.30864990234375,-0.01651158556342125,-0.44940805435180664,0.04394211992621422
1772648225332654300,1.318654296875,0.052197910845279694,-0.5388901829719543,-0.012516846880316734
1772648225342658800,1.328658935546875,0.0564589649438858,-0.49095332622528076,-0.07110633701086044
1772648225352663300,1.338663330078125,0.08149266242980957,-0.3466101288795471,-0.13182635605335236
1772648225362667800,1.348667724609375,0.11558109521865845,-0.21771323680877686,-0.19307900965213776
1772648225372672300,1.35867236328125,0.1832253336906433,-0.16551531851291656,-0.24367903172969818
1772648225382676700,1.3686767578125,0.2450106143951416,-0.1692437380552292,-0.2569948136806488
1772648225392681200,1.37868115234375,0.2865558862686157,-0.13835109770298004,-0.22556954622268677
1772648225402685700,1.388685791015625,0.2918822169303894,-0.08988160640001297,-0.1904158592224121
1772648225412690200,1.398690185546875,0.23915165662765503,-0.06271739304065704,-0.17124110460281372
1772648225422694700,1.408694580078125,0.19121479988098145,-0.012650004588067532,-0.15899057686328888
1772648225432699100,1.41869921875,0.19707375764846802,0.03262369707226753,-0.16112111508846283
1772648225442703600,1.42870361328125,0.24288007616996765,0.09281108528375626,-0.1866874396800995
1772648225452708000,1.4387080078125,0.2966758906841278,0.1705753207206726,-0.21864533424377441
1772648225462712600,1.448712646484375,0.3542001247406006,0.24567639827728271,-0.2474074512720108
1772648225472717000,1.458717041015625,0.3861580193042755,0.2893522083759308,-0.27297377586364746
1772648225482721500,1.468721435546875,0.37550538778305054,0.3085269629955292,-0.3043990433216095
1772648225492726000,1.47872607421875,0.3355579972267151,0.2744385302066803,-0.3326285481452942
1772648225502730500,1.48873046875,0.2790990471839905,0.20306585729122162,-0.3608580231666565
1772648225512734700,1.498734619140625,0.20932428538799286,0.11198582500219345,-0.388022243976593
1772648225522739200,1.5087392578125,0.11664635688066483,-0.01584579423069954,-0.40453383326530457
1772648225532743700,1.51874365234375,0.012250530533492565,-0.12982898950576782,-0.40613171458244324
1772648225542748200,1.528748046875,-0.07936213165521622,-0.1969406008720398,-0.3981422483921051
1772648225552752600,1.538752685546875,-0.14540846645832062,-0.20972375571727753,-0.36778223514556885
1772648225562758000,1.5487578125,-0.1699095368385315,-0.16072162985801697,-0.323041170835495
1772648225572764000,1.558763916015625,-0.16671374440193176,-0.07283739000558853,-0.2841590344905853
1772648225582769700,1.568769775390625,-0.13582110404968262,0.005992107093334198,-0.26764747500419617
1772648225592775700,1.578775634765625,-0.0990695059299469,0.06351634114980698,-0.27244114875793457
1772648225602781400,1.588781494140625,-0.052197910845279694,0.11997530609369278,-0.2798979878425598
1772648225612787200,1.598787109375,0.003195790573954582,0.17856480181217194,-0.2846916913986206
1772648225622793200,1.608793212890625,0.06338317692279816,0.21584902703762054,-0.2857569456100464
1772648225632799000,1.618799072265625,0.1081242486834526,0.21691428124904633,-0.2841590344905853
1772648225642805000,1.628804931640625,0.14807163178920746,0.20679427683353424,-0.27830010652542114
1772648225652810800,1.638810791015625,0.1699095368385315,0.1705753207206726,-0.2745716869831085
1772648225662816500,1.64881640625,0.18109479546546936,0.10879004001617432,-0.28202852606773376
1772648225672822500,1.658822509765625,0.19228006899356842,0.05552686005830765,-0.3038664162158966
1772648225682828300,1.668828369140625,0.21358533203601837,0.008655265904963017,-0.3278348445892334
1772648225692834300,1.678834228515625,0.23489060997962952,-0.029161589220166206,-0.34381380677223206
1772648225702840000,1.688840087890625,0.27483800053596497,-0.06111949309706688,-0.3560643196105957
1772648225712846000,1.69884619140625,0.32330748438835144,-0.05632580816745758,-0.36884748935699463
1772648225722851800,1.708851806640625,0.3781685531139374,-0.04301001504063606,-0.37790223956108093
1772648225732857600,1.718857666015625,0.43675804138183594,-0.045673172920942307,-0.3763043284416199
1772648225742863600,1.728863525390625,0.46498751640319824,-0.04514054208993912,-0.3784348666667938
1772648225752869400,1.738869384765625,0.4612590968608856,-0.10905635356903076,-0.36298853158950806
1772648225762875400,1.74887548828125,0.449008584022522,-0.16072162985801697,-0.3331611752510071
1772648225772881200,1.758881103515625,0.42131173610687256,-0.1969406008720398,-0.2948116660118103
1772648225782887000,1.768886962890625,0.3909517228603363,-0.22303955256938934,-0.25007060170173645
1772648225792893000,1.778892822265625,0.36005908250808716,-0.2347574532032013,-0.21172112226486206
1772648225802898700,1.788898681640625,0.3296990692615509,-0.22197428345680237,-0.1813611090183258
1772648225812904700,1.79890478515625,0.2966758906841278,-0.18469005823135376,-0.147805318236351
1772648225822910500,1.808910400390625,0.27696850895881653,-0.1596563756465912,-0.10732530057430267
1772648225832916500,1.81891650390625,0.2556632459163666,-0.1442100554704666,-0.0780305564403534
1772648225842922200,1.828922119140625,0.23329271376132965,-0.14740583300590515,-0.06045370548963547
1772648225852928300,1.83892822265625,0.2024000734090805,-0.1303616166114807,-0.0588558092713356
1772648225862934000,1.84893408203125,0.17523585259914398,-0.12343741208314896,-0.06578002125024796
1772648225872939800,1.858939697265625,0.15286532044410706,-0.08135949820280075,-0.08388949930667877
1772648225882945800,1.86894580078125,0.11717899143695831,-0.058456335216760635,-0.1105210930109024
1772648225892951600,1.87895166015625,0.070840023458004,-0.05153212323784828,-0.15526215732097626
1772648225902957600,1.88895751953125,0.03249053657054901,-0.09147950261831284,-0.1957421749830246
1772648225912963300,1.89896337890625,-0.03249053657054901,-0.14101426303386688,-0.20426428318023682
1772648225922969300,1.90896923828125,-0.10759161412715912,-0.19747322797775269,-0.15579478442668915
1772648225932975000,1.91897509765625,-0.1842905879020691,-0.2198437601327896,-0.12277162075042725
1772648225942980900,1.92898095703125,-0.27643588185310364,-0.19853848218917847,-0.10412950813770294
1772648225952987000,1.93898681640625,-0.373374879360199,-0.09893634915351868,-0.07430212944746017
1772648225962992600,1.94899267578125,-0.4772380590438843,0.07896266132593155,-0.03382211551070213
1772648225972998700,1.95899853515625,-0.5693833827972412,0.26698166131973267,-0.029561063274741173
1772648225983004400,1.96900439453125,-0.6748444437980652,0.39374804496765137,-0.027963167056441307
1772648225993010200,1.97901025390625,-0.8191876411437988,0.47524067759513855,0.032756853848695755
1772648226003016200,1.98901611328125,-0.9097350239753723,0.40919435024261475,0.1339568942785263
1772648226013022000,1.99902197265625,-0.9843034744262695,0.2126532346010208,0.2431464046239853
1772648226023028000,2.009028076171875,-1.028511881828308,-0.013182636350393295,0.31558433175086975
1772648226033033700,2.01903369140625,-1.0626003742218018,-0.19427743554115295,0.34487906098365784
1772648226043039700,2.029039794921875,-1.0503498315811157,-0.33009853959083557,0.3427485525608063
1772648226053045500,2.03904541015625,-1.037034034729004,-0.4094606637954712,0.35286855697631836
1772648226063050800,2.04905078125,-1.0199898481369019,-0.46219122409820557,0.3901527523994446
1772648226073055700,2.0590556640625,-0.9789772033691406,-0.4930838644504547,0.42956751585006714
1772648226083060500,2.069060546875,-0.8735160827636719,-0.5181175470352173,0.4609927833080292
1772648226093065500,2.0790654296875,-0.6956170797348022,-0.5117259621620178,0.46631911396980286
1772648226103070200,2.0890703125,-0.5054675340652466,-0.4472775161266327,0.4178496301174164
1772648226113075200,2.0990751953125,-0.3217095732688904,-0.3141195774078369,0.3235737979412079
1772648226123080000,2.109079833984375,-0.1837579607963562,-0.1692437380552292,0.22237375378608704
1772648226133085000,2.1190849609375,-0.06711160391569138,-0.004127896390855312,0.1675126850605011
1772648226143090000,2.12908984375,0.00426105409860611,0.12104056775569916,0.20373165607452393
1772648226153094700,2.1390947265625,0.02503369376063347,0.2131858617067337,0.300137996673584
1772648226163099600,2.149099609375,0.026098955422639847,0.3362238109111786,0.39601171016693115
1772648226173104400,2.1591044921875,-0.01438105758279562,0.4294343590736389,0.4460791051387787
1772648226183109400,2.169109375,-0.06498107314109802,0.49494805932044983,0.4450138509273529
1772648226193114400,2.1791142578125,-0.13741900026798248,0.4874912202358246,0.4029359221458435
1772648226203119000,2.189119140625,-0.20879164338111877,0.41771647334098816,0.3507380187511444
1772648226213124000,2.1991240234375,-0.28122955560684204,0.3735080361366272,0.323041170835495
1772648226223129000,2.209129150390625,-0.3547327518463135,0.3735080361366272,0.3320958912372589
1772648226233133800,2.2191337890625,-0.38988643884658813,0.3836280405521393,0.3661843240261078
1772648226243138800,2.229138916015625,-0.4042675197124481,0.4342280328273773,0.40027275681495667
1772648226253143600,2.2391435546875,-0.39308223128318787,0.4901543855667114,0.4210454225540161
1772648226263148500,2.2491484375,-0.3765706419944763,0.5583312511444092,0.42051276564598083
1772648226273153300,2.2591533203125,-0.34194958209991455,0.6009417772293091,0.4082622528076172
1772648226283158300,2.269158203125,-0.29827380180358887,0.5982786417007446,0.3837611973285675
1772648226293163300,2.279163330078125,-0.24607586860656738,0.5695165395736694,0.34860748052597046
1772648226303168000,2.28916796875,-0.2034653276205063,0.5226449370384216,0.2985401153564453
1772648226313173000,2.299173095703125,-0.15020215511322021,0.4715122580528259,0.24474430084228516
1772648226323177700,2.309177734375,-0.0942758247256279,0.44594594836235046,0.1771000623703003
1772648226333182700,2.3191826171875,-0.047936856746673584,0.44754382967948914,0.09294424206018448
1772648226343187700,2.329187744140625,-0.03675159066915512,0.45979437232017517,-0.017310531809926033
1772648226353192400,2.3391923828125,-0.027696851640939713,0.47044700384140015,-0.14034846425056458
1772648226363197400,2.349197509765625,-0.019707374274730682,0.45127224922180176,-0.2511358857154846
1772648226373202200,2.3592021484375,-0.013848425820469856,0.40386801958084106,-0.34008538722991943
1772648226383207200,2.369207275390625,0.0010652635246515274,0.3404848575592041,-0.4034685492515564
1772648226393212200,2.379212158203125,0.026631588116288185,0.27337324619293213,-0.4354264736175537
1772648226403217000,2.389216796875,0.051665280014276505,0.2366216629743576,-0.4450138509273529
1772648226413222000,2.399221923828125,0.0804273933172226,0.2227732390165329,-0.4354264736175537
1772648226423226600,2.4092265625,0.11238530278205872,0.21638165414333344,-0.4119906723499298
1772648226433231600,2.419231689453125,0.13528846204280853,0.20519638061523438,-0.37790223956108093
1772648226443236600,2.429236572265625,0.14540846645832062,0.20679427683353424,-0.3454116880893707
1772648226453241300,2.439241455078125,0.14008215069770813,0.22863218188285828,-0.31664958596229553
1772648226463246300,2.449246337890625,0.0990695059299469,0.26751428842544556,-0.28256115317344666
1772648226473251000,2.4592509765625,0.038882117718458176,0.3356911540031433,-0.2426137626171112
1772648226483256000,2.469256103515625,-0.014913689345121384,0.4342280328273773,-0.190948486328125
1772648226493261000,2.479260986328125,-0.04633896425366402,0.5423523187637329,-0.1344895213842392
1772648226503265800,2.489265869140625,-0.051132649183273315,0.6238449811935425,-0.08602003008127213
1772648226513270800,2.499270751953125,-0.06551370769739151,0.638758659362793,-0.03861580416560173
1772648226523275500,2.509275634765625,-0.052197910845279694,0.5711144208908081,0.001864211168140173
1772648226533280500,2.519280517578125,-0.043143171817064285,0.43635857105255127,0.040746331214904785
1772648226543285200,2.52928515625,-0.03994738310575485,0.3271690607070923,0.09294424206018448
1772648226553290200,2.539290283203125,-0.021305270493030548,0.2600574493408203,0.18402427434921265
1772648226563295000,2.549294921875,-0.0005326317623257637,0.20146796107292175,0.3129211664199829
1772648226573299700,2.5592998046875,0.004793685860931873,0.13595426082611084,0.4354264736175537
1772648226583304400,2.569304443359375,-0.009587371721863747,0.06671212613582611,0.5227780938148499
1772648226593309200,2.57930908203125,-0.03834948688745499,0.003328948514536023,0.5755085945129395
1772648226603314000,2.58931396484375,-0.05326317623257637,-0.08135949820280075,0.5872265100479126
1772648226613318700,2.599318603515625,-0.00852210819721222,-0.25180166959762573,0.5408875346183777
1772648226623323100,2.6093232421875,0.0378168560564518,-0.45260384678840637,0.37683698534965515
1772648226633327900,2.619327880859375,-0.013848425820469856,-0.5351617336273193,0.14674004912376404
1772648226643332600,2.62933251953125,-0.07510107755661011,-0.42597225308418274,0.03115895763039589
1772648226653337300,2.63933740234375,-0.07829686999320984,-0.3865574896335602,0.0828242376446724
1772648226663342000,2.649342041015625,0.026098955422639847,-0.41531962156295776,0.1627189964056015
1772648226673346800,2.659346923828125,0.2024000734090805,-0.489888072013855,0.1771000623703003
1772648226683351600,2.6693515625,0.27164220809936523,-0.4600606858730316,0.12596741318702698
1772648226693356000,2.67935595703125,0.31744852662086487,-0.3253048360347748,0.07430212944746017
1772648226703360800,2.68936083984375,0.35526537895202637,-0.21664796769618988,0.03595264256000519
1772648226713365500,2.699365478515625,0.4005391001701355,-0.17457005381584167,0.015712637454271317
1772648226723370200,2.709370361328125,0.4474106729030609,-0.1596563756465912,-0.0013315794058144093
1772648226733375000,2.719375,0.4793685972690582,-0.09414266049861908,-0.01837579533457756
1772648226743379700,2.729379638671875,0.5054675340652466,0.019840532913804054,-0.015180004760622978
1772648226753384400,2.739384521484375,0.52837073802948,0.16045531630516052,0.01784316450357437
1772648226763389200,2.74938916015625,0.5438170433044434,0.2376869171857834,0.045540016144514084
1772648226773393700,2.7593935546875,0.5427517890930176,0.2781669497489929,0.04181159287691116
1772648226783398400,2.7693984375,0.5406212210655212,0.2600574493408203,-0.023702112957835197
1772648226793403100,2.779403076171875,0.541686475276947,0.23342587053775787,-0.12223898619413376
1772648226803408000,2.789407958984375,0.5624591112136841,0.16418373584747314,-0.224504292011261
1772648226813412600,2.79941259765625,0.5731117725372314,0.02143842913210392,-0.31132325530052185
1772648226823417300,2.809417236328125,0.5709812641143799,-0.1495363712310791,-0.3890874981880188
1772648226833421800,2.819421875,0.5395559668540955,-0.3375553786754608,-0.4546011984348297
1772648226843426600,2.829426513671875,0.48256438970565796,-0.45846277475357056,-0.5036033391952515
1772648226853431300,2.839431396484375,0.3914843499660492,-0.5063996315002441,-0.5462138652801514
1772648226863436000,2.84943603515625,0.2684464156627655,-0.531965970993042,-0.5787044167518616
1772648226873440800,2.859440673828125,0.1363537311553955,-0.5612607002258301,-0.5989444255828857
1772648226883445500,2.869445556640625,0.03994738310575485,-0.5756417512893677,-0.5904223322868347
1772648226893450200,2.8794501953125,-0.04048001393675804,-0.5687175393104553,-0.5499423146247864
1772648226903455000,2.889455078125,-0.0756337121129036,-0.5719133615493774,-0.4775043725967407
1772648226913459500,2.89945947265625,-0.08735160529613495,-0.5340964794158936,-0.3805654048919678
1772648226923464200,2.909464111328125,-0.06657896935939789,-0.475506991147995,-0.28735482692718506
1772648226933469000,2.919468994140625,-0.03728422522544861,-0.4195806682109833,-0.21278639137744904
1772648226943473700,2.9294736328125,0.03994738310575485,-0.36525222659111023,-0.18402427434921265
1772648226953478400,2.939478515625,0.12410320341587067,-0.31198906898498535,-0.2090579718351364
1772648226963483100,2.949483154296875,0.21358533203601837,-0.2667153477668762,-0.25965797901153564
1772648226973487900,2.95948779296875,0.31425273418426514,-0.20066902041435242,-0.3235737979412079
1772648226983492400,2.969492431640625,0.39414751529693604,-0.14101426303386688,-0.3805654048919678
1772648226993497000,2.9794970703125,0.449008584022522,-0.12982898950576782,-0.4034685492515564
1772648227003501800,2.989501708984375,0.4793685972690582,-0.1122521460056305,-0.40080541372299194
1772648227013506600,2.999506591796875,0.45540016889572144,-0.18415743112564087,-0.36831486225128174
1772648227023511300,3.00951123046875,0.45060646533966064,-0.1921469122171402,-0.3363569676876068
1772648227033516000,3.01951611328125,0.42237699031829834,-0.16125427186489105,-0.3187801241874695
1772648227043520500,3.0295205078125,0.40746331214904785,-0.14793847501277924,-0.2996053695678711
1772648227053525200,3.039525146484375,0.39361485838890076,-0.10852371901273727,-0.2948116660118103
1772648227063530200,3.0495302734375,0.40799593925476074,-0.06325002014636993,-0.2862895727157593
1772648227073535200,3.05953515625,0.4234422445297241,-0.013715268112719059,-0.28682219982147217
1772648227083540200,3.069540283203125,0.4378232955932617,0.024101587012410164,-0.29214853048324585
1772648227093545200,3.079545166015625,0.4324969947338104,0.02197105996310711,-0.2841590344905853
1772648227103550200,3.08955029296875,0.4207790791988373,0.0011984214652329683,-0.2671148180961609
1772648227113555200,3.09955517578125,0.4000064432621002,-0.013715268112719059,-0.24048323929309845
1772648227123560200,3.109560302734375,0.3627222180366516,-0.07550055533647537,-0.1962748020887375
1772648227133565200,3.119565185546875,0.34727591276168823,-0.11598056554794312,-0.1392832100391388
1772648227143570200,3.129570068359375,0.32756853103637695,-0.15326479077339172,-0.07696528732776642
1772648227153575200,3.1395751953125,0.31798115372657776,-0.21824586391448975,-0.021571585908532143
1772648227163580000,3.149579833984375,0.32384011149406433,-0.259258508682251,-0.016777900978922844
1772648227173585000,3.1595849609375,0.31372010707855225,-0.27097639441490173,-0.040746331214904785
1772648227183590000,3.16958984375,0.30892643332481384,-0.2917490601539612,-0.07856318354606628
1772648227193595000,3.179594970703125,0.30839377641677856,-0.282161682844162,-0.120108462870121
1772648227203600000,3.189599853515625,0.30466535687446594,-0.259258508682251,-0.15526215732097626
1772648227213604900,3.19960498046875,0.28975167870521545,-0.22250692546367645,-0.1771000623703003
1772648227223609900,3.20960986328125,0.2732400894165039,-0.18522270023822784,-0.18082848191261292
1772648227233614800,3.21961474609375,0.27110958099365234,-0.17243953049182892,-0.17070847749710083
1772648227243619800,3.229619873046875,0.2540653645992279,-0.14580795168876648,-0.13715267181396484
1772648227253624800,3.239624755859375,0.19920428097248077,-0.12982898950576782,-0.10839056223630905
1772648227263629800,3.2496298828125,0.13741900026798248,-0.08668582141399384,-0.120108462870121
1772648227273634800,3.259634765625,0.070840023458004,0.0011984214652329683,-0.15952321887016296
1772648227283639800,3.269639892578125,-0.026631588116288185,0.12104056775569916,-0.18455690145492554
1772648227293644800,3.279644775390625,-0.1512674242258072,0.2462090253829956,-0.18828532099723816
1772648227303649800,3.28964990234375,-0.2918822169303894,0.39055225253105164,-0.18881796300411224
1772648227313654800,3.29965478515625,-0.4671180546283722,0.5828322768211365,-0.17923058569431305
1772648227323659800,3.30965966796875,-0.600275993347168,0.7452849745750427,-0.1669800579547882
1772648227333664800,3.319664794921875,-0.7211834192276001,0.8384955525398254,-0.12064109742641449
1772648227343669800,3.329669677734375,-0.8005455136299133,0.8613986968994141,-0.021571585908532143
1772648227353674800,3.3396748046875,-0.8367645144462585,0.7612639665603638,0.10785793513059616
1772648227363679700,3.3496796875,-0.8996150493621826,0.48429542779922485,0.24474430084228516
1772648227373684700,3.359684814453125,-0.9539434909820557,0.23449113965034485,0.35712960362434387
1772648227383689700,3.369689697265625,-1.0135982036590576,0.020373165607452393,0.45832961797714233
1772648227393694700,3.37969482421875,-1.048751950263977,-0.21664796769618988,0.5653886198997498
1772648227403699700,3.38969970703125,-1.0652635097503662,-0.43982067704200745,0.6772412657737732
1772648227413704700,3.39970458984375,-1.0551434755325317,-0.6193175911903381,0.7597991824150085
1772648227423709400,3.40970947265625,-0.9816403388977051,-0.7199850082397461,0.7645928859710693
1772648227433714400,3.41971435546875,-0.8410255312919617,-0.7572692036628723,0.7177212834358215
1772648227443719400,3.429719482421875,-0.6700507402420044,-0.7130607962608337,0.6021401882171631
1772648227453724400,3.439724365234375,-0.4953475296497345,-0.6427533626556396,0.4508727788925171
1772648227463729400,3.4497294921875,-0.32863378524780273,-0.552738606929779,0.3006706237792969
1772648227473734400,3.459734375,-0.18216006457805634,-0.45793014764785767,0.19680742919445038
1772648227483739400,3.469739501953125,-0.06551370769739151,-0.334892213344574,0.18082848191261292
1772648227493744400,3.479744384765625,-0.023968428373336792,-0.2629869282245636,0.25007060170173645
1772648227503749400,3.489749267578125,-0.019174743443727493,-0.18628795444965363,0.3358243405818939
1772648227513754400,3.49975439453125,-0.06178528442978859,-0.1261005699634552,0.3933485448360443
1772648227523759400,3.50975927734375,-0.14008215069770813,-0.09840371459722519,0.40932750701904297
1772648227533764400,3.519764404296875,-0.2221074402332306,-0.11970898509025574,0.40559908747673035
1772648227543769300,3.529769287109375,-0.27483800053596497,-0.07656581699848175,0.39494645595550537
1772648227553774300,3.5397744140625,-0.30892643332481384,0.015046847052872181,0.3890874981880188
1772648227563779000,3.549779052734375,-0.32650327682495117,0.1279647797346115,0.40453383326530457
1772648227573784000,3.5597841796875,-0.33609065413475037,0.2179795503616333,0.432230681180954
1772648227583788800,3.569788818359375,-0.3190464377403259,0.3079943060874939,0.47164541482925415
1772648227593793800,3.579793701171875,-0.2929474711418152,0.39587855339050293,0.4988096356391907
1772648227603798500,3.589798583984375,-0.24288007616996765,0.47950175404548645,0.5014728307723999
1772648227613803500,3.599803466796875,-0.19654111564159393,0.5652554631233215,0.474308580160141
1772648227623808300,3.609808349609375,-0.1597895324230194,0.6115944385528564,0.43436118960380554
1772648227633813200,3.619813232421875,-0.13369056582450867,0.6083986163139343,0.388022243976593
1772648227643818000,3.62981787109375,-0.12410320341587067,0.5849628448486328,0.35872748494148254
1772648227653823000,3.639822998046875,-0.11398319900035858,0.5428849458694458,0.3331611752510071
1772648227663827700,3.64982763671875,-0.0942758247256279,0.4826975464820862,0.30599695444107056
1772648227673832400,3.65983251953125,-0.0756337121129036,0.4209122359752655,0.255929559469223
1772648227683837400,3.66983740234375,-0.055393703281879425,0.37191012501716614,0.1717737466096878
1772648227693842200,3.67984228515625,-0.042610540986061096,0.3490069508552551,0.05193159729242325
1772648227703847200,3.68984716796875,-0.03621895983815193,0.33249539136886597,-0.06418212503194809
1772648227713852000,3.699851806640625,-0.0378168560564518,0.32024484872817993,-0.15526215732097626
1772648227723857000,3.70985693359375,-0.030892642214894295,0.27710166573524475,-0.223439022898674
1772648227733861600,3.719861572265625,-0.023968428373336792,0.20572902262210846,-0.2900179922580719
1772648227743866600,3.72986669921875,-0.005326317623257637,0.14607426524162292,-0.34434643387794495
1772648227753871400,3.739871337890625,0.03355580195784569,0.11198582500219345,-0.37310853600502014
1772648227763876400,3.74987646484375,0.08309055864810944,0.07310371100902557,-0.3699127733707428
1772648227773881000,3.759881103515625,0.13475583493709564,0.03368895873427391,-0.3454116880893707
1772648227783885800,3.7698857421875,0.1693768948316574,-0.0025300008710473776,-0.3193127512931824
1772648227793890800,3.779890869140625,0.17523585259914398,-0.01584579423069954,-0.31025800108909607
1772648227803895800,3.789895751953125,0.14913690090179443,-0.03874896094202995,-0.2798979878425598
1772648227813900500,3.799900634765625,0.08628634363412857,0.0006657897029072046,-0.2330264002084732
1772648227823905300,3.8099052734375,0,0.11198582500219345,-0.18402427434921265
1772648227833910300,3.81991015625,0.003728422336280346,0.1572595238685608,-0.1392832100391388
1772648227843915000,3.8299150390625,0.01438105758279562,0.1098553016781807,-0.0966726616024971
1772648227853920000,3.839919921875,0.012783162295818329,0.039547909051179886,-0.035420011729002
1772648227863924700,3.8499248046875,0.0010652635246515274,-0.02756369300186634,0.03488738089799881
1772648227873929700,3.8599296875,-0.03195790573954582,-0.05313001945614815,0.12596741318702698
1772648227883934500,3.8699345703125,-0.066046342253685,-0.058988966047763824,0.2612558901309967
1772648227893939500,3.879939453125,-0.07936213165521622,-0.04833633080124855,0.4221106767654419
1772648227903944200,3.889944091796875,-0.066046342253685,0.02623211406171322,0.5456812381744385
1772648227913949200,3.89994921875,-0.030892642214894295,0.1759016364812851,0.6394244432449341
1772648227923954000,3.909953857421875,-0.022903166711330414,0.2744385302066803,0.7507444620132446
1772648227933958700,3.919958740234375,-0.021837901324033737,0.22170796990394592,0.7427549958229065
1772648227943963600,3.929963623046875,-0.034621063619852066,-0.007856318727135658,0.44714435935020447
1772648227953968400,3.939968505859375,-0.09640634804964066,-0.1213068813085556,0.05459475517272949
1772648227963973400,3.949973388671875,-0.18162743747234344,-0.12876373529434204,-0.06098633632063866
1772648227973978000,3.95997802734375,-0.21518322825431824,-0.18895111978054047,0.12650004029273987
1772648227983983000,3.969983154296875,-0.12410320341587067,-0.1964079588651657,0.25060325860977173
1772648227993987800,3.97998779296875,0.04048001393675804,-0.2587258815765381,0.18455690145492554
1772648228003992800,3.989992919921875,0.06657896935939789,-0.17989638447761536,0.05938844010233879
1772648228013997600,3.99999755859375,0.09853687882423401,-0.0366184338927269,-0.05193159729242325
1772648228024002600,4.01000244140625,0.13315793871879578,0.07789739221334457,-0.1249021515250206
1772648228034007300,4.02000732421875,0.1885516494512558,0.10665950924158096,-0.147805318236351
1772648228044012000,4.030011962890625,0.24447797238826752,0.11997530609369278,-0.15472953021526337
1772648228054017000,4.04001708984375,0.34088432788848877,0.2089248150587082,-0.13715267181396484
1772648228064021800,4.050021728515625,0.44581279158592224,0.3910848796367645,-0.05938844010233879
1772648228074026200,4.060026123046875,0.545414924621582,0.5785712599754333,0.07163897156715393
1772648228084031000,4.070031005859375,0.5853623151779175,0.668053388595581,0.17816533148288727
1772648228094035500,4.080035400390625,0.5640570521354675,0.6302365064620972,0.190948486328125
1772648228104040200,4.090040283203125,0.5427517890930176,0.5151880979537964,0.10732530057430267
1772648228114044700,4.100044677734375,0.524642288684845,0.4203796088695526,-0.005060001742094755
1772648228124049400,4.11004931640625,0.4937496483325958,0.28242799639701843,-0.12383688241243362
1772648228134054100,4.12005419921875,0.46392226219177246,0.09707213938236237,-0.24527692794799805
1772648228144058600,4.13005859375,0.43729066848754883,-0.111719511449337,-0.3853590786457062
1772648228154063400,4.1400634765625,0.4287685751914978,-0.3098585307598114,-0.4977443814277649
1772648228164067800,4.15006787109375,0.4016043543815613,-0.43875542283058167,-0.5675191283226013
1772648228174072600,4.160072509765625,0.329166442155838,-0.46219122409820557,-0.6069338917732239
1772648228184077000,4.1700771484375,0.22050954401493073,-0.4611259400844574,-0.6330328583717346
1772648228194081800,4.180081787109375,0.08522108197212219,-0.4744417369365692,-0.6490117907524109
1772648228204086300,4.190086181640625,-0.02876211516559124,-0.4787027835845947,-0.6367612481117249
1772648228214091000,4.200091064453125,-0.08362318575382233,-0.4701806902885437,-0.5744433403015137
1772648228224095700,4.210095703125,-0.11398319900035858,-0.43555963039398193,-0.47058016061782837
1772648228234100200,4.220100341796875,-0.1038631945848465,-0.3945469856262207,-0.3555316925048828
1772648228244105000,4.23010498046875,-0.08522108197212219,-0.3434143364429474,-0.26818010210990906
1772648228254109400,4.240109375,-0.03408843278884888,-0.3087932765483856,-0.20852532982826233
1772648228264114200,4.2501142578125,0.0282294824719429,-0.2342248111963272,-0.18722006678581238
1772648228274118700,4.26011865234375,0.13741900026798248,-0.1729721575975418,-0.20639480650424957
1772648228284123400,4.270123291015625,0.2396842986345291,-0.09627319127321243,-0.26019060611724854
1772648228294127900,4.2801279296875,0.3446127474308014,-0.06165212765336037,-0.3555316925048828
1772648228304132600,4.290132568359375,0.449008584022522,-0.01957421749830246,-0.46152541041374207
1772648228314137000,4.30013720703125,0.5198485851287842,-0.021704744547605515,-0.5408875346183777
1772648228324141800,4.310141845703125,0.5384907126426697,-0.14793847501277924,-0.5531380772590637
1772648228334146600,4.320146484375,0.5539370179176331,-0.2347574532032013,-0.5243759751319885
1772648228344151000,4.330151123046875,0.5390233397483826,-0.3008037805557251,-0.4961465001106262
1772648228354155800,4.34015576171875,0.52091383934021,-0.3514038026332855,-0.4695149064064026
1772648228364160300,4.35016015625,0.49694544076919556,-0.3716438114643097,-0.45193806290626526
1772648228374165000,4.3601650390625,0.4767054319381714,-0.3753722310066223,-0.42477384209632874
1772648228384169500,4.37016943359375,0.46871596574783325,-0.35406696796417236,-0.39547908306121826
1772648228394174200,4.38017431640625,0.45433488488197327,-0.33968591690063477,-0.37204328179359436
1772648228404178700,4.3901787109375,0.44048646092414856,-0.3482080101966858,-0.3363569676876068
1772648228414183400,4.400183349609375,0.42290961742401123,-0.3657848536968231,-0.2857569456100464
1772648228424188200,4.410188232421875,0.38349485397338867,-0.40306907892227173,-0.21811270713806152
1772648228434192600,4.420192626953125,0.3531348705291748,-0.4366248846054077,-0.1350221484899521
1772648228444197400,4.430197265625,0.3344927430152893,-0.433429092168808,-0.06418212503194809
1772648228454201900,4.440201904296875,0.32650327682495117,-0.41638487577438354,-0.013049477711319923
1772648228464206600,4.45020654296875,0.3153179883956909,-0.39721015095710754,0.012516846880316734
1772648228474211000,4.460211181640625,0.30360010266304016,-0.36951327323913574,0.019441058859229088
1772648228484215800,4.4702158203125,0.29987168312072754,-0.3279680013656616,-0.0023968429304659367
1772648228494220500,4.480220458984375,0.30360010266304016,-0.2672479748725891,-0.028495799750089645
1772648228504225000,4.49022509765625,0.31265485286712646,-0.19534270465373993,-0.049801070243120193
1772648228514229800,4.500229736328125,0.3206443190574646,-0.1261005699634552,-0.08069371432065964
1772648228524234200,4.510234130859375,0.3296990692615509,-0.04460791125893593,-0.120108462870121
1772648228534239000,4.520239013671875,0.29880642890930176,0.003861580276861787,-0.15419688820838928
1772648228544243500,4.530243408203125,0.2450106143951416,-0.0030626326333731413,-0.15899057686328888
1772648228554248200,4.540248291015625,0.18216006457805634,0.02197105996310711,-0.15686005353927612
1772648228564253200,4.550253173828125,0.09747160971164703,0.06351634114980698,-0.1536642611026764
1772648228574258200,4.560258056640625,-0.006391581147909164,0.1620532125234604,-0.16911058127880096
1772648228584263200,4.57026318359375,-0.1512674242258072,0.3229080140590668,-0.18722006678581238
1772648228594268400,4.580268310546875,-0.29507800936698914,0.5189164876937866,-0.190948486328125
1772648228604273400,4.5902734375,-0.4346275329589844,0.7335671186447144,-0.21704743802547455
1772648228614278400,4.6002783203125,-0.6119939088821411,0.9263797998428345,-0.21864533424377441
1772648228624283600,4.61028369140625,-0.7435539364814758,1.0653966665267944,-0.15100111067295074
1772648228634288600,4.62028857421875,-0.8170571327209473,1.1128009557724,-0.02689790353178978
1772648228644293600,4.630293701171875,-0.8820381760597229,0.9562071561813354,0.15579478442668915
1772648228654299000,4.640298828125,-0.9203876852989197,0.7085334062576294,0.33728906512260437
1772648228664303900,4.650303955078125,-0.9518129825592041,0.44647857546806335,0.47417542338371277
1772648228674309000,4.66030908203125,-0.9773792624473572,0.13222584128379822,0.5796365141868591
1772648228684314000,4.670314208984375,-0.9922930002212524,-0.12716583907604218,0.6462154984474182
1772648228694319000,4.680319091796875,-0.994423508644104,-0.3897532820701599,0.6946849822998047
1772648228704324400,4.690324462890625,-0.9901624321937561,-0.607599675655365,0.7165228724479675
1772648228714329300,4.700329345703125,-0.9161266088485718,-0.7322354912757874,0.6717818379402161
1772648228724334300,4.710334228515625,-0.7808381915092468,-0.7673892378807068,0.5828322768211365
1772648228734339600,4.720339599609375,-0.6167875528335571,-0.720517635345459,0.4576638340950012
1772648228744344600,4.730344482421875,-0.44048646092414856,-0.5820333361625671,0.3271690607070923
1772648228754349800,4.740349853515625,-0.27164220809936523,-0.37856802344322205,0.2227732390165329
1772648228764354800,4.750354736328125,-0.13049478828907013,-0.1926795393228531,0.1519332081079483
1772648228774359800,4.76035986328125,-0.026098955422639847,-0.01584579423069954,0.16311848163604736
1772648228784365000,4.770364990234375,0.0330231711268425,0.13169319927692413,0.24354587495326996
1772648228794370000,4.7803701171875,0.04048001393675804,0.26804694533348083,0.3458111584186554
1772648228804375000,4.790375,0.00852210819721222,0.3601922392845154,0.41824910044670105
1772648228814380300,4.80038037109375,-0.06764423102140427,0.3740406632423401,0.4534027874469757
1772648228824385300,4.81038525390625,-0.16671374440193176,0.37244275212287903,0.46565333008766174
1772648228834390300,4.820390380859375,-0.2450106143951416,0.39587855339050293,0.4768385887145996
1772648228844395500,4.8303955078125,-0.3115895688533783,0.3921501338481903,0.48536068201065063
1772648228854400500,4.840400390625,-0.3680485486984253,0.3798995912075043,0.5018723011016846
1772648228864405500,4.850405517578125,-0.404800146818161,0.37244275212287903,0.5471459627151489
1772648228874410800,4.86041064453125,-0.4106590747833252,0.4022701382637024,0.5940175652503967
1772648228884415700,4.870415771484375,-0.39894118905067444,0.47417542338371277,0.6153228282928467
1772648228894420700,4.880420654296875,-0.3691138029098511,0.5444828271865845,0.6083986163139343
1772648228904426000,4.890426025390625,-0.33236223459243774,0.6020070314407349,0.5668533444404602
1772648228914431000,4.900430908203125,-0.3051980137825012,0.601474404335022,0.5119922757148743
1772648228924436200,4.910436279296875,-0.27537062764167786,0.5700491666793823,0.45606595277786255
1772648228934441200,4.920441162109375,-0.24927166104316711,0.5205143690109253,0.40440067648887634
1772648228944446200,4.9304462890625,-0.21518322825431824,0.4304996132850647,0.3538006544113159
1772648228954451500,4.940451416015625,-0.18269269168376923,0.33356064558029175,0.29627642035484314
1772648228964456400,4.95045654296875,-0.14807163178920746,0.2552637755870819,0.2179795503616333
1772648228974461400,4.96046142578125,-0.11558109521865845,0.21957744657993317,0.1141163557767868
1772648228984466700,4.970466796875,-0.09853687882423401,0.22490376234054565,-0.02383527159690857
1772648228994471700,4.9804716796875,-0.0942758247256279,0.23449113965034485,-0.1681784838438034
1772648229004476700,4.9904765625,-0.09108003228902817,0.231827974319458,-0.2816290557384491
1772648229014482000,5.00048193359375,-0.07669897377490997,0.22490376234054565,-0.36898064613342285
1772648229024487000,5.01048681640625,-0.04580633342266083,0.2137184888124466,-0.4238417148590088
1772648229034492200,5.0204921875,-0.006391581147909164,0.1902827024459839,-0.4371575117111206
1772648229044497200,5.0304970703125,0.042610540986061096,0.18655426800251007,-0.414254367351532
1772648229054502100,5.040502197265625,0.0846884474158287,0.14820478856563568,-0.3721764385700226
1772648229064507000,5.0505068359375,0.13528846204280853,0.14927005767822266,-0.32690274715423584
1772648229074511400,5.060511474609375,0.1651158481836319,0.16737952828407288,-0.26937851309776306
1772648229084516000,5.07051611328125,0.14753900468349457,0.18282584846019745,-0.20066902041435242
1772648229094520600,5.0805205078125,0.09960214048624039,0.17430374026298523,-0.13941636681556702
1772648229104525300,5.090525390625,0.042610540986061096,0.20253323018550873,-0.09254477173089981
1772648229114529800,5.10052978515625,-0.011717898771166801,0.318114310503006,-0.0600542314350605
1772648229124534300,5.1105341796875,-0.02503369376063347,0.40013960003852844,-0.05579317733645439
1772648229134539000,5.1205390625,0.01438105758279562,0.3772364556789398,-0.06378265470266342
1772648229144543500,5.13054345703125,0.04527369886636734,0.25260061025619507,-0.05632580816745758
1772648229154548200,5.14054833984375,0.08255792409181595,0.08215844631195068,-0.03555316850543022
1772648229164552700,5.150552734375,0.11132004112005234,-0.08881634473800659,0.011318424716591835
1772648229174557200,5.16055712890625,0.1129179298877716,-0.20865848660469055,0.10825740545988083
1772648229184562000,5.17056201171875,0.0798947662115097,-0.28482484817504883,0.2888195812702179
1772648229194566400,5.18056640625,0.04846949130296707,-0.32583749294281006,0.4443480372428894
1772648229204571100,5.190571044921875,-0.003728422336280346,-0.27044376730918884,0.5226449370384216
1772648229214575600,5.20057568359375,-0.050600018352270126,-0.16658058762550354,0.6270407438278198
1772648229224580000,5.210580078125,-0.06498107314109802,-0.13675320148468018,0.8097334504127502
1772648229234584800,5.220584716796875,-0.11398319900035858,-0.28482484817504883,0.7138597369194031
1772648229244589300,5.23058935546875,-0.17257268726825714,-0.4099932909011841,0.23928481340408325
1772648229254594000,5.240593994140625,-0.2407495528459549,-0.22250692546367645,-0.10213214159011841
1772648229264598500,5.2505986328125,-0.2828274667263031,-0.17457005381584167,0.043276332318782806
1772648229274603000,5.26060302734375,-0.21305270493030548,-0.1868205964565277,0.3063964247703552
1772648229284607700,5.270607666015625,-0.027696851640939713,-0.2581932544708252,0.37191012501716614
1772648229294612200,5.2806123046875,0.06977476179599762,-0.24168166518211365,0.26804694533348083
1772648229304617000,5.290616943359375,0.08149266242980957,-0.06910897046327591,0.10825740545988083
1772648229314621400,5.300621337890625,0.10759161412715912,0.10932266712188721,-0.022770008072257042
1772648229324626200,5.310626220703125,0.1597895324230194,0.19827216863632202,-0.08082687109708786
1772648229334630700,5.320630615234375,0.22050954401493073,0.2185121774673462,-0.11118687689304352
1772648229344635100,5.33063525390625,0.27537062764167786,0.27656903862953186,-0.1255679428577423
1772648229354640000,5.340639892578125,0.37976643443107605,0.4587291181087494,-0.10479529947042465
1772648229364644400,5.350644287109375,0.480433851480484,0.6691186428070068,-0.01584579423069954
1772648229374649000,5.360649169921875,0.5336970090866089,0.7996134161949158,0.09867003560066223
1772648229384653600,5.370653564453125,0.5731117725372314,0.7942871451377869,0.15459637343883514
1772648229394658000,5.380657958984375,0.5832318067550659,0.7388933897018433,0.10186582803726196
1772648229404662800,5.390662841796875,0.5539370179176331,0.6952176094055176,-0.029694220051169395
1772648229414667300,5.400667236328125,0.5406212210655212,0.6179860234260559,-0.18362480401992798
1772648229424672000,5.410672119140625,0.5203812122344971,0.44701120257377625,-0.35992592573165894
1772648229434676500,5.420676513671875,0.5294359922409058,0.199337437748909,-0.5394228100776672
1772648229444681000,5.430680908203125,0.5390233397483826,-0.04727106913924217,-0.6816354990005493
1772648229454685700,5.440685791015625,0.5150549411773682,-0.21238692104816437,-0.7583344578742981
1772648229464690200,5.450690185546875,0.42557278275489807,-0.2779006361961365,-0.7886945009231567
1772648229474695000,5.46069482421875,0.2737727165222168,-0.3151848316192627,-0.7897597551345825
1772648229484699400,5.470699462890625,0.12037477642297745,-0.35087117552757263,-0.7599323391914368
1772648229494703900,5.480703857421875,-0.02077263966202736,-0.3817638158798218,-0.7141260504722595
1772648229504708600,5.49070849609375,-0.11025477200746536,-0.38709014654159546,-0.6225133538246155
1772648229514713000,5.500713134765625,-0.174170583486557,-0.3615238070487976,-0.475506991147995
1772648229524717800,5.5107177734375,-0.21358533203601837,-0.33595749735832214,-0.31678274273872375
1772648229534722300,5.520722412109375,-0.21571587026119232,-0.31731536984443665,-0.1830921620130539
1772648229544726800,5.530726806640625,-0.1699095368385315,-0.30826061964035034,-0.11065424978733063
1772648229554731500,5.5407314453125,-0.11558109521865845,-0.2773679792881012,-0.1074584573507309
1772648229564736500,5.550736572265625,-0.055393703281879425,-0.20439743995666504,-0.15539531409740448
1772648229574741500,5.560741455078125,0.04527369886636734,-0.1266331970691681,-0.2390184998512268
1772648229584746500,5.57074658203125,0.15393057465553284,-0.07337002456188202,-0.3428817093372345
1772648229594751500,5.58075146484375,0.25300008058547974,-0.01957421749830246,-0.4185154139995575
1772648229604756500,5.590756591796875,0.33182957768440247,0.043276332318782806,-0.44354909658432007
1772648229614761500,5.600761474609375,0.3547327518463135,0.005992107093334198,-0.4083954095840454
1772648229624766700,5.6107666015625,0.3547327518463135,-0.07017423212528229,-0.35033854842185974
1772648229634771700,5.620771728515625,0.32863378524780273,-0.17137427628040314,-0.30666273832321167
1772648229644776700,5.630776611328125,0.2972085177898407,-0.26085641980171204,-0.2864227294921875
1772648229654781700,5.64078173828125,0.2822948396205902,-0.301336407661438,-0.27949851751327515
1772648229664786700,5.65078662109375,0.29454535245895386,-0.2773679792881012,-0.2826943099498749
1772648229674791700,5.660791748046875,0.3211769461631775,-0.21291954815387726,-0.29760798811912537
1772648229684797000,5.670796875,0.36432012915611267,-0.13941636681556702,-0.3141195774078369
1772648229694802000,5.680802001953125,0.4207790791988373,-0.0978710874915123,-0.3237069547176361
1772648229704807000,5.690806884765625,0.46019384264945984,-0.08455529063940048,-0.3141195774078369
1772648229714812000,5.70081201171875,0.4772380590438843,-0.15699321031570435,-0.2720416784286499
1772648229724817000,5.71081689453125,0.47777068614959717,-0.2736395597457886,-0.20812585949897766
1772648229734822000,5.72082177734375,0.47457489371299744,-0.39241644740104675,-0.14687320590019226
1772648229744827100,5.7308271484375,0.45007383823394775,-0.4829638600349426,-0.10639319568872452
1772648229754832100,5.74083203125,0.4149201512336731,-0.5154544115066528,-0.079228974878788
1772648229764837000,5.750837158203125,0.3824295997619629,-0.49042069911956787,-0.08668582141399384
1772648229774842000,5.760842041015625,0.3760380148887634,-0.422776460647583,-0.1213068813085556
1772648229784847000,5.77084716796875,0.3723095953464508,-0.33968591690063477,-0.1639174222946167
1772648229794852000,5.78085205078125,0.36165696382522583,-0.2725743055343628,-0.20066902041435242
1772648229804857300,5.790857421875,0.34088432788848877,-0.2294311374425888,-0.2294311374425888
1772648229814862300,5.8008623046875,0.2817622125148773,-0.23635534942150116,-0.22730059921741486
1772648229824867300,5.810867431640625,0.1976063847541809,-0.27896589040756226,-0.19321216642856598
1772648229834872300,5.820872314453125,0.0846884474158287,-0.3391532599925995,-0.17510269582271576
1772648229844877300,5.830877197265625,-0.04420843720436096,-0.3423490524291992,-0.18415743112564087
1772648229854882300,5.84088232421875,-0.18748638033866882,-0.2613890469074249,-0.19853848218917847
1772648229864887600,5.850887451171875,-0.3446127474308014,-0.08721844851970673,-0.20066902041435242
1772648229874892500,5.860892578125,-0.5091959834098816,0.1711079478263855,-0.1916142702102661
1772648229884897500,5.8708974609375,-0.658332884311676,0.4523375332355499,-0.1868205964565277
1772648229894902500,5.880902587890625,-0.8016108274459839,0.693087100982666,-0.1644500494003296
1772648229904907500,5.890907470703125,-0.9118655920028687,0.840626060962677,-0.09254477173089981
1772648229914912500,5.90091259765625,-0.9795098304748535,0.8400934338569641,0.028362641111016273
1772648229924917800,5.910917724609375,-1.0008150339126587,0.7080007791519165,0.1753690093755722
1772648229934922800,5.9209228515625,-0.9949561357498169,0.43635857105255127,0.30905959010124207
1772648229944927700,5.930927734375,-0.9816403388977051,0.14181320369243622,0.405998557806015
1772648229954932700,5.9409326171875,-0.9843034744262695,-0.13462267816066742,0.48482805490493774
1772648229964937700,5.950937744140625,-0.9917603135108948,-0.4041343629360199,0.5508744120597839
1772648229974942700,5.960942626953125,-1.007206678390503,-0.6235786080360413,0.6201165318489075
1772648229984948000,5.970947998046875,-0.982172966003418,-0.7775092124938965,0.647280752658844
1772648229994953000,5.980952880859375,-0.906539261341095,-0.8536755442619324,0.6110618114471436
1772648230004958000,5.9909580078125,-0.7680550217628479,-0.8755134344100952,0.5412870049476624
1772648230014963000,6.000962890625,-0.608798086643219,-0.8318376541137695,0.450206995010376
1772648230024968000,6.010968017578125,-0.4303664565086365,-0.741290271282196,0.33409327268600464
1772648230034973000,6.020972900390625,-0.272707462310791,-0.6518081426620483,0.21158796548843384
1772648230044978200,6.030978271484375,-0.13209268450737,-0.5937512516975403,0.14341109991073608
1772648230054983200,6.040983154296875,-0.0282294824719429,-0.5394228100776672,0.1572595238685608
1772648230064988000,6.05098779296875,0.011717898771166801,-0.4952143728733063,0.2185121774673462
1772648230074993000,6.060992919921875,-0.007989476434886456,-0.4046669900417328,0.28615641593933105
1772648230084997600,6.07099755859375,-0.0846884474158287,-0.31625011563301086,0.32823431491851807
1772648230095002400,6.08100244140625,-0.17150743305683136,-0.21877849102020264,0.3447459042072296
1772648230105007400,6.09100732421875,-0.27164220809936523,-0.10053424537181854,0.34740906953811646
1772648230115012000,6.10101220703125,-0.33609065413475037,0.040613170713186264,0.36232274770736694
1772648230125016800,6.111016845703125,-0.3691138029098511,0.18389111757278442,0.3868238031864166
1772648230135021800,6.121021728515625,-0.3952127695083618,0.26804694533348083,0.4145206809043884
1772648230145026600,6.131026611328125,-0.3957453966140747,0.32823431491851807,0.4539354145526886
1772648230155031300,6.14103125,-0.3632548749446869,0.4294343590736389,0.504535436630249
1772648230165036300,6.151036376953125,-0.3190464377403259,0.5151880979537964,0.5407543778419495
1772648230175041000,6.161041015625,-0.272707462310791,0.5945501923561096,0.5524722933769226
1772648230185046000,6.1710458984375,-0.21997691690921783,0.6744449734687805,0.5402217507362366
1772648230195050800,6.18105078125,-0.1699095368385315,0.7069355249404907,0.4970785975456238
1772648230205055500,6.191055419921875,-0.12037477642297745,0.6803039312362671,0.43742382526397705
1772648230215060500,6.201060546875,-0.07137265801429749,0.6025396585464478,0.3697795867919922
1772648230225065200,6.211065185546875,-0.04207791015505791,0.4901543855667114,0.30479851365089417
1772648230235070200,6.2210703125,-0.019174743443727493,0.37084487080574036,0.23981745541095734
1772648230245075000,6.231074951171875,-0.006391581147909164,0.26378586888313293,0.17004269361495972
1772648230255079700,6.24107958984375,-0.006924212910234928,0.1897500604391098,0.08322371542453766
1772648230265084700,6.251084716796875,-0.02503369376063347,0.11571425199508667,-0.0073236869648098946
1772648230275089400,6.26108935546875,-0.046871595084667206,0.07789739221334457,-0.10373003780841827
1772648230285094100,6.27109423828125,-0.070840023458004,0.0720384493470192,-0.18841849267482758
1772648230295099100,6.28109912109375,-0.07882949709892273,0.056059494614601135,-0.24594271183013916
1772648230305104000,6.291103759765625,-0.07137265801429749,0.043276332318782806,-0.27470484375953674
1772648230315108900,6.30110888671875,-0.06711160391569138,0.007590002380311489,-0.28908589482307434
1772648230325113600,6.311113525390625,-0.05006738752126694,0.02996053732931614,-0.2917490601539612
1772648230335118300,6.321118408203125,-0.022903166711330414,0.052331071346998215,-0.2826943099498749
1772648230345123300,6.331123291015625,0.004793685860931873,0.09707213938236237,-0.2581932544708252
1772648230355128000,6.341128173828125,0.026098955422639847,0.19134795665740967,-0.21718059480190277
1772648230365132800,6.3511328125,0.02876211516559124,0.3266364336013794,-0.1735047996044159
1772648230375137800,6.3611376953125,0.012250530533492565,0.39907434582710266,-0.11438266932964325
1772648230385142500,6.371142578125,-0.018642112612724304,0.47577333450317383,-0.03715106472373009
1772648230395147500,6.3811474609375,0.0005326317623257637,0.47950175404548645,0.036352116614580154
1772648230405152300,6.39115234375,0.034621063619852066,0.44754382967948914,0.07363633811473846
1772648230415157000,6.401156982421875,0.05006738752126694,0.37563854455947876,0.08215844631195068
1772648230425162000,6.411161865234375,0.059122126549482346,0.2595248222351074,0.09387634694576263
1772648230435166700,6.421166748046875,0.07190528512001038,0.11731214821338654,0.13435636460781097
1772648230445171500,6.43117138671875,0.08096002787351608,-0.008388950489461422,0.2227732390165329
1772648230455176400,6.441176513671875,0.10333056002855301,-0.08135949820280075,0.3367564380168915
1772648230465181200,6.45118115234375,0.15180005133152008,-0.1165132001042366,0.4629901647567749
1772648230475186200,6.461186279296875,0.18002954125404358,-0.08881634473800659,0.5652554631233215
1772648230485191000,6.47119091796875,0.1603221595287323,-0.03874896094202995,0.6211817860603333
1772648230495195600,6.481195556640625,0.12357056885957718,-0.04087948799133301,0.6392912864685059
1772648230505200600,6.49120068359375,0.07882949709892273,-0.1213068813085556,0.588691234588623
1772648230515205400,6.501205322265625,0.030892642214894295,-0.2853574752807617,0.3655185401439667
1772648230525210000,6.511210205078125,-0.007989476434886456,-0.44035330414772034,0.018242638558149338
1772648230535215000,6.521215087890625,-0.0010652635246515274,-0.40626487135887146,-0.16285216808319092
1772648230545219800,6.5312197265625,0.046871595084667206,-0.410525918006897,-0.007856318727135658
1772648230555224600,6.541224609375,0.15233267843723297,-0.5335638523101807,0.20093533396720886
1772648230565229000,6.55122900390625,0.2636527121067047,-0.616121768951416,0.24567639827728271
1772648230575233800,6.56123388671875,0.2593916654586792,-0.5426186323165894,0.18868480622768402
1772648230585238300,6.57123828125,0.2498043030500412,-0.4328964650630951,0.06884265691041946
1772648230595242800,6.58124267578125,0.21571587026119232,-0.3231743276119232,-0.06910897046327591
1772648230605247200,6.591247314453125,0.17150743305683136,-0.26618272066116333,-0.17989638447761536
1772648230615251700,6.601251708984375,0.14860425889492035,-0.23742060363292694,-0.2587258815765381
1772648230625256200,6.611256103515625,0.1459411084651947,-0.1868205964565277,-0.29387956857681274
1772648230635260700,6.6212607421875,0.174170583486557,-0.0930773988366127,-0.27523747086524963
1772648230645265200,6.63126513671875,0.22849902510643005,0.03049316816031933,-0.2059953361749649
1772648230655269600,6.64126953125,0.30945906043052673,0.13701951503753662,-0.11598056554794312
1772648230665274000,6.651274169921875,0.4005391001701355,0.21531638503074646,-0.03342264145612717
1772648230675278600,6.661278564453125,0.4580633044242859,0.2802974581718445,0.018242638558149338
1772648230685283000,6.671282958984375,0.48895594477653503,0.34687644243240356,0.01717737503349781
1772648230695287600,6.68128759765625,0.49694544076919556,0.36232274770736694,-0.04673843830823898
1772648230705292000,6.6912919921875,0.48842331767082214,0.29893958568573,-0.1596563756465912
1772648230715296500,6.701296630859375,0.4900212287902832,0.15033531188964844,-0.29387956857681274
1772648230725301000,6.711301025390625,0.4623243808746338,-0.028628956526517868,-0.40679749846458435
1772648230735305500,6.721305419921875,0.4293012022972107,-0.18415743112564087,-0.47817015647888184
1772648230745310000,6.73131005859375,0.3691138029098511,-0.27949851751327515,-0.5202480554580688
1772648230755314400,6.741314453125,0.26205483078956604,-0.35513222217559814,-0.552738606929779
1772648230765319000,6.75131884765625,0.12303793430328369,-0.4371575117111206,-0.5767070651054382
1772648230775323400,6.761323486328125,-0.017576847225427628,-0.49201858043670654,-0.5878922939300537
1772648230785327900,6.771327880859375,-0.12836425006389618,-0.5388901829719543,-0.5591301918029785
1772648230795332400,6.781332275390625,-0.2125200778245926,-0.5458143949508667,-0.47817015647888184
1772648230805336800,6.7913369140625,-0.2599242925643921,-0.5117259621620178,-0.3620564341545105
1772648230815341300,6.80134130859375,-0.2599242925643921,-0.4382227957248688,-0.23262691497802734
1772648230825345800,6.811345703125,-0.22264008224010468,-0.3609911799430847,-0.12876373529434204
1772648230835350300,6.821350341796875,-0.14753900468349457,-0.2613890469074249,-0.07123950123786926
1772648230845354800,6.831354736328125,-0.04846949130296707,-0.16604794561862946,-0.05153212323784828
1772648230855359200,6.841359130859375,0.05752423033118248,-0.07123950123786926,-0.06910897046327591
1772648230865363700,6.85136376953125,0.15659373998641968,-0.037683695554733276,-0.11917635798454285
1772648230875368200,6.8613681640625,0.24660851061344147,-0.00519315991550684,-0.20812585949897766
1772648230885372700,6.87137255859375,0.33182957768440247,0.016112111508846283,-0.3093259036540985
1772648230895377200,6.881377197265625,0.3952127695083618,0.010785792954266071,-0.3961448669433594
1772648230905381600,6.891381591796875,0.44634541869163513,-0.008388950489461422,-0.4408859312534332
1772648230915386000,6.90138623046875,0.4820317327976227,-0.04727106913924217,-0.4430164694786072
1772648230925390600,6.911390625,0.5044022798538208,-0.0739026591181755,-0.42490699887275696
1772648230935395000,6.92139501953125,0.4942822754383087,-0.1356879472732544,-0.389220654964447
1772648230945399600,6.931399658203125,0.47457489371299744,-0.16711321473121643,-0.3466101288795471
1772648230955404000,6.941404052734375,0.4580633044242859,-0.1777658462524414,-0.3087932765483856
1772648230965408500,6.951408447265625,0.438355952501297,-0.1687111109495163,-0.2805637717247009
1772648230975413000,6.9614130859375,0.42717066407203674,-0.16764584183692932,-0.25979113578796387
1772648230985417500,6.97141748046875,0.41172435879707336,-0.16231952607631683,-0.2304963916540146
1772648230995422000,6.981421875,0.3914843499660492,-0.16018900275230408,-0.19054901599884033
1772648231005426400,6.991426513671875,0.3664506673812866,-0.17190690338611603,-0.13195951282978058
1772648231015431000,7.001430908203125,0.339819073677063,-0.1878858506679535,-0.058456335216760635
1772648231025435400,7.011435302734375,0.31265485286712646,-0.21718059480190277,0.007590002380311489
1772648231035439900,7.02143994140625,0.2838927209377289,-0.25180166959762573,0.04221106693148613
1772648231045444400,7.0314443359375,0.26205483078956604,-0.2901511490345001,0.044874224811792374
1772648231055448800,7.04144873046875,0.24714113771915436,-0.30399957299232483,0.02623211406171322
1772648231065453800,7.051453857421875,0.24181482195854187,-0.2731069326400757,0.010253161191940308
1772648231075459000,7.061458984375,0.23702113330364227,-0.2059953361749649,-0.0025300008710473776
1772648231085464000,7.071464111328125,0.22423797845840454,-0.12183951586484909,-0.014247899875044823
1772648231095469300,7.08146923828125,0.20026955008506775,-0.038216330111026764,-0.028628956526517868
1772648231105474300,7.091474365234375,0.15712636709213257,0.0294279046356678,-0.050466857850551605
1772648231115479600,7.1014794921875,0.09747160971164703,0.051798440515995026,-0.06111949309706688
1772648231125484500,7.111484619140625,0.02450106106698513,0.031025800853967667,-0.0696416050195694
1772648231135489800,7.12148974609375,-0.052197910845279694,-0.00945421401411295,-0.0978710874915123
1772648231145494800,7.131494873046875,-0.12463583052158356,-0.03129211440682411,-0.12183951586484909
1772648231155500000,7.1415,-0.20186743140220642,-0.014780531637370586,-0.12982898950576782
1772648231165505000,7.151505126953125,-0.2876211404800415,0.016112111508846283,-0.11065424978733063
1772648231175510300,7.16151025390625,-0.373374879360199,0.10825740545988083,-0.06857633590698242
1772648231185515300,7.171515380859375,-0.4564654231071472,0.25313323736190796,-0.03555316850543022
1772648231195520300,7.181520263671875,-0.5390233397483826,0.3798995912075043,-0.021172111853957176
1772648231205525500,7.191525390625,-0.6370275616645813,0.45127224922180176,0.005992107093334198
1772648231215530500,7.201530517578125,-0.6934865713119507,0.4145206809043884,0.05978791415691376
1772648231225535700,7.21153564453125,-0.7259770631790161,0.2659164071083069,0.1380847841501236
1772648231235540700,7.221540771484375,-0.7451518177986145,0.04966791346669197,0.2131858617067337
1772648231245546000,7.2315458984375,-0.7584676146507263,-0.17563532292842865,0.2834932506084442
1772648231255551000,7.241551025390625,-0.772316038608551,-0.3727090656757355,0.3447459042072296
1772648231265556200,7.25155615234375,-0.7882950305938721,-0.5250417590141296,0.3825627565383911
1772648231275561200,7.261561279296875,-0.8064044713973999,-0.6203828454017639,0.3932153880596161
1772648231285566500,7.27156640625,-0.8122634291648865,-0.674711287021637,0.40013960003852844
1772648231295571500,7.281571533203125,-0.8037413358688354,-0.695483922958374,0.42197751998901367
1772648231305576700,7.29157666015625,-0.760065495967865,-0.7077344655990601,0.4629901647567749
1772648231315581700,7.301581787109375,-0.6636591553688049,-0.6928207874298096,0.49920910596847534
1772648231325587000,7.3115869140625,-0.5251749157905579,-0.6395576000213623,0.4784364700317383
1772648231335592000,7.321592041015625,-0.4000064432621002,-0.5628586411476135,0.39587855339050293
1772648231345597200,7.33159716796875,-0.2838927209377289,-0.4233090877532959,0.3079943060874939
1772648231355602200,7.341602294921875,-0.19441059231758118,-0.2805637717247009,0.26218798756599426
1772648231365607400,7.351607421875,-0.15339794754981995,-0.1644500494003296,0.2850911617279053
1772648231375612400,7.3616123046875,-0.14274531602859497,-0.05366265028715134,0.383095383644104
1772648231385617400,7.371617431640625,-0.14966952800750732,0.09227845072746277,0.4832301735877991
1772648231395622700,7.38162255859375,-0.1555284708738327,0.20945744216442108,0.5205143690109253
1772648231405627600,7.391627685546875,-0.18002954125404358,0.26272061467170715,0.5119922757148743
1772648231415633000,7.4016328125,-0.19707375764846802,0.2744385302066803,0.492284893989563
1772648231425638000,7.411637939453125,-0.21145480871200562,0.2834932506084442,0.4640554189682007
1772648231435643100,7.42164306640625,-0.22849902510643005,0.28455850481987,0.4390217363834381
1772648231445648100,7.431648193359375,-0.23329271376132965,0.27337324619293213,0.43209752440452576
1772648231455653400,7.4416533203125,-0.23329271376132965,0.3042658865451813,0.4454133212566376
1772648231465658400,7.451658447265625,-0.2162484973669052,0.3404848575592041,0.4677838385105133
1772648231475663600,7.46166357421875,-0.18482321500778198,0.37563854455947876,0.48536068201065063
1772648231485668600,7.471668701171875,-0.14860425889492035,0.4246406853199005,0.47470805048942566
1772648231495673900,7.481673828125,-0.09747160971164703,0.4810996353626251,0.4352933168411255
1772648231505678800,7.491678955078125,-0.047404225915670395,0.508263885974884,0.37617117166519165
1772648231515683800,7.501683837890625,-0.0005326317623257637,0.48536068201065063,0.3079943060874939
1772648231525689000,7.511689208984375,0.035153694450855255,0.4070638120174408,0.24248060584068298
1772648231535694300,7.5216943359375,0.058589495718479156,0.2984069585800171,0.18389111757278442
1772648231545699300,7.53169921875,0.08149266242980957,0.1998700648546219,0.1290300488471985
1772648231555704300,7.541704345703125,0.10013477504253387,0.1380847841501236,0.06937528401613235
1772648231565709300,7.551709228515625,0.1081242486834526,0.12583425641059875,-0.006791055202484131
1772648231575714300,7.56171435546875,0.10333056002855301,0.15086795389652252,-0.09254477173089981
1772648231585719300,7.57171923828125,0.0942758247256279,0.17164058983325958,-0.17510269582271576
1772648231595724300,7.581724365234375,0.08788423985242844,0.165781632065773,-0.24967113137245178
1772648231605729000,7.59172900390625,0.08628634363412857,0.15033531188964844,-0.3061301112174988
1772648231615734000,7.601734130859375,0.09108003228902817,0.14554162323474884,-0.33968591690063477
1772648231625739000,7.611739013671875,0.10013477504253387,0.1572595238685608,-0.35886064171791077
1772648231635743700,7.62174365234375,0.11132004112005234,0.1801626980304718,-0.3609911799430847
1772648231645748700,7.631748779296875,0.11451582610607147,0.17696690559387207,-0.3530017137527466
1772648231655753700,7.641753662109375,0.1225053071975708,0.21158796548843384,-0.35566484928131104
1772648231665758700,7.6517587890625,0.12996214628219604,0.25366586446762085,-0.36471959948539734
1772648231675763500,7.661763427734375,0.14381057024002075,0.29095008969306946,-0.35087117552757263
1772648231685768400,7.6717685546875,0.1608547866344452,0.30053746700286865,-0.32157641649246216
1772648231695773400,7.6817734375,0.14700636267662048,0.28242799639701843,-0.29441219568252563
1772648231705778400,7.6917783203125,0.1086568832397461,0.2786995768547058,-0.28908589482307434
1772648231715783200,7.701783203125,0.058589495718479156,0.29680904746055603,-0.290683776140213
1772648231725788200,7.7117880859375,0.03728422522544861,0.3442132771015167,-0.2629869282245636
1772648231735793200,7.721793212890625,0.04420843720436096,0.3798995912075043,-0.20759323239326477
1772648231745798100,7.731798095703125,0.046871595084667206,0.39907434582710266,-0.14687320590019226
1772648231755803000,7.741802978515625,0.04154527932405472,0.3697795867919922,-0.07976160943508148
1772648231765807900,7.751807861328125,0.02450106106698513,0.28615641593933105,-0.014247899875044823
1772648231775812900,7.761812744140625,-0.001597895286977291,0.1854890137910843,0.035819485783576965
1772648231785817900,7.77181787109375,-0.03621895983815193,0.09227845072746277,0.08908266574144363
1772648231795822600,7.781822509765625,-0.07776423543691635,0.007590002380311489,0.15033531188964844
1772648231805827600,7.79182763671875,-0.11877688020467758,-0.06378265470266342,0.24407850205898285
1772648231815832600,7.80183251953125,-0.15872426331043243,-0.10106687992811203,0.35167011618614197
1772648231825837600,7.811837646484375,-0.20399796962738037,-0.08775108307600021,0.41398802399635315
1772648231835842300,7.82184228515625,-0.25193482637405396,-0.04087948799133301,0.44275015592575073
1772648231845847300,7.831847412109375,-0.27110958099365234,-0.0014647373463958502,0.4246406853199005
1772648231855852300,7.841852294921875,-0.2583264112472534,0.036352116614580154,0.35646381974220276
1772648231865857300,7.851857177734375,-0.20186743140220642,0.06617949903011322,0.2685795724391937
1772648231875862300,7.8618623046875,-0.13102741539478302,0.05499422922730446,0.17856480181217194
1772648231885867000,7.871866943359375,-0.0564589649438858,0.04966791346669197,0.09760477393865585
1772648231895872000,7.8818720703125,0.003195790573954582,-0.03608580306172371,0.08961529284715652
1772648231905877000,7.891876953125,0.054861072450876236,-0.15805847942829132,0.1476721614599228
1772648231915881700,7.9018818359375,0.09480845183134079,-0.25606271624565125,0.1945437490940094
1772648231925886700,7.91188671875,0.07510107755661011,-0.24487745761871338,0.17963005602359772
1772648231935891700,7.9218916015625,0.058589495718479156,-0.20759323239326477,0.11518161743879318
1772648231945896700,7.931896728515625,0.04527369886636734,-0.17403742671012878,0.03315632790327072
1772648231955901700,7.941901611328125,0.047936856746673584,-0.1735047996044159,-0.04727106913924217
1772648231965906400,7.951906494140625,0.046871595084667206,-0.1782984882593155,-0.09094687551259995
1772648231975911400,7.961911376953125,0.07137265801429749,-0.17989638447761536,-0.0786963403224945
1772648231985916400,7.97191650390625,0.12516845762729645,-0.16711321473121643,-0.04407527670264244
1772648231995921200,7.981921142578125,0.20080217719078064,-0.12503530085086823,0.005459475331008434
1772648232005926100,7.991926025390625,0.2881537973880768,-0.08615318685770035,0.05872265249490738
1772648232015931100,8.00193115234375,0.3685811758041382,-0.03342264145612717,0.09174582362174988
1772648232025936100,8.01193603515625,0.43089908361434937,0.02516685053706169,0.09014792740345001
1772648232035941000,8.021941162109375,0.480433851480484,0.07470160722732544,0.06564686447381973
1772648232045945900,8.03194580078125,0.5177180767059326,0.11677951365709305,0.010785792954266071
1772648232055950800,8.041950927734375,0.5683180689811707,0.1386174112558365,-0.0600542314350605
1772648232065955600,8.05195556640625,0.5715138912200928,0.14341109991073608,-0.150068998336792
1772648232075960300,8.061960205078124,0.5645896792411804,0.09281108528375626,-0.24967113137245178
1772648232085965000,8.071965087890625,0.533164381980896,0.003861580276861787,-0.3391532599925995
1772648232095969500,8.081969482421876,0.4799012243747711,-0.10958898812532425,-0.4004059135913849
1772648232105974300,8.091974365234375,0.39840856194496155,-0.22197428345680237,-0.4424838423728943
1772648232115979000,8.10197900390625,0.27963167428970337,-0.31198906898498535,-0.44834280014038086
1772648232125983700,8.111983642578124,0.13262531161308289,-0.40093857049942017,-0.42064592242240906
1772648232135988500,8.121988525390625,-0.010652635246515274,-0.47231122851371765,-0.36951327323913574
1772648232145993200,8.1319931640625,-0.11185266822576523,-0.502138614654541,-0.30399957299232483
1772648232155998000,8.141998046875,-0.1693768948316574,-0.4712459444999695,-0.2347574532032013
1772648232166002700,8.152002685546876,-0.1890842765569687,-0.41212382912635803,-0.17243953049182892
1772648232176007400,8.16200732421875,-0.18162743747234344,-0.3375553786754608,-0.13195951282978058
1772648232186012000,8.172011962890625,-0.14487583935260773,-0.23742060363292694,-0.1213068813085556
1772648232196016600,8.1820166015625,-0.070840023458004,-0.1314268857240677,-0.1495363712310791
1772648232206021400,8.192021484375,0.022903166711330414,-0.03448790684342384,-0.20919112861156464
1772648232216026000,8.202026123046876,0.1225053071975708,0.03475422412157059,-0.27417218685150146
1772648232226030800,8.21203076171875,0.21411797404289246,0.056592125445604324,-0.3183806240558624
1772648232236035600,8.22203564453125,0.28602325916290283,0.031558431684970856,-0.34075117111206055
1772648232246040300,8.232040283203125,0.3392864465713501,-0.04034685716032982,-0.34128379821777344
1772648232256044800,8.242044921875,0.3691138029098511,-0.1303616166114807,-0.3285006284713745
1772648232266049500,8.252049560546874,0.3723095953464508,-0.24221429228782654,-0.29867327213287354
1772648232276054300,8.26205419921875,0.3781685531139374,-0.3482080101966858,-0.2576606273651123
1772648232286059000,8.27205908203125,0.3494064211845398,-0.4243743419647217,-0.2059953361749649
1772648232296063700,8.282063720703125,0.3099916875362396,-0.4717785716056824,-0.1591237336397171
1772648232306068500,8.292068359375,0.26684850454330444,-0.4930838644504547,-0.12237215042114258
1772648232316073200,8.3020732421875,0.2167811244726181,-0.49201858043670654,-0.1026647686958313
1772648232326077700,8.31207763671875,0.1789642721414566,-0.4472775161266327,-0.08775108307600021
1772648232336082400,8.32208251953125,0.1459411084651947,-0.3988080322742462,-0.09094687551259995
1772648232346087200,8.332087158203125,0.1272989958524704,-0.31625011563301086,-0.09520792961120605
1772648232356092000,8.342091796875,0.11877688020467758,-0.2528669238090515,-0.1026647686958313
1772648232366096600,8.3520966796875,0.1081242486834526,-0.18948374688625336,-0.10958898812532425
1772648232376101400,8.362101318359375,0.11664635688066483,-0.16551531851291656,-0.10905635356903076
1772648232386106000,8.372106201171874,0.12463583052158356,-0.17084163427352905,-0.11278477311134338
1772648232396110800,8.38211083984375,0.11185266822576523,-0.18149426579475403,-0.1308942586183548
1772648232406115300,8.392115234375,0.09747160971164703,-0.18948374688625336,-0.16072162985801697
1772648232416120000,8.4021201171875,0.09214529395103455,-0.20546270906925201,-0.1964079588651657
1772648232426124800,8.412124755859375,0.10226529836654663,-0.216115340590477,-0.23369218409061432
1772648232436129500,8.422129638671874,0.11558109521865845,-0.22623534500598907,-0.24487745761871338
1772648232446134300,8.43213427734375,0.12357056885957718,-0.23688797652721405,-0.24061639606952667
1772648232456139000,8.442138916015624,0.13049478828907013,-0.26565009355545044,-0.24114902317523956
1772648232466143700,8.452143798828125,0.13741900026798248,-0.31625011563301086,-0.2528669238090515
1772648232476148500,8.4621484375,0.1459411084651947,-0.3748396039009094,-0.2587258815765381
1772648232486153000,8.472153076171875,0.1464737355709076,-0.4083954095840454,-0.24967113137245178
1772648232496157700,8.48215771484375,0.15393057465553284,-0.43928804993629456,-0.2251700758934021
1772648232506162400,8.492162353515624,0.1597895324230194,-0.45313647389411926,-0.19747322797775269
1772648232516167200,8.502167236328125,0.16777899861335754,-0.45366910099983215,-0.17403742671012878
1772648232526172000,8.512171875,0.17683374881744385,-0.4366248846054077,-0.15219952166080475
1772648232536176600,8.5221767578125,0.19228006899356842,-0.39774277806282043,-0.13409005105495453
1772648232546181400,8.532181396484376,0.2071937620639801,-0.3332943320274353,-0.10692582279443741
1772648232556186000,8.54218603515625,0.22423797845840454,-0.2858901023864746,-0.08029423654079437
1772648232566190600,8.552190673828125,0.23648850619792938,-0.24541008472442627,-0.06697844713926315
1772648232576195600,8.562195556640624,0.23808640241622925,-0.22250692546367645,-0.04886896535754204
1772648232586200300,8.572200439453125,0.23435798287391663,-0.21025638282299042,-0.03502053767442703
1772648232596205000,8.582205078125,0.2210421860218048,-0.20013637840747833,-0.01957421749830246
1772648232606209800,8.592209716796875,0.18961690366268158,-0.1777658462524414,-0.0009321055840700865
1772648232616214500,8.602214599609376,0.1789642721414566,-0.21877849102020264,0.003861580276861787
1772648232626219300,8.61221923828125,0.16618111729621887,-0.21771323680877686,-0.004127896390855312
1772648232636224000,8.62222412109375,0.14807163178920746,-0.21025638282299042,-0.014247899875044823
1772648232646229000,8.63222900390625,0.13741900026798248,-0.19108164310455322,-0.029161589220166206
1772648232656233700,8.642233642578125,0.1225053071975708,-0.15699321031570435,-0.03608580306172371
1772648232666238500,8.652238525390626,0.11451582610607147,-0.11385004222393036,-0.03608580306172371
