time,seconds_elapsed,z,y,x
1772651416296865300,0.363865234375,0.01828765869140625,-0.00013723969459533691,0.01486310362815857
1772651416316870700,0.38387060546875,0.02307415008544922,-0.009885698556900024,-0.008914470672607422
1772651416336876000,0.4038759765625,0.016187667846679688,-0.0031482577323913574,-0.0015322864055633545
1772651416356881400,0.42388134765625,0.0308685302734375,-0.0084000825881958,-0.006353288888931274
1772651416376886500,0.443886474609375,0.01920795440673828,0.003829658031463623,0.01742902398109436
1772651416396892000,0.463891845703125,0.016510009765625,-0.027322500944137573,-0.011232227087020874
1772651416416897300,0.483897216796875,0.02849102020263672,-0.015295654535293579,-0.01608249545097351
1772651416436902700,0.503902587890625,0.03327465057373047,0.013396799564361572,-0.0015559196472167969
1772651416456908000,0.523907958984375,0.02129650115966797,0.0014629960060119629,-0.011347532272338867
1772651416476913400,0.543913330078125,0.014130592346191406,-0.0052668750286102295,0.010539799928665161
1772651416496918500,0.56391845703125,0.028510093688964844,-0.00782865285873413,-0.014447927474975586
1772651416516924000,0.583923828125,0.030913352966308594,-0.0027868151664733887,-0.009517371654510498
1772651416536929300,0.60392919921875,0.030915260314941406,0.011525869369506836,0.004985004663467407
1772651416556934700,0.6239345703125,0.033629417419433594,-0.0000966489315032959,-0.009157419204711914
1772651416576940000,0.64393994140625,0.03573417663574219,-0.007186621427536011,0.00030478835105895996
1772651416596945200,0.663945068359375,0.017171859741210938,-0.01666894555091858,-0.01402708888053894
1772651416616950500,0.683950439453125,0.024049758911132812,0.011918306350708008,0.01716133952140808
1772651416636956000,0.703955810546875,0.024054527282714844,0.002436697483062744,0.0027802884578704834
1772651416656961300,0.723961181640625,0.02405261993408203,0.0000393986701965332,0.010012000799179077
1772651416676966700,0.743966552734375,0.02166748046875,-0.004601329565048218,-0.00682029128074646
1772651416696971800,0.7639716796875,0.009992599487304688,0.004922449588775635,-0.0045909583568573
1772651416716977200,0.78397705078125,0.02886199951171875,0.002622067928314209,0.016950249671936035
1772651416736982500,0.803982421875,0.01719188690185547,0.002772778272628784,-0.0070136189460754395
1772651416756988200,0.82398828125,0.02647876739501953,-0.0018648803234100342,0.005007266998291016
1772651416776993800,0.843993896484375,0.019590377807617188,-0.0018732249736785889,0.00983324646949768
1772651416796999700,0.863999755859375,0.007615089416503906,-0.009123504161834717,0.004914045333862305
1772651416817005600,0.884005615234375,-0.006758689880371094,0.007333815097808838,0.012079983949661255
1772651416837011500,0.904011474609375,0.02409839630126953,-0.006432324647903442,-0.004700183868408203
1772651416857017300,0.924017333984375,0.031586647033691406,-0.008831262588500977,0.00481829047203064
1772651416877023000,0.94402294921875,0.014806747436523438,0.007526189088821411,0.0002256929874420166
1772651416897028900,0.96402880859375,0.010022163391113281,0.021641433238983154,0.016875356435775757
1772651416917034800,0.98403466796875,0.026790618896484375,0.0024225711822509766,0.004787147045135498
1772651416937040600,1.00404052734375,0.01960468292236328,-0.014043033123016357,-0.007191300392150879
1772651416957046500,1.024046630859375,0.024400711059570312,-0.0046167075634002686,0.005413085222244263
1772651416977052400,1.044052490234375,0.03157234191894531,-0.007121950387954712,0.012896418571472168
1772651416997058000,1.06405810546875,0.043557167053222656,-0.009471505880355835,0.0031942129135131836
1772651417017064000,1.08406396484375,-0.001651763916015625,-0.007032036781311035,0.0006762146949768066
1772651417037069800,1.10406982421875,0.019605636596679688,0.014516055583953857,-0.03041669726371765
1772651417057075700,1.12407568359375,0.007935523986816406,0.00034496188163757324,0.007999986410140991
1772651417077081600,1.14408154296875,0.013026237487792969,-0.004345506429672241,0.00844302773475647
1772651417097087500,1.16408740234375,0.017820358276367188,-0.004295766353607178,-0.005987823009490967
1772651417117093400,1.18409326171875,0.036690711975097656,0.012621015310287476,-0.020309478044509888
1772651417137099000,1.20409912109375,0.029788970947265625,-0.00909578800201416,-0.0006448328495025635
1772651417157105000,1.22410498046875,0.011831283569335938,-0.010835230350494385,-0.001998811960220337
1772651417177110800,1.24411083984375,0.02380657196044922,-0.006111651659011841,-0.004771798849105835
1772651417197116700,1.26411669921875,0.011826515197753906,-0.0037235915660858154,0.007292062044143677
1772651417217122600,1.28412255859375,0.016631126403808594,-0.015550762414932251,-0.01713263988494873
1772651417237128200,1.304128173828125,0.01184844970703125,-0.003535240888595581,0.004243224859237671
1772651417257134600,1.324134521484375,-0.007323265075683594,-0.005936801433563232,-0.00035446882247924805
1772651417277141500,1.3441416015625,0.031012535095214844,-0.0034429430961608887,0.00192338228225708
1772651417297148400,1.3641484375,0.03819465637207031,-0.003391861915588379,-0.0026105940341949463
1772651417317155300,1.3841552734375,0.023819923400878906,0.0037385523319244385,-0.005061328411102295
1772651417337162200,1.404162353515625,0.014230728149414062,0.010809063911437988,-0.0025731921195983887
1772651417357169400,1.42416943359375,0.017218589782714844,-0.004218548536300659,0.008297175168991089
1772651417377176300,1.44417626953125,0.010035514831542969,-0.011408805847167969,-0.008587151765823364
1772651417397183200,1.464183349609375,-0.0019483566284179688,-0.01385381817817688,-0.0013038218021392822
1772651417417190100,1.484190185546875,0.02681446075439453,-0.006515294313430786,-0.013548702001571655
1772651417437197000,1.504197021484375,0.02201557159423828,0.0006114542484283447,-0.006215542554855347
1772651417457204000,1.524203857421875,0.005267143249511719,0.0056733787059783936,-0.011217772960662842
1772651417477211100,1.544211181640625,0.0007724761962890625,-0.01587936282157898,0.003247767686843872
1772651417497218000,1.564218017578125,0.034015655517578125,0.005673915147781372,0.017443597316741943
1772651417517225000,1.584224853515625,0.024435043334960938,0.0008878409862518311,0.0006227791309356689
1772651417537232000,1.60423193359375,-0.0061054229736328125,-0.008644968271255493,0.010231465101242065
1772651417557238800,1.62423876953125,0.009760856628417969,0.0038743317127227783,0.007273077964782715
1772651417577245700,1.64424560546875,0.021745681762695312,0.016047507524490356,-0.011847496032714844
1772651417597252900,1.6642529296875,0.004975318908691406,0.011295318603515625,0.007448971271514893
1772651417617259800,1.684259765625,-0.009100914001464844,-0.015150398015975952,0.007384985685348511
1772651417637266700,1.7042666015625,0.009466171264648438,-0.005569934844970703,0.004672497510910034
1772651417657273600,1.724273681640625,0.011854171752929688,-0.010402023792266846,0.014403313398361206
1772651417677280500,1.744280517578125,0.02143573760986328,0.0014654099941253662,-0.005228608846664429
1772651417697287400,1.764287353515625,0.021437644958496094,-0.012952178716659546,-0.0006011724472045898
1772651417717294600,1.784294677734375,0.014261245727539062,-0.015241116285324097,-0.0031166672706604004
1772651417737301500,1.804301513671875,0.011862754821777344,-0.015333086252212524,-0.015140175819396973
1772651417757309000,1.824308837890625,-0.0042877197265625,-0.003645181655883789,0.004497736692428589
1772651417777317000,1.844317138671875,0.014865875244140625,0.010614156723022461,0.004639178514480591
1772651417797325000,1.864324951171875,0.014868736267089844,-0.0060005784034729,-0.0024067461490631104
1772651417817333200,1.884333251953125,0.019669532775878906,-0.02026185393333435,0.007051795721054077
1772651417837341400,1.904341552734375,0.03404521942138672,0.0013452470302581787,-0.002540677785873413
1772651417857349600,1.924349609375,0.010069847106933594,0.0011312365531921387,-0.004635214805603027
1772651417877357800,1.94435791015625,0.017253875732421875,-0.0012142360210418701,0.007780939340591431
1772651417897366000,1.964365966796875,0.02203369140625,-0.001369863748550415,0.013012439012527466
1772651417917374000,1.9843740234375,0.00048542022705078125,-0.02530798316001892,0.005501747131347656
1772651417937382100,2.004382080078125,0.014844894409179688,-0.001464545726776123,0.0006518959999084473
1772651417957390300,2.024390380859375,-0.0070095062255859375,0.006255537271499634,-0.0025724172592163086
1772651417977398500,2.0443984375,0.021429061889648438,-0.0009807050228118896,-0.011994659900665283
1772651417997406700,2.06440673828125,0.0118560791015625,-0.017747044563293457,0.0017942190170288086
1772651418017415000,2.084414794921875,0.016649246215820312,-0.008164376020431519,-0.000667870044708252
1772651418037423000,2.104423095703125,0.011861801147460938,0.003962129354476929,0.0018679499626159668
1772651418057431000,2.12443115234375,0.019043922424316406,0.0040083229541778564,-0.014693856239318848
1772651418077439200,2.144439208984375,0.03820514678955078,-0.010354399681091309,-0.002612203359603882
1772651418097447400,2.164447509765625,0.011861801147460938,0.001620471477508545,0.0019065141677856445
1772651418117455600,2.18445556640625,0.004673004150390625,0.0039044320583343506,-0.0053434669971466064
1772651418137463800,2.2044638671875,0.023835182189941406,0.001405090093612671,0.008914023637771606
1772651418157472000,2.224471923828125,0.011850357055664062,-0.0010430216789245605,-0.005308419466018677
1772651418177480200,2.244480224609375,0.011849403381347656,0.0012928247451782227,-0.012503057718276978
1772651418197488000,2.264488037109375,0.040587425231933594,-0.0011040568351745605,-0.0027197301387786865
1772651418217496300,2.284496337890625,0.0022611618041992188,-0.0011580288410186768,0.0019526481628417969
1772651418237504500,2.30450439453125,0.011846542358398438,-0.0011047720909118652,-0.002843528985977173
1772651418257512200,2.32451220703125,0.0022592544555664062,0.0012298822402954102,-0.007596731185913086
1772651418277519000,2.34451904296875,0.02861309051513672,-0.0011733472347259521,0.006647229194641113
1772651418297526000,2.364526123046875,-0.0025281906127929688,0.015529811382293701,0.008973240852355957
1772651418317533000,2.384532958984375,0.028619766235351562,0.005991846323013306,-0.003170192241668701
1772651418337539800,2.404539794921875,0.019042015075683594,-0.0035924017429351807,-0.017648160457611084
1772651418357547000,2.424547119140625,0.031012535095214844,-0.0036974847316741943,0.0015546977519989014
1772651418377554000,2.444553955078125,0.004654884338378906,-0.0085868239402771,-0.005533158779144287
1772651418397560800,2.464560791015625,0.023822784423828125,-0.0013490021228790283,0.01355794072151184
1772651418417567700,2.484567626953125,0.02143383026123047,-0.0014522075653076172,-0.01070830225944519
1772651418437574700,2.50457470703125,0.009438514709472656,-0.018410414457321167,-0.0056542158126831055
1772651418457581600,2.52458154296875,0.016613006591796875,-0.008925080299377441,0.0017321407794952393
1772651418477588500,2.54458837890625,0.023790359497070312,-0.001792818307876587,-0.00046640634536743164
1772651418497595400,2.564595458984375,0.01899242401123047,-0.004186481237411499,0.004571855068206787
1772651418517602300,2.584602294921875,0.01898956298828125,0.01262328028678894,-0.007249891757965088
1772651418537609500,2.604609375,0.018988609313964844,-0.011424452066421509,-0.00017240643501281738
1772651418557616400,2.624616455078125,0.030979156494140625,-0.004080086946487427,0.012227386236190796
1772651418577623300,2.644623291015625,0.012112617492675781,-0.0015902817249298096,0.007665753364562988
1772651418597630200,2.664630126953125,0.01720714569091797,-0.0015855133533477783,-0.0020730793476104736
1772651418617637000,2.68463720703125,0.010005950927734375,0.009871989488601685,0.010039329528808594
1772651418637644000,2.70464404296875,0.019565582275390625,-0.002560943365097046,0.0009166300296783447
1772651418657651000,2.72465087890625,0.0171661376953125,-0.0121268630027771,-0.0013208985328674316
1772651418677658000,2.744658203125,0.0195465087890625,0.0045278966426849365,-0.005808115005493164
1772651418697665000,2.7646650390625,0.02674102783203125,0.009516894817352295,0.015779346227645874
1772651418717672000,2.784671875,0.012365341186523438,-0.01686808466911316,0.013418734073638916
1772651418737678800,2.804678955078125,0.00039005279541015625,0.011811673641204834,0.0036641061305999756
1772651418757685500,2.824685546875,0.011771202087402344,-0.013825297355651855,-0.0088118314743042
1772651418777692200,2.844692138671875,-0.0002193450927734375,0.0004452168941497803,-0.010941296815872192
1772651418797698800,2.86469873046875,-0.0050067901611328125,-0.018600374460220337,-0.0037144720554351807
1772651418817705500,2.88470556640625,0.021346092224121094,-0.011255085468292236,0.008443951606750488
1772651418837712000,2.9047119140625,-0.002613067626953125,-0.02092018723487854,-0.017896652221679688
1772651418857718500,2.924718505859375,0.014147758483886719,0.01259768009185791,-0.012901723384857178
1772651418877725200,2.94472509765625,-0.005015373229980469,-0.013843894004821777,-0.005876481533050537
1772651418897731800,2.96473193359375,0.006949424743652344,0.00036913156509399414,-0.005726754665374756
1772651418917738500,2.984738525390625,0.033293724060058594,0.0050466060638427734,-0.000894397497177124
1772651418937745000,3.004744873046875,0.0045375823974609375,-0.00458410382270813,0.01371544599533081
1772651418957751600,3.02475146484375,0.014126777648925781,-0.004523962736129761,0.013894081115722656
1772651418977758200,3.04475830078125,0.004536628723144531,-0.00946807861328125,0.014213740825653076
1772651418997764900,3.064764892578125,0.018914222717285156,0.0025083422660827637,-0.010490447282791138
1772651419017771500,3.084771484375,0.03328704833984375,0.002548724412918091,-0.008053630590438843
1772651419037778000,3.10477783203125,0.01890087127685547,0.009459227323532104,0.003957182168960571
1772651419057784600,3.12478466796875,0.018906593322753906,-0.007301747798919678,-0.003389298915863037
1772651419077791200,3.144791259765625,0.026083946228027344,-0.0026128292083740234,-0.0005963444709777832
1772651419097798000,3.1647978515625,-0.00029277801513671875,0.008990466594696045,-0.017392486333847046
1772651419117804500,3.184804443359375,0.02126789093017578,-0.0005340874195098877,0.004514038562774658
1772651419137811000,3.20481103515625,0.01887226104736328,-0.012661367654800415,0.004582732915878296
1772651419157817600,3.224817626953125,0.0020999908447265625,0.006338030099868774,0.0008740425109863281
1772651419177824300,3.24482421875,0.013790130615234375,0.02334025502204895,-0.011101126670837402
1772651419197831000,3.264830810546875,0.006300926208496094,-0.01028740406036377,0.0008181333541870117
1772651419217837600,3.284837646484375,0.013485908508300781,-0.0199413001537323,0.007950454950332642
1772651419237844000,3.304843994140625,0.01588153839111328,0.0019843876361846924,-0.008739203214645386
1772651419257850600,3.3248505859375,0.015875816345214844,-0.007271111011505127,-0.010894417762756348
1772651419277856800,3.344856689453125,-0.0008869171142578125,0.014295041561126709,0.0032896697521209717
1772651419297863200,3.36486328125,0.02546215057373047,0.0022373199462890625,0.0005218684673309326
1772651419317869300,3.384869384765625,0.025470733642578125,0.009589403867721558,0.0025848746299743652
1772651419337875700,3.404875732421875,0.018276214599609375,-0.00007492303848266602,-0.011645913124084473
1772651419357881900,3.4248818359375,0.009304046630859375,-0.02453404664993286,-0.0013611912727355957
1772651419377888300,3.44488818359375,-0.00027370452880859375,-0.01007106900215149,-0.006467550992965698
1772651419397894400,3.464894287109375,0.018876075744628906,-0.007850050926208496,-0.0032834112644195557
1772651419417900800,3.48490087890625,0.0020990371704101562,-0.012707740068435669,0.004078567028045654
1772651419437907000,3.504906982421875,0.0021114349365234375,0.0017900466918945312,0.006281793117523193
1772651419457913300,3.524913330078125,0.028448104858398438,-0.003339111804962158,0.003804832696914673
1772651419477919500,3.54491943359375,0.021246910095214844,-0.005805402994155884,0.001752316951751709
1772651419497926000,3.56492578125,0.02125072479248047,0.0012984275817871094,-0.0179232656955719
1772651419517932000,3.58493212890625,0.016463279724121094,0.0013642311096191406,0.0038930177688598633
1772651419537938400,3.6049384765625,0.014052391052246094,0.001119077205657959,-0.007953613996505737
1772651419557944800,3.62494482421875,0.02603626251220703,-0.005935996770858765,-0.0007961094379425049
1772651419577951000,3.644950927734375,0.009267807006835938,-0.006119966506958008,0.010923653841018677
1772651419597957400,3.664957275390625,0.035625457763671875,-0.0014647245407104492,0.012908488512039185
1772651419617963500,3.684963623046875,0.014070510864257812,-0.0013349056243896484,-0.011005967855453491
1772651419637970000,3.704969970703125,0.00927734375,-0.0014151930809020996,-0.0014503002166748047
1772651419657976000,3.72497607421875,0.01884746551513672,-0.0015059709548950195,0.011031121015548706
1772651419677988600,3.744988525390625,-0.0072002410888671875,0.0032992959022521973,-0.005818456411361694
1772651419697995000,3.7649951171875,0.00237274169921875,-0.011035233736038208,-0.007864505052566528
1772651419718001200,3.785001220703125,0.0071659088134765625,-0.00866687297821045,-0.00047087669372558594
1772651419738007600,3.805007568359375,0.014349937438964844,-0.003896057605743408,0.011575758457183838
1772651419758014200,3.82501416015625,0.016447067260742188,-0.0037648677825927734,0.013483792543411255
1772651419778021000,3.845021240234375,0.006876945495605469,-0.0012965798377990723,0.0036554038524627686
1772651419798028000,3.865028076171875,0.023645401000976562,-0.025358587503433228,-0.006110101938247681
1772651419818035200,3.88503515625,0.023642539978027344,0.0010084211826324463,0.008376002311706543
1772651419838042000,3.9050419921875,0.016462326049804688,-0.008488506078720093,0.022691577672958374
1772651419858049000,3.925049072265625,-0.007495880126953125,-0.0014350414276123047,0.02018606662750244
1772651419878056200,3.94505615234375,0.014066696166992188,0.008208602666854858,0.005827367305755615
1772651419898063000,3.96506298828125,0.016455650329589844,-0.0039520263671875,0.0009526312351226807
1772651419918070000,3.985070068359375,0.02604961395263672,-0.0013787150382995605,0.0032618939876556396
1772651419938077200,4.0050771484375,0.01885700225830078,0.008107960224151611,0.0032795369625091553
1772651419958084000,4.025083984375,0.018842697143554688,0.007901966571807861,-0.010962128639221191
1772651419978091000,4.045091064453125,0.0068721771240234375,-0.00633549690246582,-0.001354306936264038
1772651419998098200,4.06509814453125,0.0020847320556640625,-0.013329744338989258,0.013771653175354004
1772651420018105000,4.08510498046875,0.014063835144042969,-0.006054103374481201,-0.008288741111755371
1772651420038112000,4.105112060546875,0.009275436401367188,0.0035418570041656494,0.006640911102294922
1772651420058119200,4.125119140625,0.006866455078125,-0.008665531873703003,-0.0031648576259613037
1772651420078126000,4.1451259765625,0.004474639892578125,-0.013366639614105225,0.011510521173477173
1772651420098133000,4.165133056640625,0.009565353393554688,-0.011088430881500244,0.0017441511154174805
1772651420118140200,4.18514013671875,0.021239280700683594,-0.011103659868240356,0.006654947996139526
1772651420138147000,4.20514697265625,0.02603912353515625,0.001001119613647461,-0.005441635847091675
1772651420158154000,4.225154052734375,0.009270668029785156,0.008092492818832397,-0.0061667561531066895
1772651420178161200,4.2451611328125,0.032917022705078125,-0.01826697587966919,0.001299142837524414
1772651420198168000,4.26516796875,0.044899940490722656,-0.013274133205413818,-0.011173486709594727
1772651420218175000,4.285175048828125,0.018843650817871094,0.0010144412517547607,-0.0015124976634979248
1772651420238182100,4.30518212890625,0.00446319580078125,0.000936359167098999,-0.006210982799530029
1772651420258188500,4.3251884765625,0.0020704269409179688,0.0032992959022521973,0.008020162582397461
1772651420278194700,4.345194580078125,0.02064037322998047,-0.0038633346557617188,0.0007479488849639893
1772651420298200600,4.36520068359375,0.011354446411132812,-0.006385713815689087,0.0006643831729888916
1772651420318206700,4.385206787109375,0.023021697998046875,0.003051549196243286,0.005568981170654297
1772651420338212600,4.405212646484375,0.018253326416015625,-0.008577018976211548,-0.009024560451507568
1772651420358218800,4.42521875,0.0038843154907226562,-0.0031631886959075928,0.0029152631759643555
1772651420378224600,4.445224609375,0.04460716247558594,-0.012713611125946045,-0.006640970706939697
1772651420398230800,4.465230712890625,0.027832984924316406,0.0015181899070739746,-0.0021783411502838135
1772651420418236700,4.485236572265625,0.008663177490234375,0.0012741684913635254,-0.0026113390922546387
1772651420438242800,4.505242919921875,0.0254364013671875,-0.013108521699905396,-0.007624506950378418
1772651420458248700,4.525248779296875,0.011059761047363281,-0.017961561679840088,0.002020895481109619
1772651420478254800,4.5452548828125,0.02543354034423828,0.013071835041046143,0.004218757152557373
1772651420498260700,4.5652607421875,0.020638465881347656,-0.013336479663848877,0.004244625568389893
1772651420518267000,4.585266845703125,0.027818679809570312,-0.022916674613952637,-0.007542222738265991
1772651420538272800,4.605272705078125,0.02064228057861328,-0.005961477756500244,-0.007558256387710571
1772651420558278700,4.625278564453125,0.02543926239013672,-0.013540178537368774,0.0003161430358886719
1772651420578284800,4.645284912109375,0.013756752014160156,-0.011053740978240967,0.007828176021575928
1772651420598290700,4.665290771484375,0.02064037322998047,-0.01585310697555542,0.0007151663303375244
1772651420618296800,4.685296875,0.037398338317871094,-0.023190826177597046,-0.008773118257522583
1772651420638302700,4.705302734375,0.013731002807617188,-0.00903978943824768,0.022415071725845337
1772651420658308900,4.725308837890625,0.011631965637207031,-0.0018807053565979004,0.010497957468032837
1772651420678314800,4.745314697265625,0.006838798522949219,0.010049551725387573,-0.013466417789459229
1772651420698321000,4.76532080078125,0.0020494461059570312,-0.004349231719970703,0.005603194236755371
1772651420718326800,4.785326904296875,0.004444122314453125,-0.014044910669326782,-0.0017156004905700684
1772651420738333000,4.8053330078125,0.05414581298828125,-0.006880968809127808,0.003149092197418213
1772651420758339600,4.825339599609375,0.0020542144775390625,0.0027244091033935547,-0.0018685758113861084
1772651420778347000,4.845346923828125,0.028098106384277344,0.0026921331882476807,0.003051936626434326
1772651420798354400,4.8653544921875,0.021211624145507812,-0.01164594292640686,-0.0088939368724823
1772651420818361900,4.88536181640625,0.011610031127929688,-0.01909312605857849,0.01831132173538208
1772651420838369300,4.905369384765625,0.02597332000732422,-0.012128978967666626,0.015561968088150024
1772651420858376700,4.925376708984375,0.013989448547363281,-0.007412135601043701,0.006393164396286011
1772651420878384000,4.945384033203125,0.013978004455566406,0.0020317435264587402,0.0065115392208099365
1772651420898391600,4.9653916015625,0.02116680145263672,-0.01719573140144348,0.003965616226196289
1772651420918399000,4.98539892578125,0.033150672912597656,-0.005292028188705444,0.0036745071411132812
1772651420938406400,5.005406494140625,0.03285408020019531,-0.0051118433475494385,-0.0033319294452667236
1772651420958413800,5.025413818359375,0.03315544128417969,0.023626983165740967,-0.008194446563720703
1772651420978421200,5.045421142578125,0.02117919921875,-0.00994408130645752,-0.018174707889556885
1772651420998428700,5.0654287109375,0.011593818664550781,-0.017105311155319214,0.0062458813190460205
1772651421018436000,5.08543603515625,0.025970458984375,-0.00985109806060791,-0.008192121982574463
1772651421038443500,5.105443603515625,0.0115966796875,0.0020157992839813232,0.010869324207305908
1772651421058451000,5.125450927734375,0.028369903564453125,0.009389668703079224,-0.0009837150573730469
1772651421078458400,5.145458251953125,0.016407012939453125,-0.014386177062988281,-0.003559321165084839
1772651421098465800,5.1654658203125,0.0068302154541015625,-0.014416694641113281,-0.0013505816459655762
1772651421118473200,5.18547314453125,0.02359771728515625,-0.004828810691833496,0.0010141432285308838
1772651421138480600,5.205480712890625,0.021201133728027344,0.014411687850952148,0.0035806596279144287
1772651421158488000,5.225488037109375,0.011004447937011719,0.00969552993774414,0.01038438081741333
1772651421178495500,5.24549560546875,0.0038175582885742188,-0.021163195371627808,-0.008846789598464966
1772651421198503000,5.2655029296875,-0.010544776916503906,-0.006573230028152466,-0.01634073257446289
1772651421218510300,5.28551025390625,0.015807151794433594,-0.0017301738262176514,-0.008819669485092163
1772651421238517800,5.305517822265625,0.022988319396972656,0.0004603862762451172,-0.01436072587966919
1772651421258525000,5.32552490234375,0.018202781677246094,-0.004223853349685669,-0.00480496883392334
1772651421278531300,5.34553125,0.011013984680175781,-0.01165759563446045,0.002131938934326172
1772651421298538000,5.3655380859375,0.015816688537597656,-0.025930255651474,-0.0028848350048065186
1772651421318544400,5.38554443359375,0.03018665313720703,-0.011436015367507935,-0.016996175050735474
1772651421338550800,5.40555078125,0.0062236785888671875,0.014886051416397095,-0.007173418998718262
1772651421358557400,5.425557373046875,0.009218215942382812,-0.00497165322303772,-0.015714138746261597
1772651421378563800,5.445563720703125,0.025984764099121094,-0.019308239221572876,-0.0036475956439971924
1772651421398570500,5.465570556640625,0.0020341873168945312,-0.002378016710281372,0.006052553653717041
1772651421418577000,5.485576904296875,0.025989532470703125,0.002451777458190918,-0.00829237699508667
1772651421438583300,5.505583251953125,-0.0147247314453125,0.007385581731796265,-0.01075485348701477
1772651421458590000,5.52558984375,0.00923919677734375,-0.0165461003780365,-0.018155187368392944
1772651421478596400,5.545596435546875,0.026001930236816406,0.0025519132614135742,0.006452679634094238
1772651421498603000,5.56560302734375,0.02839183807373047,-0.002343684434890747,0.008853524923324585
1772651421518609400,5.585609375,-0.011730194091796875,-0.0023404359817504883,-0.0008126795291900635
1772651421538615800,5.60561572265625,0.017012596130371094,-0.005027800798416138,-0.007858067750930786
1772651421558622500,5.62562255859375,0.014031410217285156,-0.03086698055267334,0.008217573165893555
1772651421578628900,5.64562890625,0.018823623657226562,0.002664893865585327,-0.011603295803070068
1772651421598635500,5.665635498046875,0.02571392059326172,0.009881764650344849,-0.011665940284729004
1772651421618642000,5.685641845703125,-0.0027246475219726562,-0.025899440050125122,-0.009284138679504395
1772651421638648600,5.705648681640625,0.0020542144775390625,-0.006775975227355957,0.0006316602230072021
1772651421658655000,5.725655029296875,0.006537437438964844,-0.011551827192306519,-0.003876596689224243
1772651421678661400,5.745661376953125,0.03260517120361328,0.012634456157684326,-0.006450444459915161
1772651421698668000,5.76566796875,0.032614707946777344,-0.006367623805999756,0.01743939518928528
1772651421718674400,5.78567431640625,0.030234336853027344,-0.001425415277481079,-0.001965641975402832
1772651421738681000,5.80568115234375,0.030242919921875,0.0009638071060180664,0.0025287270545959473
1772651421758687500,5.8256875,0.023659706115722656,-0.013181865215301514,0.0009052455425262451
1772651421778694400,5.8456943359375,0.03564262390136719,-0.013110637664794922,-0.0015180408954620361
1772651421798701000,5.865701171875,0.0069026947021484375,-0.008204519748687744,-0.011413276195526123
1772651421818708000,5.8857080078125,0.011686325073242188,-0.005906850099563599,-0.0014595091342926025
1772651421838714600,5.905714599609375,0.02844524383544922,-0.008397579193115234,0.0011091530323028564
1772651421858721500,5.925721435546875,0.023650169372558594,0.008299320936203003,-0.0060974955558776855
1772651421878728200,5.945728271484375,0.038023948669433594,0.0034917593002319336,-0.003733217716217041
1772651421898734800,5.96573486328125,0.023647308349609375,0.001041501760482788,-0.0013095736503601074
1772651421918741800,5.98574169921875,0.02843475341796875,0.0010402202606201172,0.013171523809432983
1772651421938748400,6.00574853515625,-0.0027112960815429688,-0.0061345696449279785,-0.015419244766235352
1772651421958755300,6.02575537109375,0.032631874084472656,0.01788964867591858,-0.004215359687805176
1772651421978762000,6.045761962890625,0.0062770843505859375,0.00814029574394226,-0.013898074626922607
1772651421998769000,6.065768798828125,0.02543926239013672,-0.0039365291595458984,-0.00922289490699768
1772651422018775600,6.085775634765625,0.0206451416015625,-0.0010519027709960938,0.01705870032310486
1772651422038782500,6.105782470703125,0.01824951171875,-0.0009576380252838135,-0.004379779100418091
1772651422058789000,6.1257890625,0.01825237274169922,-0.0033520162105560303,-0.006796538829803467
1772651422078796000,6.145796142578125,0.003875732421875,0.0014271438121795654,-0.01150357723236084
1772651422098802700,6.165802734375,0.02543354034423828,-0.022529244422912598,0.01246577501296997
1772651422118809600,6.1858095703125,0.011065483093261719,-0.012766212224960327,0.005450606346130371
1772651422138816300,6.205816162109375,0.039809226989746094,0.004041224718093872,-0.011820077896118164
1772651422158823200,6.2258232421875,0.02543163299560547,-0.0057443976402282715,-0.00720563530921936
1772651422178829800,6.245829833984375,0.020648956298828125,-0.005636483430862427,-0.0024984776973724365
1772651422198836500,6.26583642578125,0.037428855895996094,-0.017380505800247192,0.014259189367294312
1772651422218843400,6.285843505859375,0.018266677856445312,-0.007684499025344849,0.000008732080459594727
1772651422238850000,6.30585009765625,0.015872955322265625,0.0066217780113220215,-0.007349520921707153
1772651422258856400,6.3258564453125,0.01826763153076172,0.0066070556640625,-0.004921466112136841
1772651422278862300,6.3458623046875,0.025450706481933594,-0.005260050296783447,0.012105107307434082
1772651422298868200,6.3658681640625,-0.0009002685546875,-0.0004229247570037842,0.000191420316696167
1772651422318874000,6.3858740234375,0.03712749481201172,-0.007598191499710083,-0.011738955974578857
1772651422338880300,6.40588037109375,0.03472900390625,0.004264861345291138,-0.014184534549713135
1772651422358886000,6.425885986328125,0.03263568878173828,-0.010633766651153564,0.010377585887908936
1772651422378891800,6.445891845703125,0.018274307250976562,-0.015236884355545044,-0.00406375527381897
1772651422398898000,6.46589794921875,0.008687019348144531,-0.00330275297164917,-0.006367146968841553
1772651422418903800,6.48590380859375,0.0042095184326171875,-0.0030415356159210205,0.000780254602432251
1772651422438909700,6.50590966796875,0.02306842803955078,0.016036152839660645,0.0008018016815185547
1772651422458915600,6.52591552734375,-0.002681732177734375,-0.003124803304672241,-0.013631671667098999
1772651422478921500,6.54592138671875,0.03264904022216797,0.004045158624649048,0.010423392057418823
1772651422498927400,6.56592724609375,0.020959854125976562,-0.0007952451705932617,0.005857557058334351
1772651422518933200,6.585933349609375,0.032639503479003906,0.004135757684707642,-0.013107210397720337
1772651422538939100,6.605939208984375,0.03053569793701172,-0.017548352479934692,-0.0058851540088653564
1772651422558945000,6.625945068359375,0.03263568878173828,0.0018239617347717285,-0.008074134588241577
1772651422578951000,6.645950927734375,0.01826000213623047,-0.007811158895492554,-0.0008578300476074219
1772651422598956800,6.665956787109375,0.025438308715820312,0.004008591175079346,0.008717507123947144
1772651422618962700,6.685962646484375,0.032629966735839844,0.018490731716156006,-0.0032393932342529297
1772651422638968600,6.705968505859375,0.011372566223144531,-0.0005672276020050049,0.004016071557998657
1772651422658974500,6.725974365234375,0.011666297912597656,-0.012584418058395386,0.01373201608657837
1772651422678980400,6.74598046875,0.039811134338378906,-0.010221123695373535,-0.010224848985671997
1772651422698986200,6.765986328125,0.011669158935546875,-0.005373477935791016,-0.024636805057525635
1772651422718992100,6.7859921875,0.03292655944824219,-0.0006007850170135498,-0.015057116746902466
1772651422738998000,6.805998046875,0.03052997589111328,-0.012630492448806763,0.004361152648925781
1772651422759004200,6.826004150390625,0.013471603393554688,-0.00002428889274597168,0.0059022605419158936
1772651422779010800,6.8460107421875,-0.0009012222290039062,0.01419752836227417,-0.011381655931472778
1772651422799017200,6.866017333984375,0.011071205139160156,0.0022489428520202637,-0.00370943546295166
1772651422819023600,6.886023681640625,0.04699134826660156,-0.0026144087314605713,-0.01811632513999939
1772651422839030000,6.906030029296875,0.03501129150390625,0.002144545316696167,0.005892425775527954
1772651422859036700,6.92603662109375,0.011063575744628906,0.006949633359909058,-0.008656561374664307
1772651422879043000,6.94604296875,0.03742694854736328,-0.012111306190490723,-0.013715684413909912
1772651422899049500,6.966049560546875,0.015857696533203125,-0.021931320428848267,0.000621408224105835
1772651422919056100,6.98605615234375,0.013458251953125,0.001995176076889038,-0.004093974828720093
1772651422939062500,7.0060625,0.0014886856079101562,0.009304553270339966,-0.006553709506988525
1772651422959069000,7.02606884765625,0.016455650329589844,0.001552283763885498,-0.008149385452270508
1772651422979075600,7.04607568359375,0.01885700225830078,-0.017335742712020874,-0.0031748712062835693
1772651422999082000,7.06608203125,0.00209808349609375,-0.031455546617507935,-0.002748548984527588
1772651423019088400,7.08608837890625,0.026050567626953125,-0.009848862886428833,-0.00023233890533447266
1772651423039095000,7.106094970703125,0.016455650329589844,0.009118378162384033,0.0025815963745117188
1772651423059101400,7.126101318359375,0.004483222961425781,-0.012439846992492676,0.000041544437408447266
1772651423079107800,7.14610791015625,0.028443336486816406,0.0019622743129730225,0.02147725224494934
1772651423099114200,7.1661142578125,0.023650169372558594,-0.005282014608383179,0.007065474987030029
1772651423119121000,7.186120849609375,-0.005087852478027344,-0.0002989470958709717,0.004733383655548096
1772651423139127300,7.206127197265625,-0.00030803680419921875,0.004310309886932373,-0.007152676582336426
1772651423159133700,7.2261337890625,0.02813243865966797,-0.0006043910980224609,0.018582940101623535
1772651423179140400,7.246140380859375,0.006871223449707031,-0.01257854700088501,0.0042677223682403564
1772651423199146800,7.266146728515625,0.03981494903564453,-0.003010183572769165,-0.0031462907791137695
1772651423219153200,7.286153076171875,0.030229568481445312,0.0017479360103607178,-0.010247617959976196
1772651423239159800,7.306159912109375,0.023351669311523438,-0.0052957236766815186,0.008808791637420654
1772651423259166200,7.326166259765625,0.02095794677734375,0.001769334077835083,0.023255765438079834
1772651423279172600,7.346172607421875,-0.0074920654296875,-0.017330408096313477,0.006391644477844238
1772651423299179000,7.366178955078125,0.02334117889404297,-0.0030871033668518066,-0.01268717646598816
1772651423319185400,7.386185302734375,0.01616382598876953,0.004321783781051636,-0.007819563150405884
1772651423339191800,7.40619189453125,0.03023529052734375,-0.007554411888122559,0.023506253957748413
1772651423359198500,7.426198486328125,0.011065483093261719,0.0042334794998168945,0.016247540712356567
1772651423379204900,7.446204833984375,0.0230255126953125,-0.014780789613723755,-0.00024363398551940918
1772651423399211300,7.466211181640625,0.018228530883789062,-0.019362956285476685,-0.014574587345123291
1772651423419217700,7.4862177734375,0.011043548583984375,-0.0028160810470581055,0.004289209842681885
1772651423439224000,7.50622412109375,0.027814865112304688,-0.014728575944900513,0.02581876516342163
1772651423459230700,7.526230712890625,0.030205726623535156,-0.012337416410446167,0.009195774793624878
1772651423479237000,7.546237060546875,0.03739452362060547,0.004396647214889526,-0.012473851442337036
1772651423499243500,7.566243408203125,0.011034011840820312,0.006755203008651733,0.002172529697418213
1772651423519250000,7.58625,0.01822948455810547,-0.014690697193145752,0.018813490867614746
1772651423539256300,7.60625634765625,-0.0006198883056640625,-0.0004807710647583008,0.02091890573501587
1772651423559262700,7.6262626953125,0.02303314208984375,-0.015094637870788574,0.0019206702709197998
1772651423579269000,7.64626904296875,0.009260177612304688,-0.0175226628780365,0.01622810959815979
1772651423599275800,7.66627587890625,0.032614707946777344,-0.005557745695114136,0.01387333869934082
1772651423619282200,7.6862822265625,0.008961677551269531,0.0016469359397888184,0.00423470139503479
1772651423639288600,7.70628857421875,0.018823623657226562,0.003750145435333252,0.0020093321800231934
1772651423659295000,7.726294921875,0.028090476989746094,-0.020389437675476074,0.011797726154327393
1772651423679301400,7.74630126953125,0.03282642364501953,0.0056645870208740234,0.008613258600234985
1772651423699307800,7.766307861328125,0.021169662475585938,0.005627185106277466,0.022222191095352173
1772651423719314200,7.786314208984375,0.025674819946289062,-0.018047213554382324,-0.004446476697921753
1772651423739320800,7.80632080078125,0.01611804962158203,-0.0130348801612854,0.0022929906845092773
1772651423759327500,7.826327392578125,0.03977680206298828,-0.01780843734741211,-0.007352739572525024
1772651423779335000,7.8463349609375,0.02779674530029297,-0.010570436716079712,0.014349907636642456
