time,seconds_elapsed,z,y,x
1772651416134310400,0.201310302734375,0.0006657897029072046,-0.0010652635246515274,-0.0045273699797689915
1772651416154317600,0.221317626953125,-0.0003994738217443228,-0.0005326317623257637,-0.0013315794058144093
1772651416164321000,0.231321044921875,0.0006657897029072046,0.0026631588116288185,-0.0007989476434886456
1772651416174324700,0.24132470703125,-0.0003994738217443228,0.0010652635246515274,-0.00026631588116288185
1772651416184328200,0.251328125,0.0006657897029072046,0.0010652635246515274,0.00026631588116288185
1772651416194332000,0.261331787109375,-0.0025300008710473776,0.0005326317623257637,-0.00026631588116288185
1772651416204335600,0.271335693359375,0.00013315794058144093,0.0005326317623257637,0.00026631588116288185
1772651416214339000,0.281339111328125,-0.0014647373463958502,0.0005326317623257637,-0.001864211168140173
1772651416224342800,0.2913427734375,-0.0014647373463958502,0,0.00026631588116288185
1772651416234346200,0.30134619140625,0.00013315794058144093,0.002130527049303055,0.00026631588116288185
1772651416244350000,0.311349853515625,0.00013315794058144093,-0.001597895286977291,-0.00026631588116288185
1772651416254353400,0.321353515625,0.00013315794058144093,0,-0.0007989476434886456
1772651416264356000,0.331356201171875,-0.0003994738217443228,0.0010652635246515274,-0.001864211168140173
1772651416274358800,0.34135888671875,-0.0014647373463958502,0,-0.00026631588116288185
1772651416284361200,0.351361328125,-0.0003994738217443228,0.002130527049303055,-0.0007989476434886456
1772651416294364000,0.361364013671875,-0.001997369108721614,0,0.0007989476434886456
1772651416304366600,0.37136669921875,-0.0014647373463958502,-0.0010652635246515274,0.0007989476434886456
1772651416314369300,0.381369384765625,-0.0009321055840700865,-0.001597895286977291,0.0013315794058144093
1772651416324372000,0.3913720703125,-0.0003994738217443228,0.0010652635246515274,-0.0007989476434886456
1772651416334374700,0.401374755859375,0.00013315794058144093,0.0026631588116288185,-0.00026631588116288185
1772651416344377300,0.41137744140625,-0.0003994738217443228,-0.001597895286977291,-0.0007989476434886456
1772651416354380000,0.421380126953125,-0.001997369108721614,0,-0.001864211168140173
1772651416364382700,0.4313828125,-0.001997369108721614,-0.0005326317623257637,0.00026631588116288185
1772651416374385400,0.441385498046875,-0.0003994738217443228,0,-0.001864211168140173
1772651416384388000,0.45138818359375,-0.0009321055840700865,-0.0005326317623257637,-0.001864211168140173
1772651416394390500,0.461390625,-0.0003994738217443228,0.0005326317623257637,0.0007989476434886456
1772651416404393200,0.471393310546875,0.00013315794058144093,0.0005326317623257637,0.00026631588116288185
1772651416414396000,0.48139599609375,0.0006657897029072046,-0.0005326317623257637,0.00026631588116288185
1772651416424398600,0.491398681640625,0.00013315794058144093,0.0005326317623257637,-0.00026631588116288185
1772651416434401300,0.5014013671875,0.0011984214652329683,0.0010652635246515274,-0.00026631588116288185
1772651416444404000,0.511404052734375,-0.0003994738217443228,0.0010652635246515274,0.0007989476434886456
1772651416454406700,0.52140673828125,-0.0003994738217443228,0,-0.0013315794058144093
1772651416464409300,0.531409423828125,-0.0003994738217443228,0,-0.00026631588116288185
1772651416474412000,0.541412109375,-0.0003994738217443228,0.0005326317623257637,-0.0029294746927917004
1772651416484414700,0.551414794921875,-0.001997369108721614,-0.0005326317623257637,-0.0007989476434886456
1772651416494417200,0.561417236328125,-0.0003994738217443228,-0.001597895286977291,0.00026631588116288185
1772651416504419800,0.571419921875,-0.0014647373463958502,-0.002130527049303055,0.0007989476434886456
1772651416514422500,0.581422607421875,-0.0003994738217443228,0.0010652635246515274,-0.001864211168140173
1772651416524425200,0.59142529296875,-0.0003994738217443228,0,-0.00026631588116288185
1772651416534428000,0.601427978515625,0.0006657897029072046,-0.0010652635246515274,0.00026631588116288185
1772651416544430600,0.6114306640625,-0.0009321055840700865,0,-0.0007989476434886456
1772651416554433300,0.621433349609375,-0.0014647373463958502,0,-0.001864211168140173
1772651416564436000,0.63143603515625,0.00013315794058144093,-0.0005326317623257637,-0.0013315794058144093
1772651416574438700,0.641438720703125,0.00013315794058144093,0,-0.00026631588116288185
1772651416584441300,0.65144140625,-0.0009321055840700865,-0.0010652635246515274,-0.0013315794058144093
1772651416594444000,0.661444091796875,-0.0003994738217443228,0,-0.00026631588116288185
1772651416604446500,0.671446533203125,0.001731053227558732,0,0.00026631588116288185
1772651416614449200,0.68144921875,0.0006657897029072046,0.0010652635246515274,0.0013315794058144093
1772651416624451800,0.691451904296875,0.00013315794058144093,-0.0005326317623257637,-0.00026631588116288185
1772651416634454500,0.70145458984375,0.0006657897029072046,0,-0.0007989476434886456
1772651416644457200,0.711457275390625,-0.0003994738217443228,0.0010652635246515274,0.00026631588116288185
1772651416654460000,0.7214599609375,0.0011984214652329683,-0.0005326317623257637,-0.0007989476434886456
1772651416664462600,0.731462646484375,0.0011984214652329683,0.0005326317623257637,-0.00026631588116288185
1772651416674465300,0.74146533203125,-0.0009321055840700865,-0.0005326317623257637,-0.0007989476434886456
1772651416684468000,0.751468017578125,-0.0003994738217443228,0,0.0013315794058144093
1772651416694470700,0.761470703125,0.0006657897029072046,-0.002130527049303055,-0.0013315794058144093
1772651416704473000,0.77147314453125,0.0006657897029072046,0,0.0007989476434886456
1772651416714475800,0.781475830078125,-0.001997369108721614,0.0005326317623257637,-0.0013315794058144093
1772651416724478500,0.791478515625,0.0006657897029072046,-0.0005326317623257637,-0.00026631588116288185
1772651416734481200,0.801481201171875,0.00013315794058144093,0,-0.0013315794058144093
1772651416744483800,0.81148388671875,0.00013315794058144093,0.0010652635246515274,-0.00026631588116288185
1772651416754486500,0.821486572265625,0.0011984214652329683,0.0005326317623257637,-0.0007989476434886456
1772651416764489500,0.831489501953125,-0.0003994738217443228,-0.0010652635246515274,-0.0013315794058144093
1772651416774492400,0.841492431640625,-0.0003994738217443228,0.0010652635246515274,0.0007989476434886456
1772651416784495400,0.851495361328125,-0.0003994738217443228,-0.0005326317623257637,0.00026631588116288185
1772651416794498300,0.861498291015625,-0.001997369108721614,0,0.0007989476434886456
1772651416804501200,0.871501220703125,-0.0009321055840700865,-0.001597895286977291,-0.0013315794058144093
1772651416814504200,0.881504150390625,-0.0009321055840700865,0.0010652635246515274,0.00026631588116288185
1772651416824507000,0.8915068359375,0.00013315794058144093,-0.0005326317623257637,0.00026631588116288185
1772651416834509800,0.901509765625,-0.0003994738217443228,0,-0.001864211168140173
1772651416844512800,0.9115126953125,0.00013315794058144093,0.0005326317623257637,-0.0007989476434886456
1772651416854515700,0.921515625,0.00013315794058144093,-0.0005326317623257637,0.00026631588116288185
1772651416864518700,0.9315185546875,0.0006657897029072046,0.0010652635246515274,-0.00026631588116288185
1772651416874521600,0.941521484375,-0.0003994738217443228,0.0005326317623257637,0.0007989476434886456
1772651416884524500,0.951524658203125,0.00013315794058144093,0,-0.0007989476434886456
1772651416894527500,0.961527587890625,-0.0003994738217443228,-0.0005326317623257637,0.00026631588116288185
1772651416904530400,0.971530517578125,0.0011984214652329683,0,-0.0007989476434886456
1772651416914533400,0.981533447265625,0.00013315794058144093,-0.0005326317623257637,0.0007989476434886456
1772651416924536300,0.991536376953125,0.00013315794058144093,-0.0005326317623257637,0.0007989476434886456
1772651416934539300,1.001539306640625,0.0011984214652329683,0.0005326317623257637,0.0007989476434886456
1772651416944542200,1.011542236328125,0.00013315794058144093,-0.0005326317623257637,-0.0013315794058144093
1772651416954545000,1.021544921875,-0.0009321055840700865,0,-0.0007989476434886456
1772651416964547800,1.0315478515625,-0.0003994738217443228,0.001597895286977291,-0.0013315794058144093
1772651416974550800,1.04155078125,0.00013315794058144093,0.001597895286977291,0.0007989476434886456
1772651416984553700,1.0515537109375,-0.0003994738217443228,0.0010652635246515274,0.0007989476434886456
1772651416994556700,1.061556640625,0.00013315794058144093,-0.0005326317623257637,-0.0007989476434886456
1772651417004559600,1.0715595703125,-0.0014647373463958502,-0.001597895286977291,0.00026631588116288185
1772651417014562600,1.0815625,-0.0003994738217443228,0,0.00026631588116288185
1772651417024565500,1.0915654296875,-0.0003994738217443228,-0.0010652635246515274,-0.0013315794058144093
1772651417034568400,1.101568359375,0.00013315794058144093,0,0.0013315794058144093
1772651417044571400,1.1115712890625,-0.0003994738217443228,0.0010652635246515274,-0.0013315794058144093
1772651417054574300,1.12157421875,0.00013315794058144093,0,-0.0013315794058144093
1772651417064577300,1.131577392578125,-0.0003994738217443228,0.0010652635246515274,-0.00026631588116288185
1772651417074580000,1.141580078125,0.0006657897029072046,0.001597895286977291,-0.0007989476434886456
1772651417084583000,1.1515830078125,-0.0003994738217443228,0,-0.0013315794058144093
1772651417094585900,1.1615859375,0.0011984214652329683,-0.0005326317623257637,0.0007989476434886456
1772651417104588800,1.1715888671875,0.00013315794058144093,0.0010652635246515274,-0.0007989476434886456
1772651417114591700,1.181591796875,0.00013315794058144093,0,0.00026631588116288185
1772651417124594700,1.1915947265625,-0.0003994738217443228,0.0005326317623257637,-0.0007989476434886456
1772651417134597600,1.20159765625,0.00013315794058144093,0.0010652635246515274,0.00026631588116288185
1772651417144600600,1.2116005859375,0.0011984214652329683,-0.0005326317623257637,0.00026631588116288185
1772651417154603500,1.221603515625,0.0011984214652329683,-0.0005326317623257637,-0.0007989476434886456
1772651417164606500,1.2316064453125,0.0011984214652329683,0,0.0013315794058144093
1772651417174609400,1.241609375,-0.0025300008710473776,0,-0.00026631588116288185
1772651417184612000,1.251612060546875,-0.001997369108721614,-0.0005326317623257637,0.0007989476434886456
1772651417194615000,1.261614990234375,-0.0003994738217443228,0.0005326317623257637,-0.0007989476434886456
1772651417204618000,1.271617919921875,0.00013315794058144093,0,-0.0007989476434886456
1772651417214621000,1.281620849609375,-0.0009321055840700865,-0.0005326317623257637,-0.00026631588116288185
1772651417224623900,1.291623779296875,-0.0014647373463958502,-0.001597895286977291,-0.00026631588116288185
1772651417234626800,1.301626708984375,-0.001997369108721614,-0.0005326317623257637,-0.00026631588116288185
1772651417244629800,1.311629638671875,-0.0009321055840700865,-0.0005326317623257637,-0.0007989476434886456
1772651417254632700,1.3216328125,-0.0003994738217443228,0.0010652635246515274,0.0007989476434886456
1772651417264636200,1.33163623046875,0.00013315794058144093,0.0010652635246515274,0.00026631588116288185
1772651417274639600,1.3416396484375,0.0011984214652329683,-0.0010652635246515274,-0.00026631588116288185
1772651417284643000,1.35164306640625,-0.0009321055840700865,0.001597895286977291,-0.001864211168140173
1772651417294646800,1.361646728515625,0.0006657897029072046,0.0005326317623257637,0.00026631588116288185
1772651417304650200,1.371650146484375,0.0011984214652329683,0.0005326317623257637,-0.0007989476434886456
1772651417314653700,1.38165380859375,0.0006657897029072046,-0.0005326317623257637,0.0013315794058144093
1772651417324657200,1.3916572265625,-0.0003994738217443228,-0.0005326317623257637,0.00026631588116288185
1772651417334660600,1.40166064453125,0.00013315794058144093,0.001597895286977291,0.00026631588116288185
1772651417344664000,1.4116640625,-0.0003994738217443228,0.0010652635246515274,0.0007989476434886456
1772651417354667500,1.42166748046875,0.00013315794058144093,-0.0005326317623257637,0.00026631588116288185
1772651417364671000,1.4316708984375,0.00013315794058144093,0.0010652635246515274,0.00026631588116288185
1772651417374674400,1.44167431640625,-0.0003994738217443228,-0.001597895286977291,0.00026631588116288185
1772651417384678000,1.451677978515625,-0.0003994738217443228,-0.0005326317623257637,-0.00026631588116288185
1772651417394681600,1.461681640625,0.0011984214652329683,0.0010652635246515274,0.0007989476434886456
1772651417404684800,1.471684814453125,-0.0003994738217443228,0,-0.0013315794058144093
1772651417414688500,1.4816884765625,-0.0003994738217443228,-0.001597895286977291,-0.00026631588116288185
1772651417424692000,1.49169189453125,0.0011984214652329683,0,-0.00026631588116288185
1772651417434695400,1.5016953125,-0.0003994738217443228,0.0005326317623257637,0.0007989476434886456
1772651417444699000,1.511698974609375,-0.0003994738217443228,0.0005326317623257637,-0.0013315794058144093
1772651417454702300,1.521702392578125,0.0007989476434886456,-0.001731053227558732,-0.0010652635246515274
1772651417464705800,1.531705810546875,0.0007989476434886456,-0.00013315794058144093,-0.0010652635246515274
1772651417474709200,1.541709228515625,0.00026631588116288185,-0.00013315794058144093,0
1772651417484712700,1.551712646484375,0.00026631588116288185,0.0003994738217443228,0
1772651417494716200,1.561716064453125,0.00026631588116288185,-0.0011984214652329683,0.0005326317623257637
1772651417504719600,1.5717197265625,-0.00026631588116288185,-0.0006657897029072046,-0.0005326317623257637
1772651417514723000,1.58172314453125,0.0013315794058144093,0.0003994738217443228,0
1772651417524726800,1.591726806640625,0.00026631588116288185,-0.0006657897029072046,-0.0005326317623257637
1772651417534730200,1.601730224609375,-0.0013315794058144093,0.0009321055840700865,0
1772651417544733700,1.611733642578125,0.00026631588116288185,-0.0011984214652329683,0.0005326317623257637
1772651417554737200,1.621737060546875,-0.00026631588116288185,0.0003994738217443228,0.0005326317623257637
1772651417564740600,1.63174072265625,0.00026631588116288185,-0.00013315794058144093,-0.001597895286977291
1772651417574744000,1.641744140625,-0.0007989476434886456,0.0003994738217443228,-0.0010652635246515274
1772651417584747500,1.65174755859375,-0.00026631588116288185,0.0009321055840700865,0
1772651417594751000,1.6617509765625,-0.0007989476434886456,0.0003994738217443228,0
1772651417604754400,1.67175439453125,-0.00026631588116288185,-0.00013315794058144093,-0.0005326317623257637
1772651417614758000,1.6817578125,0.0007989476434886456,-0.0006657897029072046,0.0010652635246515274
1772651417624761300,1.69176123046875,-0.00026631588116288185,0.0003994738217443228,0.0005326317623257637
1772651417634764800,1.701764892578125,0.00026631588116288185,-0.0006657897029072046,0
1772651417644768500,1.7117685546875,0.00026631588116288185,-0.0011984214652329683,-0.0005326317623257637
1772651417654772000,1.72177197265625,0.0023968429304659367,0.0025300008710473776,0.0005326317623257637
1772651417664775400,1.731775390625,-0.0007989476434886456,-0.0006657897029072046,0
1772651417674779000,1.74177880859375,-0.00026631588116288185,-0.0022636849898844957,0.0005326317623257637
1772651417684782300,1.7517822265625,0.0013315794058144093,0.0009321055840700865,0.0005326317623257637
1772651417694785800,1.761785888671875,-0.00026631588116288185,-0.0006657897029072046,0.0010652635246515274
1772651417704789200,1.771789306640625,-0.0007989476434886456,-0.001731053227558732,-0.0005326317623257637
1772651417714792700,1.781792724609375,-0.00026631588116288185,-0.0006657897029072046,-0.0005326317623257637
1772651417724796200,1.791796142578125,0.0007989476434886456,-0.0011984214652329683,0.0005326317623257637
1772651417734799600,1.801799560546875,0.0013315794058144093,0.0003994738217443228,-0.0005326317623257637
1772651417744803000,1.811802978515625,-0.00026631588116288185,-0.0011984214652329683,-0.0005326317623257637
1772651417754806800,1.821806884765625,-0.0007989476434886456,0.0003994738217443228,-0.002130527049303055
1772651417764810800,1.831810791015625,-0.00026631588116288185,-0.00013315794058144093,0
1772651417774815000,1.84181494140625,-0.00026631588116288185,0.001997369108721614,0.0005326317623257637
1772651417784819000,1.85181884765625,0.0007989476434886456,-0.001731053227558732,0.0005326317623257637
1772651417794823200,1.8618232421875,-0.0013315794058144093,0.0014647373463958502,-0.001597895286977291
1772651417804827100,1.8718271484375,-0.00026631588116288185,0.0003994738217443228,0
1772651417814831400,1.881831298828125,-0.0013315794058144093,-0.00013315794058144093,-0.0005326317623257637
1772651417824835300,1.89183544921875,0.001864211168140173,-0.0011984214652329683,-0.0005326317623257637
1772651417834839300,1.90183935546875,-0.0007989476434886456,-0.0011984214652329683,-0.0005326317623257637
1772651417844843500,1.911843505859375,-0.00026631588116288185,0.001997369108721614,0
1772651417854847500,1.921847412109375,0.00026631588116288185,0.0014647373463958502,0.001597895286977291
1772651417864851700,1.931851806640625,-0.0013315794058144093,0.001997369108721614,0
1772651417874855700,1.941855712890625,0.0013315794058144093,0.0014647373463958502,0
1772651417884859600,1.951859619140625,0.00026631588116288185,-0.001731053227558732,0.0005326317623257637
1772651417894864000,1.96186376953125,0.00026631588116288185,0.0014647373463958502,0.0005326317623257637
1772651417904867800,1.971867919921875,-0.00026631588116288185,-0.0006657897029072046,0.0005326317623257637
1772651417914872000,1.9818720703125,0.0007989476434886456,-0.0011984214652329683,0.0005326317623257637
1772651417924876000,1.9918759765625,0.00026631588116288185,-0.0006657897029072046,0.0005326317623257637
1772651417934880300,2.00188037109375,-0.0007989476434886456,0.0014647373463958502,0
1772651417944884200,2.01188427734375,-0.0013315794058144093,-0.0006657897029072046,0.0005326317623257637
1772651417954888200,2.02188818359375,-0.0007989476434886456,-0.0022636849898844957,-0.0005326317623257637
1772651417964892400,2.031892333984375,-0.00026631588116288185,0.0009321055840700865,0.0010652635246515274
1772651417974896400,2.041896484375,0.00026631588116288185,0.0009321055840700865,0.0005326317623257637
1772651417984900600,2.051900634765625,0.001864211168140173,-0.0006657897029072046,-0.0010652635246515274
1772651417994904600,2.061904541015625,-0.0023968429304659367,-0.0022636849898844957,0.0005326317623257637
1772651418004908800,2.07190869140625,-0.00026631588116288185,-0.00013315794058144093,-0.0005326317623257637
1772651418014912800,2.081912841796875,-0.00026631588116288185,-0.00013315794058144093,0
1772651418024916700,2.091916748046875,-0.00026631588116288185,-0.0006657897029072046,-0.0005326317623257637
1772651418034921000,2.1019208984375,-0.00026631588116288185,0.0009321055840700865,-0.0005326317623257637
1772651418044925000,2.111925048828125,-0.0007989476434886456,0.0009321055840700865,-0.0005326317623257637
1772651418054929200,2.12192919921875,0.00026631588116288185,0.0003994738217443228,0
1772651418064933000,2.13193310546875,0.0013315794058144093,0.0009321055840700865,0.0005326317623257637
1772651418074937300,2.141937255859375,0.0007989476434886456,0.0003994738217443228,-0.0005326317623257637
1772651418084941300,2.15194140625,-0.00026631588116288185,-0.00013315794058144093,0
1772651418094945300,2.1619453125,0.0007989476434886456,-0.001731053227558732,-0.0010652635246515274
1772651418104949500,2.171949462890625,-0.00026631588116288185,-0.00013315794058144093,0.002130527049303055
1772651418114953500,2.181953369140625,-0.00026631588116288185,-0.0011984214652329683,0
1772651418124957700,2.191957763671875,0.00026631588116288185,0.0003994738217443228,0
1772651418134961700,2.201961669921875,0.0007989476434886456,-0.0011984214652329683,0.0005326317623257637
1772651418144966000,2.2119658203125,0.0007989476434886456,-0.00013315794058144093,0.0005326317623257637
1772651418154969900,2.221969970703125,0.0007989476434886456,0.0003994738217443228,0.0005326317623257637
1772651418164973800,2.231973876953125,-0.0013315794058144093,0.0009321055840700865,-0.0005326317623257637
1772651418174978000,2.24197802734375,-0.00026631588116288185,-0.0011984214652329683,0
1772651418184982000,2.25198193359375,0.00026631588116288185,0.0003994738217443228,0.0010652635246515274
1772651418194986200,2.261986328125,0.0007989476434886456,0.0009321055840700865,0
1772651418204990200,2.271990234375,-0.0007989476434886456,0.0003994738217443228,0.0005326317623257637
1772651418214994400,2.281994384765625,0.00026631588116288185,-0.00013315794058144093,0
1772651418224998400,2.291998291015625,0.00026631588116288185,-0.0011984214652329683,0
1772651418235002400,2.30200244140625,0.0007989476434886456,0.0003994738217443228,-0.0005326317623257637
1772651418245006600,2.312006591796875,0.0007989476434886456,0.0003994738217443228,0
1772651418255010600,2.322010498046875,-0.001864211168140173,-0.0006657897029072046,0.0005326317623257637
1772651418265014000,2.332013916015625,-0.0007989476434886456,0.0003994738217443228,-0.0005326317623257637
1772651418275017500,2.342017578125,-0.0013315794058144093,-0.0011984214652329683,0.001597895286977291
1772651418285021000,2.35202099609375,-0.00026631588116288185,-0.00013315794058144093,-0.001597895286977291
1772651418295024400,2.3620244140625,-0.00026631588116288185,-0.001731053227558732,0.0010652635246515274
1772651418305027800,2.37202783203125,0.0013315794058144093,0.0003994738217443228,0.0005326317623257637
1772651418315031300,2.38203125,-0.00026631588116288185,-0.0006657897029072046,-0.0005326317623257637
1772651418325034800,2.39203466796875,0.00026631588116288185,-0.0011984214652329683,0
1772651418335038200,2.4020380859375,0.00026631588116288185,-0.00013315794058144093,-0.0005326317623257637
1772651418345041700,2.412041748046875,-0.00026631588116288185,-0.00013315794058144093,0
1772651418355045000,2.422045166015625,-0.00026631588116288185,0.0003994738217443228,0.0010652635246515274
1772651418365048600,2.432048583984375,-0.0007989476434886456,-0.0006657897029072046,0
1772651418375052000,2.442052001953125,0.00026631588116288185,0.0003994738217443228,0
1772651418385055500,2.452055419921875,0.0013315794058144093,-0.00013315794058144093,0.001597895286977291
1772651418395059000,2.462058837890625,-0.00026631588116288185,-0.0006657897029072046,-0.0005326317623257637
1772651418405062400,2.4720625,0.0013315794058144093,-0.0006657897029072046,-0.0005326317623257637
1772651418415065900,2.48206591796875,0.00026631588116288185,-0.001731053227558732,0
1772651418425069600,2.492069580078125,-0.00026631588116288185,-0.0006657897029072046,0.001597895286977291
1772651418435073000,2.502072998046875,0.0007989476434886456,0.0009321055840700865,0.0010652635246515274
1772651418445076500,2.512076416015625,0.001864211168140173,0.001997369108721614,0.0010652635246515274
1772651418455080000,2.522079833984375,-0.00026631588116288185,0.0009321055840700865,-0.0005326317623257637
1772651418465083400,2.53208349609375,0.0007989476434886456,0.0003994738217443228,0.0010652635246515274
1772651418475086800,2.5420869140625,0.00026631588116288185,0.0014647373463958502,0.0005326317623257637
1772651418485090300,2.55209033203125,-0.0007989476434886456,0.0003994738217443228,-0.0010652635246515274
1772651418495093800,2.56209375,0.00026631588116288185,0.0014647373463958502,0.0010652635246515274
1772651418505097200,2.57209716796875,0.0013315794058144093,0.0014647373463958502,-0.0005326317623257637
1772651418515100700,2.5821005859375,-0.00026631588116288185,0.0014647373463958502,-0.0005326317623257637
1772651418525104000,2.592104248046875,0.001864211168140173,-0.0006657897029072046,0.0010652635246515274
1772651418535107600,2.602107666015625,0.0007989476434886456,-0.0011984214652329683,0.0010652635246515274
1772651418545111000,2.612111083984375,-0.0007989476434886456,-0.0006657897029072046,-0.001597895286977291
1772651418555114500,2.622114501953125,0.00026631588116288185,-0.0006657897029072046,-0.0005326317623257637
1772651418565118000,2.632117919921875,-0.0007989476434886456,0.0003994738217443228,-0.0005326317623257637
1772651418575121400,2.642121337890625,-0.0007989476434886456,0.0003994738217443228,-0.0010652635246515274
1772651418585125000,2.652125,-0.00026631588116288185,0.0003994738217443228,0.0010652635246515274
1772651418595128600,2.662128662109375,0.0013315794058144093,-0.0006657897029072046,0
1772651418605132000,2.672132080078125,0.0007989476434886456,-0.00013315794058144093,-0.0005326317623257637
1772651418615135500,2.682135498046875,0.00026631588116288185,-0.00013315794058144093,0.002130527049303055
1772651418625139000,2.692138916015625,-0.0007989476434886456,0.001997369108721614,0.0005326317623257637
1772651418635142400,2.702142333984375,0.0007989476434886456,0.001997369108721614,0.0010652635246515274
1772651418645145900,2.712145751953125,0.00026631588116288185,0.0014647373463958502,-0.0005326317623257637
1772651418655149300,2.7221494140625,0.0023968429304659367,0.0003994738217443228,0
1772651418665152800,2.73215283203125,-0.00026631588116288185,0.0014647373463958502,0.0005326317623257637
1772651418675156200,2.74215625,-0.0007989476434886456,0.0014647373463958502,0.0010652635246515274
1772651418685159700,2.75215966796875,0.00026631588116288185,0.0009321055840700865,-0.0010652635246515274
1772651418695163100,2.7621630859375,0.00026631588116288185,0.0014647373463958502,-0.0005326317623257637
1772651418705166600,2.77216650390625,0.0013315794058144093,-0.0022636849898844957,0
1772651418715170000,2.782170166015625,0.00026631588116288185,0.0009321055840700865,0
1772651418725173500,2.792173583984375,0.00026631588116288185,0.0003994738217443228,0
1772651418735177000,2.802177001953125,-0.00026631588116288185,-0.001731053227558732,0
1772651418745180400,2.812180419921875,0.0013315794058144093,0.0009321055840700865,0.0005326317623257637
1772651418755183900,2.822183837890625,-0.00026631588116288185,0.0003994738217443228,0
1772651418765187300,2.832187255859375,0.00026631588116288185,-0.00013315794058144093,-0.0005326317623257637
1772651418775190500,2.8421904296875,0.00026631588116288185,0.0003994738217443228,-0.0005326317623257637
1772651418785194000,2.852194091796875,0.0013315794058144093,0.001997369108721614,0.0010652635246515274
1772651418795197200,2.862197265625,-0.0007989476434886456,-0.00013315794058144093,0
1772651418805200400,2.872200439453125,-0.00026631588116288185,0.0003994738217443228,-0.002130527049303055
1772651418815203800,2.882203857421875,-0.001864211168140173,0.0014647373463958502,-0.0010652635246515274
1772651418825207000,2.89220703125,0.00026631588116288185,0.0009321055840700865,0.002130527049303055
1772651418835210500,2.90221044921875,0.0013315794058144093,0.0003994738217443228,0
1772651418845213700,2.912213623046875,-0.0007989476434886456,-0.001731053227558732,0
1772651418855217000,2.922216796875,-0.00026631588116288185,0.0009321055840700865,-0.0005326317623257637
1772651418865220400,2.932220458984375,-0.0007989476434886456,0.0009321055840700865,0
1772651418875223600,2.9422236328125,0.0007989476434886456,-0.001731053227558732,0.0010652635246515274
1772651418885227000,2.95222705078125,0.00026631588116288185,-0.0006657897029072046,-0.0005326317623257637
1772651418895230200,2.962230224609375,-0.00026631588116288185,0.0009321055840700865,0.0005326317623257637
1772651418905233400,2.9722333984375,-0.00026631588116288185,0.0014647373463958502,0.002130527049303055
1772651418915236900,2.98223681640625,0.00026631588116288185,0.0003994738217443228,0.0005326317623257637
1772651418925240000,2.992239990234375,0.0007989476434886456,0.0003994738217443228,0
1772651418935243500,3.002243408203125,-0.00026631588116288185,0.0009321055840700865,0.0005326317623257637
1772651418945246700,3.012246826171875,0.00026631588116288185,-0.0006657897029072046,0
1772651418955250000,3.02225,0.0013315794058144093,-0.00013315794058144093,0
1772651418965253400,3.03225341796875,0.00026631588116288185,0.0009321055840700865,-0.0010652635246515274
1772651418975256600,3.042256591796875,-0.0007989476434886456,-0.0006657897029072046,0.001597895286977291
1772651418985260000,3.052260009765625,0.00026631588116288185,-0.00013315794058144093,0
1772651418995263200,3.06226318359375,0.0007989476434886456,-0.00013315794058144093,0
1772651419005266400,3.072266357421875,0.00026631588116288185,-0.0022636849898844957,0.0005326317623257637
1772651419015270000,3.082269775390625,-0.0013315794058144093,0.0003994738217443228,0
1772651419025273000,3.092273193359375,0.0007989476434886456,0.0003994738217443228,0.0005326317623257637
1772651419035276500,3.102276611328125,-0.0013315794058144093,-0.00013315794058144093,0.001597895286977291
1772651419045279700,3.11227978515625,0.00026631588116288185,-0.00013315794058144093,-0.0005326317623257637
1772651419055283000,3.122282958984375,0.0007989476434886456,-0.0006657897029072046,0.0005326317623257637
1772651419065286400,3.132286376953125,-0.00026631588116288185,-0.0011984214652329683,0.0005326317623257637
1772651419075289600,3.14228955078125,0.001864211168140173,0.0009321055840700865,0.0005326317623257637
1772651419085293000,3.15229296875,-0.00026631588116288185,0.0003994738217443228,0.001597895286977291
1772651419095296300,3.162296142578125,0.0007989476434886456,0.0014647373463958502,0.001597895286977291
1772651419105299500,3.172299560546875,0.0007989476434886456,0.0003994738217443228,0
1772651419115303000,3.182302978515625,0.0013315794058144093,0.0003994738217443228,-0.0005326317623257637
1772651419125306000,3.19230615234375,0.00026631588116288185,-0.0006657897029072046,0.0010652635246515274
1772651419135309600,3.2023095703125,-0.00026631588116288185,-0.0011984214652329683,0.0005326317623257637
1772651419145312800,3.212312744140625,-0.0007989476434886456,0.0003994738217443228,0.0010652635246515274
1772651419155316000,3.22231591796875,0.0007989476434886456,-0.0011984214652329683,0
1772651419165319400,3.2323193359375,0.00026631588116288185,-0.0006657897029072046,0.0010652635246515274
1772651419175322600,3.242322509765625,0.00026631588116288185,-0.0006657897029072046,-0.002130527049303055
1772651419185326000,3.252326171875,0.0007989476434886456,0.0009321055840700865,0.0005326317623257637
1772651419195329300,3.262329345703125,-0.00026631588116288185,0.0003994738217443228,0
1772651419205332500,3.27233251953125,0.0013315794058144093,-0.0027963167522102594,0.0005326317623257637
1772651419215336000,3.2823359375,-0.0025300008710473776,0.0003994738217443228,0.0009321055840700865
1772651419225339100,3.292339111328125,-0.0009321055840700865,0.0003994738217443228,-0.0006657897029072046
1772651419235342600,3.302342529296875,-0.0003994738217443228,0.0009321055840700865,-0.0011984214652329683
1772651419245345800,3.312345703125,-0.0014647373463958502,-0.00013315794058144093,-0.00013315794058144093
1772651419255349000,3.322348876953125,0.00013315794058144093,0.001997369108721614,0.0003994738217443228
1772651419265352200,3.332352294921875,-0.0009321055840700865,-0.00013315794058144093,-0.0006657897029072046
1772651419275355400,3.34235546875,0.0006657897029072046,-0.0006657897029072046,-0.00013315794058144093
1772651419285358300,3.3523583984375,0.0006657897029072046,-0.0022636849898844957,0.0003994738217443228
1772651419295361500,3.362361572265625,0.0011984214652329683,0.0003994738217443228,-0.00013315794058144093
1772651419305364700,3.37236474609375,-0.0003994738217443228,0.0009321055840700865,0.0003994738217443228
1772651419315368000,3.382367919921875,0.0011984214652329683,0.0003994738217443228,-0.00013315794058144093
1772651419325371000,3.392370849609375,-0.0014647373463958502,-0.0006657897029072046,-0.0006657897029072046
1772651419335374000,3.4023740234375,0.0006657897029072046,0.0009321055840700865,0.0003994738217443228
1772651419345377300,3.412377197265625,0.00013315794058144093,-0.0011984214652329683,-0.00013315794058144093
1772651419355380500,3.42238037109375,-0.0009321055840700865,0.0003994738217443228,-0.0006657897029072046
1772651419365383400,3.432383544921875,-0.0014647373463958502,-0.0011984214652329683,-0.0006657897029072046
1772651419375386600,3.44238671875,0.0006657897029072046,-0.00013315794058144093,-0.00013315794058144093
1772651419385389800,3.452389892578125,0.00013315794058144093,0.0003994738217443228,-0.00013315794058144093
1772651419395393000,3.46239306640625,0.0011984214652329683,0.0014647373463958502,0.0009321055840700865
1772651419405396000,3.47239599609375,0.0006657897029072046,-0.00013315794058144093,0.001997369108721614
1772651419415399200,3.482399169921875,0.00013315794058144093,0.001997369108721614,0.0003994738217443228
1772651419425402400,3.49240234375,-0.0003994738217443228,-0.00013315794058144093,-0.0011984214652329683
1772651419435405600,3.502405517578125,0.0006657897029072046,-0.0011984214652329683,-0.0011984214652329683
1772651419445408500,3.512408447265625,0.0006657897029072046,-0.0006657897029072046,0.0009321055840700865
1772651419455411700,3.52241162109375,-0.0003994738217443228,-0.0006657897029072046,0.001997369108721614
1772651419465415000,3.532414794921875,0.0022636849898844957,0.0009321055840700865,0.0003994738217443228
1772651419475418000,3.542418212890625,-0.0003994738217443228,0.001997369108721614,0.0014647373463958502
1772651419485421000,3.552421142578125,0.0011984214652329683,-0.0006657897029072046,-0.00013315794058144093
1772651419495424300,3.56242431640625,0.0006657897029072046,-0.00013315794058144093,0.0014647373463958502
1772651419505427500,3.572427490234375,-0.0009321055840700865,-0.0011984214652329683,-0.0011984214652329683
1772651419515430700,3.5824306640625,-0.0009321055840700865,-0.00013315794058144093,-0.00013315794058144093
1772651419525433600,3.59243359375,-0.0003994738217443228,-0.00013315794058144093,0.0003994738217443228
1772651419535436800,3.602436767578125,-0.0009321055840700865,0.0003994738217443228,0.0009321055840700865
1772651419545440000,3.61243994140625,-0.0014647373463958502,0.0009321055840700865,0.0009321055840700865
1772651419555443200,3.622443115234375,0.00013315794058144093,-0.0006657897029072046,-0.0006657897029072046
1772651419565446100,3.632446044921875,0.0006657897029072046,0.0003994738217443228,-0.00013315794058144093
1772651419575449300,3.642449462890625,-0.0014647373463958502,-0.0011984214652329683,0.0009321055840700865
1772651419585452500,3.65245263671875,0.00013315794058144093,-0.0022636849898844957,0.0009321055840700865
1772651419595455700,3.662455810546875,-0.0009321055840700865,-0.0022636849898844957,0.0003994738217443228
1772651419605459000,3.672458984375,0.0011984214652329683,-0.0011984214652329683,0.0003994738217443228
1772651419615462000,3.6824619140625,0.00013315794058144093,-0.00013315794058144093,-0.001731053227558732
1772651419625465000,3.692465087890625,0.00013315794058144093,0.0009321055840700865,0.0014647373463958502
1772651419635468300,3.70246826171875,0.00013315794058144093,-0.00013315794058144093,-0.00013315794058144093
1772651419645471500,3.712471435546875,-0.0003994738217443228,-0.0006657897029072046,-0.00013315794058144093
1772651419655474400,3.722474365234375,-0.001997369108721614,0.001997369108721614,0.0003994738217443228
1772651419665484000,3.732484130859375,-0.0009321055840700865,0.0009321055840700865,0.0003994738217443228
1772651419675487200,3.7424873046875,-0.0009321055840700865,0.0009321055840700865,-0.00013315794058144093
1772651419685490400,3.752490478515625,0.0011984214652329683,-0.0006657897029072046,-0.00013315794058144093
1772651419695493400,3.762493408203125,-0.0003994738217443228,0.001997369108721614,0.0003994738217443228
1772651419705496600,3.77249658203125,-0.0003994738217443228,0.0003994738217443228,-0.00013315794058144093
1772651419715499800,3.782499755859375,-0.001997369108721614,-0.001731053227558732,-0.00013315794058144093
1772651419725503000,3.7925029296875,0.0006657897029072046,0.0003994738217443228,-0.00013315794058144093
1772651419735506000,3.802505859375,0.0006657897029072046,0.0009321055840700865,0.0003994738217443228
1772651419745509000,3.812509033203125,0.0006657897029072046,0.0003994738217443228,-0.00013315794058144093
1772651419755512300,3.82251220703125,0.0006657897029072046,0.001997369108721614,-0.0006657897029072046
1772651419765515800,3.832515869140625,-0.0003994738217443228,-0.0011984214652329683,-0.001731053227558732
1772651419775519200,3.842519287109375,0.00013315794058144093,-0.0022636849898844957,0.0003994738217443228
1772651419785523000,3.85252294921875,-0.0014647373463958502,-0.0006657897029072046,-0.00013315794058144093
1772651419795526400,3.8625263671875,-0.0003994738217443228,-0.00013315794058144093,0.0009321055840700865
1772651419805529900,3.87252978515625,-0.001997369108721614,0.0009321055840700865,0.0009321055840700865
1772651419815533300,3.882533203125,0.0006657897029072046,0.0003994738217443228,-0.00013315794058144093
1772651419825536800,3.892536865234375,0.00013315794058144093,-0.001731053227558732,-0.00013315794058144093
1772651419835540200,3.902540283203125,0.0006657897029072046,-0.00013315794058144093,-0.0006657897029072046
1772651419845544000,3.9125439453125,-0.0003994738217443228,0.0003994738217443228,-0.0006657897029072046
1772651419855547400,3.92254736328125,-0.0003994738217443228,-0.0006657897029072046,0.0014647373463958502
1772651419865550800,3.93255078125,0.0006657897029072046,-0.0006657897029072046,-0.0006657897029072046
1772651419875554300,3.94255419921875,-0.0009321055840700865,0.0003994738217443228,-0.00013315794058144093
1772651419885557800,3.952557861328125,0.00013315794058144093,0.0014647373463958502,-0.00013315794058144093
1772651419895561200,3.962561279296875,-0.0009321055840700865,-0.0006657897029072046,0.001997369108721614
1772651419905565000,3.97256494140625,0.0006657897029072046,-0.0006657897029072046,-0.0006657897029072046
1772651419915568400,3.982568359375,-0.0003994738217443228,-0.0006657897029072046,-0.0006657897029072046
1772651419925571800,3.99257177734375,0.00013315794058144093,0.0003994738217443228,-0.0006657897029072046
1772651419935575300,4.0025751953125,-0.0003994738217443228,-0.0006657897029072046,-0.00013315794058144093
1772651419945578800,4.012578857421875,-0.0009321055840700865,0.0009321055840700865,0.001997369108721614
1772651419955582200,4.022582275390625,-0.0009321055840700865,0.0014647373463958502,0.0003994738217443228
1772651419965586000,4.0325859375,0.00013315794058144093,-0.0011984214652329683,-0.00013315794058144093
1772651419975589400,4.04258935546875,0.00013315794058144093,0.0003994738217443228,-0.0006657897029072046
1772651419985592800,4.0525927734375,-0.0014647373463958502,0.0003994738217443228,-0.00013315794058144093
1772651419995596300,4.06259619140625,0.00013315794058144093,0.0014647373463958502,-0.0011984214652329683
1772651420005599700,4.072599853515625,0.00013315794058144093,-0.00013315794058144093,-0.0006657897029072046
1772651420015603500,4.082603515625,0.0011984214652329683,0.0003994738217443228,-0.00013315794058144093
1772651420025607000,4.09260693359375,-0.0003994738217443228,0.0009321055840700865,-0.0006657897029072046
1772651420035610400,4.1026103515625,0.00013315794058144093,-0.0006657897029072046,0.0003994738217443228
1772651420045613800,4.11261376953125,0.00013315794058144093,0.0009321055840700865,0.0003994738217443228
1772651420055617300,4.1226171875,0.00013315794058144093,0.0003994738217443228,0.0009321055840700865
1772651420065620700,4.132620849609375,-0.0014647373463958502,0.0009321055840700865,0.0009321055840700865
1772651420075624400,4.14262451171875,0.00013315794058144093,-0.0011984214652329683,-0.0006657897029072046
1772651420085628000,4.1526279296875,-0.0003994738217443228,0.0003994738217443228,-0.00013315794058144093
1772651420095631400,4.16263134765625,0.0006657897029072046,-0.0011984214652329683,0.0003994738217443228
1772651420105634800,4.172634765625,-0.0003994738217443228,-0.0006657897029072046,0.0009321055840700865
1772651420115638300,4.18263818359375,0.00013315794058144093,0.0009321055840700865,0.0003994738217443228
1772651420125641700,4.192641845703125,0.0011984214652329683,-0.00013315794058144093,-0.0006657897029072046
1772651420135645400,4.2026455078125,0.0006657897029072046,-0.0011984214652329683,-0.00013315794058144093
1772651420145649000,4.21264892578125,0.0006657897029072046,0.0003994738217443228,-0.0011984214652329683
1772651420155652400,4.22265234375,-0.0003994738217443228,-0.0011984214652329683,0.0003994738217443228
1772651420165655800,4.23265576171875,-0.0003994738217443228,0.0003994738217443228,-0.00013315794058144093
1772651420175659300,4.2426591796875,-0.0009321055840700865,0.0014647373463958502,-0.00013315794058144093
1772651420185662700,4.252662841796875,0.0011984214652329683,0.0014647373463958502,0.0003994738217443228
1772651420195666400,4.26266650390625,0.0006657897029072046,-0.00013315794058144093,-0.0011984214652329683
1772651420205670000,4.272669921875,0.0011984214652329683,0.0003994738217443228,-0.00013315794058144093
1772651420215673300,4.28267333984375,-0.0003994738217443228,0.0014647373463958502,0.0003994738217443228
1772651420225676800,4.2926767578125,0.0006657897029072046,-0.0006657897029072046,0.0009321055840700865
1772651420235680300,4.30268017578125,0.0011984214652329683,-0.00013315794058144093,0.0003994738217443228
1772651420245683700,4.31268359375,0.00013315794058144093,0.0009321055840700865,-0.0006657897029072046
1772651420255687200,4.322687255859375,0.0006657897029072046,-0.00013315794058144093,-0.00013315794058144093
1772651420265690000,4.332690185546875,-0.0003994738217443228,-0.001731053227558732,0.0009321055840700865
1772651420275693000,4.342693115234375,-0.0003994738217443228,-0.0006657897029072046,-0.00013315794058144093
1772651420285696000,4.352696044921875,0.0006657897029072046,0.0009321055840700865,-0.00013315794058144093
1772651420295699200,4.36269921875,-0.0003994738217443228,-0.001731053227558732,0.0014647373463958502
1772651420305702100,4.3727021484375,-0.0014647373463958502,0.0003994738217443228,0.0003994738217443228
1772651420315705000,4.382705078125,0.00013315794058144093,0.001997369108721614,0.0014647373463958502
1772651420325708000,4.3927080078125,-0.0003994738217443228,-0.0022636849898844957,-0.0011984214652329683
1772651420335711200,4.402711181640625,0.00013315794058144093,0.0003994738217443228,-0.001731053227558732
1772651420345714200,4.412714111328125,0.0011984214652329683,-0.0006657897029072046,-0.0011984214652329683
1772651420355717000,4.422717041015625,-0.0009321055840700865,-0.00013315794058144093,-0.0006657897029072046
1772651420365720000,4.432719970703125,-0.0014647373463958502,-0.0011984214652329683,0.0003994738217443228
1772651420375723300,4.44272314453125,-0.0003994738217443228,0.0009321055840700865,0.0003994738217443228
1772651420385726200,4.452726318359375,-0.0003994738217443228,-0.0006657897029072046,-0.00013315794058144093
1772651420395729200,4.462729248046875,-0.0003994738217443228,0.0003994738217443228,0.0009321055840700865
1772651420405732000,4.472732177734375,0.00013315794058144093,-0.00013315794058144093,-0.0006657897029072046
1772651420415735300,4.4827353515625,-0.0003994738217443228,-0.00013315794058144093,0.0025300008710473776
1772651420425738200,4.49273828125,-0.0009321055840700865,-0.001731053227558732,0.0003994738217443228
1772651420435741200,4.5027412109375,0.00013315794058144093,-0.001731053227558732,-0.00013315794058144093
1772651420445744000,4.512744140625,0.00013315794058144093,-0.0006657897029072046,-0.00013315794058144093
1772651420455747300,4.522747314453125,-0.0009321055840700865,0.0009321055840700865,0.0009321055840700865
1772651420465750300,4.532750244140625,-0.0003994738217443228,-0.00013315794058144093,0.0003994738217443228
1772651420475753200,4.542753173828125,-0.0003994738217443228,-0.00013315794058144093,-0.0006657897029072046
1772651420485756200,4.552756103515625,-0.0009321055840700865,-0.0011984214652329683,0.001997369108721614
1772651420495759400,4.56275927734375,0.0006657897029072046,0.0003994738217443228,0.0009321055840700865
1772651420505762300,4.57276220703125,0.0011984214652329683,0.0003994738217443228,-0.0006657897029072046
1772651420515765200,4.58276513671875,0.00013315794058144093,0.0009321055840700865,0.0003994738217443228
1772651420525768200,4.592768310546875,-0.0003994738217443228,0.0009321055840700865,-0.0006657897029072046
1772651420535771400,4.602771484375,0.0006657897029072046,-0.0011984214652329683,-0.0006657897029072046
1772651420545774300,4.6127744140625,0.00013315794058144093,-0.00013315794058144093,-0.0006657897029072046
1772651420555777300,4.62277734375,0.001731053227558732,0.0014647373463958502,-0.001731053227558732
1772651420565780200,4.6327802734375,0.0006657897029072046,0.0009321055840700865,0.0003994738217443228
1772651420575783400,4.642783447265625,0.00013315794058144093,0.0014647373463958502,-0.0006657897029072046
1772651420585786400,4.652786376953125,0.00013315794058144093,0.0003994738217443228,-0.0006657897029072046
1772651420595789300,4.662789306640625,-0.0003994738217443228,0.0003994738217443228,0.0014647373463958502
1772651420605792300,4.672792236328125,0.0006657897029072046,0.0009321055840700865,-0.0011984214652329683
1772651420615795500,4.68279541015625,0.00013315794058144093,0.0003994738217443228,0.001997369108721614
1772651420625798400,4.69279833984375,0.0006657897029072046,0.0009321055840700865,0.0014647373463958502
1772651420635801300,4.70280126953125,0.0006657897029072046,-0.00013315794058144093,0.0009321055840700865
1772651420645804300,4.71280419921875,0.00013315794058144093,0.0003994738217443228,-0.0006657897029072046
1772651420655807500,4.722807373046875,0.00013315794058144093,-0.0006657897029072046,0.0009321055840700865
1772651420665810400,4.732810546875,-0.0003994738217443228,0.0030626326333731413,0.0003994738217443228
1772651420675813400,4.7428134765625,0.00013315794058144093,-0.001731053227558732,0.0003994738217443228
1772651420685816300,4.75281640625,0.0006657897029072046,-0.00013315794058144093,-0.0006657897029072046
1772651420695819500,4.762819580078125,-0.0003994738217443228,-0.0006657897029072046,0.0003994738217443228
1772651420705822500,4.772822509765625,-0.0014647373463958502,-0.0006657897029072046,0.0003994738217443228
1772651420715825400,4.782825439453125,-0.0003994738217443228,-0.0006657897029072046,0.0009321055840700865
1772651420725828400,4.792828369140625,0.0006657897029072046,-0.00013315794058144093,0.0003994738217443228
1772651420735831300,4.802831298828125,-0.0003994738217443228,0.0009321055840700865,-0.00013315794058144093
1772651420745834500,4.81283447265625,0.0006657897029072046,-0.0011984214652329683,-0.00013315794058144093
1772651420755837700,4.822837646484375,0.001731053227558732,-0.001731053227558732,-0.00013315794058144093
1772651420765841400,4.83284130859375,0.00013315794058144093,0.0009321055840700865,-0.00013315794058144093
1772651420775845000,4.84284521484375,0.00013315794058144093,0.0003994738217443228,0.0003994738217443228
1772651420785848800,4.852848876953125,0.0006657897029072046,-0.00013315794058144093,-0.0011984214652329683
1772651420795852500,4.8628525390625,-0.0003994738217443228,0.0003994738217443228,0.0003994738217443228
1772651420805856300,4.872856201171875,-0.0009321055840700865,0.0014647373463958502,0.0009321055840700865
1772651420815860000,4.88285986328125,0.0006657897029072046,0.0009321055840700865,0.001997369108721614
1772651420825863700,4.89286376953125,-0.0003994738217443228,0.0003994738217443228,0.0003994738217443228
1772651420835867400,4.902867431640625,0.0006657897029072046,0.0003994738217443228,0.0014647373463958502
1772651420845871000,4.91287109375,-0.0014647373463958502,0.0003994738217443228,0.0009321055840700865
1772651420855874800,4.922874755859375,0.0006657897029072046,0.0009321055840700865,-0.00013315794058144093
1772651420865878500,4.93287841796875,-0.0003994738217443228,0.0009321055840700865,0.0009321055840700865
1772651420875882200,4.94288232421875,0.00013315794058144093,0.0003994738217443228,-0.00013315794058144093
1772651420885886000,4.952885986328125,0.00013315794058144093,-0.0006657897029072046,0.0030626326333731413
1772651420895889700,4.9628896484375,-0.0014647373463958502,-0.0006657897029072046,-0.001731053227558732
1772651420905893400,4.972893310546875,-0.0009321055840700865,-0.00013315794058144093,0.0014647373463958502
1772651420915897000,4.98289697265625,0.0011984214652329683,-0.0022636849898844957,-0.00013315794058144093
1772651420925900800,4.99290087890625,-0.0009321055840700865,-0.00013315794058144093,-0.00013315794058144093
1772651420935904500,5.002904541015625,-0.0009321055840700865,0.0009321055840700865,0.0003994738217443228
1772651420945908200,5.012908203125,0.00013315794058144093,0.0009321055840700865,-0.001731053227558732
1772651420955912000,5.022911865234375,-0.0009321055840700865,-0.0011984214652329683,-0.0006657897029072046
1772651420965915600,5.03291552734375,0.0013315794058144093,-0.0011984214652329683,0.00026631588116288185
1772651420975919400,5.04291943359375,0.00026631588116288185,0.0003994738217443228,0.0007989476434886456
1772651420985923000,5.052923095703125,0.00026631588116288185,0.0003994738217443228,0.0007989476434886456
1772651420995926800,5.0629267578125,-0.0007989476434886456,0.0003994738217443228,-0.0007989476434886456
1772651421005930500,5.072930419921875,0.0013315794058144093,0.0009321055840700865,-0.00026631588116288185
1772651421015934200,5.082934326171875,0.0007989476434886456,-0.00013315794058144093,-0.0007989476434886456
1772651421025938000,5.09293798828125,-0.0007989476434886456,-0.0011984214652329683,0.0013315794058144093
1772651421035941600,5.102941650390625,0.00026631588116288185,-0.00013315794058144093,0.00026631588116288185
1772651421045945300,5.1129453125,0.00026631588116288185,0.0003994738217443228,-0.00026631588116288185
1772651421055949000,5.122948974609375,-0.00026631588116288185,-0.00013315794058144093,-0.0013315794058144093
1772651421065952800,5.132952880859375,-0.00026631588116288185,-0.0006657897029072046,-0.0007989476434886456
1772651421075956500,5.14295654296875,0.00026631588116288185,-0.0006657897029072046,-0.0013315794058144093
1772651421085960200,5.152960205078125,-0.00026631588116288185,-0.0011984214652329683,0.00026631588116288185
1772651421095964000,5.1629638671875,0.0007989476434886456,-0.00013315794058144093,0.00026631588116288185
1772651421105967600,5.172967529296875,-0.0007989476434886456,-0.001731053227558732,0.00026631588116288185
1772651421115971300,5.182971435546875,0.00026631588116288185,-0.0006657897029072046,0.00026631588116288185
1772651421125975000,5.19297509765625,0.0007989476434886456,0.003595264395698905,-0.001864211168140173
1772651421135978800,5.202978759765625,-0.00026631588116288185,0.0009321055840700865,0.00026631588116288185
1772651421145982500,5.212982421875,0.00026631588116288185,-0.0011984214652329683,0.00026631588116288185
1772651421155986200,5.222986083984375,-0.00026631588116288185,0.0025300008710473776,0.001864211168140173
1772651421165990000,5.232989990234375,0.0013315794058144093,0.0009321055840700865,0.00026631588116288185
1772651421175993600,5.24299365234375,-0.00026631588116288185,-0.0011984214652329683,0.00026631588116288185
1772651421185997300,5.252997314453125,0.0013315794058144093,-0.0006657897029072046,-0.00026631588116288185
1772651421196001000,5.2630009765625,0.00026631588116288185,-0.0011984214652329683,-0.0007989476434886456
1772651421206005000,5.2730048828125,-0.001864211168140173,0.0014647373463958502,-0.001864211168140173
1772651421216008400,5.283008544921875,0.00026631588116288185,0.0003994738217443228,0.00026631588116288185
1772651421226012200,5.29301220703125,0.0007989476434886456,-0.0011984214652329683,0.00026631588116288185
1772651421236016000,5.30301611328125,0.0013315794058144093,-0.0011984214652329683,0.0007989476434886456
1772651421246019600,5.31301953125,-0.00026631588116288185,-0.00013315794058144093,0.0013315794058144093
1772651421256023300,5.323023193359375,0.00026631588116288185,-0.0006657897029072046,-0.0007989476434886456
1772651421266026500,5.333026611328125,-0.00026631588116288185,-0.0006657897029072046,0.00026631588116288185
1772651421276029700,5.34302978515625,-0.00026631588116288185,-0.001731053227558732,0.001864211168140173
1772651421286033000,5.353032958984375,-0.00026631588116288185,-0.0006657897029072046,-0.00026631588116288185
1772651421296036400,5.363036376953125,0.0007989476434886456,-0.00013315794058144093,-0.00026631588116288185
1772651421306039600,5.37303955078125,0.001864211168140173,-0.0011984214652329683,0.00026631588116288185
1772651421316042800,5.383042724609375,0.00026631588116288185,0.0009321055840700865,-0.0013315794058144093
1772651421326046000,5.3930458984375,-0.0007989476434886456,0.0030626326333731413,-0.00026631588116288185
1772651421336049200,5.403049072265625,0.0007989476434886456,0.0003994738217443228,0.00026631588116288185
1772651421346052600,5.413052490234375,-0.00026631588116288185,0.0014647373463958502,0.0007989476434886456
1772651421356055800,5.423055908203125,-0.00026631588116288185,-0.0022636849898844957,0.00026631588116288185
1772651421366059000,5.43305908203125,0.001864211168140173,-0.00013315794058144093,-0.00026631588116288185
1772651421376062200,5.443062255859375,0.0007989476434886456,0.0009321055840700865,-0.00026631588116288185
1772651421386065700,5.453065673828125,0.0007989476434886456,0.0003994738217443228,-0.00026631588116288185
1772651421396068900,5.46306884765625,0.00026631588116288185,0.0003994738217443228,-0.0007989476434886456
1772651421406072000,5.473072021484375,0.00026631588116288185,0.0003994738217443228,-0.00026631588116288185
1772651421416075300,5.4830751953125,-0.00026631588116288185,0.0009321055840700865,-0.00026631588116288185
1772651421426078500,5.493078369140625,-0.0007989476434886456,-0.0011984214652329683,-0.0007989476434886456
1772651421436082000,5.50308203125,0.00026631588116288185,-0.0006657897029072046,-0.0007989476434886456
1772651421446085000,5.513085205078125,-0.0007989476434886456,-0.00013315794058144093,-0.00026631588116288185
1772651421456088300,5.52308837890625,-0.0007989476434886456,-0.001731053227558732,0.0007989476434886456
1772651421466091500,5.533091552734375,0.00026631588116288185,-0.0011984214652329683,-0.0007989476434886456
1772651421476094700,5.5430947265625,-0.0013315794058144093,0.0014647373463958502,0.0007989476434886456
1772651421486098000,5.553097900390625,-0.00026631588116288185,-0.0006657897029072046,0.00026631588116288185
1772651421496101400,5.563101318359375,-0.00026631588116288185,0.0014647373463958502,0.00026631588116288185
1772651421506104600,5.5731044921875,0.0007989476434886456,-0.00013315794058144093,-0.00026631588116288185
1772651421516107800,5.583107666015625,-0.0007989476434886456,-0.00013315794058144093,0.00026631588116288185
1772651421526111000,5.593111083984375,0.00026631588116288185,-0.00013315794058144093,0.0013315794058144093
1772651421536114200,5.6031142578125,-0.00026631588116288185,-0.0006657897029072046,-0.0013315794058144093
1772651421546117600,5.61311767578125,0.0007989476434886456,0.0014647373463958502,-0.0007989476434886456
1772651421556120800,5.623120849609375,-0.00026631588116288185,0.0003994738217443228,-0.00026631588116288185
1772651421566124000,5.6331240234375,0.0013315794058144093,-0.0011984214652329683,0.00026631588116288185
1772651421576127200,5.643127197265625,0.0013315794058144093,-0.001731053227558732,0.00026631588116288185
1772651421586130400,5.65313037109375,-0.001864211168140173,0.0003994738217443228,-0.00026631588116288185
1772651421596134000,5.6631337890625,0.00026631588116288185,-0.0006657897029072046,-0.00026631588116288185
1772651421606137000,5.67313720703125,0.0013315794058144093,0.0003994738217443228,-0.0007989476434886456
1772651421616140300,5.683140380859375,-0.00026631588116288185,-0.0011984214652329683,-0.0013315794058144093
1772651421626143500,5.6931435546875,0.001864211168140173,0.0009321055840700865,0.0013315794058144093
1772651421636147000,5.70314697265625,0.00026631588116288185,0.0025300008710473776,-0.0007989476434886456
1772651421646150100,5.713150146484375,-0.0007989476434886456,0.001997369108721614,0.0007989476434886456
1772651421656153300,5.7231533203125,-0.0007989476434886456,0.0009321055840700865,0.00026631588116288185
1772651421666156500,5.733156494140625,0.0007989476434886456,-0.0006657897029072046,-0.0013315794058144093
1772651421676159700,5.74315966796875,-0.0013315794058144093,-0.0006657897029072046,-0.0013315794058144093
1772651421686163200,5.7531630859375,-0.0007989476434886456,-0.00013315794058144093,-0.001864211168140173
1772651421696166400,5.76316650390625,0.00026631588116288185,0.0003994738217443228,-0.00026631588116288185
1772651421706169600,5.773169677734375,0.00026631588116288185,-0.001731053227558732,-0.00026631588116288185
1772651421716172800,5.7831728515625,-0.001864211168140173,-0.0006657897029072046,-0.0013315794058144093
1772651421726176000,5.793176025390625,-0.00026631588116288185,-0.0011984214652329683,-0.00026631588116288185
1772651421736179500,5.803179443359375,0.0007989476434886456,-0.001731053227558732,-0.00026631588116288185
1772651421746182700,5.8131826171875,-0.0007989476434886456,0.0003994738217443228,-0.00026631588116288185
1772651421756185900,5.823185791015625,0.0007989476434886456,0.0009321055840700865,-0.0013315794058144093
1772651421766189300,5.833189208984375,-0.001864211168140173,-0.001731053227558732,-0.00026631588116288185
1772651421776192500,5.843192626953125,0.001864211168140173,0.0003994738217443228,-0.0007989476434886456
1772651421786196000,5.853196044921875,-0.0013315794058144093,0.0009321055840700865,0.00026631588116288185
1772651421796199400,5.863199462890625,0.00026631588116288185,0.0003994738217443228,-0.0007989476434886456
1772651421806203000,5.873202880859375,0.00026631588116288185,-0.00013315794058144093,0.00026631588116288185
1772651421816206300,5.883206298828125,-0.00026631588116288185,-0.00013315794058144093,0.00026631588116288185
1772651421826209500,5.89320947265625,0.00026631588116288185,0.0014647373463958502,0.0007989476434886456
1772651421836213000,5.903212890625,-0.0013315794058144093,0.0014647373463958502,0.00026631588116288185
1772651421846216400,5.913216552734375,-0.0007989476434886456,-0.0006657897029072046,0.00026631588116288185
1772651421856219600,5.9232197265625,0.00026631588116288185,-0.0006657897029072046,0.0007989476434886456
1772651421866223000,5.93322314453125,-0.0007989476434886456,0.0009321055840700865,-0.00026631588116288185
1772651421876226600,5.9432265625,-0.0007989476434886456,0.0003994738217443228,-0.00026631588116288185
1772651421886230000,5.95322998046875,0.00026631588116288185,-0.0011984214652329683,0.00026631588116288185
1772651421896233200,5.963233154296875,0.0007989476434886456,-0.0006657897029072046,0.0013315794058144093
1772651421906236700,5.973236572265625,0.00026631588116288185,0.0009321055840700865,-0.001864211168140173
1772651421916240100,5.983240234375,0.00026631588116288185,0.0009321055840700865,0.0007989476434886456
1772651421926243600,5.99324365234375,0.001864211168140173,0.0009321055840700865,0.00026631588116288185
1772651421936246800,6.003246826171875,0.0007989476434886456,0.0014647373463958502,-0.00026631588116288185
1772651421946250200,6.013250244140625,-0.00026631588116288185,-0.0022636849898844957,0.0007989476434886456
1772651421956253700,6.023253662109375,0.00026631588116288185,-0.00013315794058144093,-0.00026631588116288185
1772651421966257000,6.0332568359375,0.0007989476434886456,0.0003994738217443228,-0.0013315794058144093
1772651421976260400,6.04326025390625,0.0007989476434886456,-0.0011984214652329683,0.001864211168140173
1772651421986263800,6.053263916015625,0.0013315794058144093,-0.0006657897029072046,-0.00026631588116288185
1772651421996267300,6.063267333984375,-0.0007989476434886456,-0.0011984214652329683,0.0013315794058144093
1772651422006270500,6.0732705078125,0.00026631588116288185,-0.00013315794058144093,0.0007989476434886456
1772651422016274000,6.08327392578125,-0.00026631588116288185,0.0003994738217443228,0.00026631588116288185
1772651422026277400,6.09327734375,-0.0007989476434886456,0.0003994738217443228,-0.00026631588116288185
1772651422036280600,6.103280517578125,-0.001864211168140173,-0.00013315794058144093,-0.00026631588116288185
1772651422046284000,6.113283935546875,-0.0007989476434886456,0.0014647373463958502,-0.0007989476434886456
1772651422056287500,6.12328759765625,-0.00026631588116288185,-0.00013315794058144093,0.00026631588116288185
1772651422066291000,6.133291015625,-0.00026631588116288185,-0.00013315794058144093,0.00026631588116288185
1772651422076294100,6.143294189453125,-0.0013315794058144093,-0.0006657897029072046,0.00026631588116288185
1772651422086297600,6.153297607421875,0.0007989476434886456,0.0014647373463958502,-0.0007989476434886456
1772651422096301000,6.163301025390625,0.0013315794058144093,-0.0006657897029072046,0.00026631588116288185
1772651422106304500,6.173304443359375,0.0007989476434886456,0.0014647373463958502,-0.0013315794058144093
1772651422116307700,6.1833076171875,0.0013315794058144093,0.0009321055840700865,0.00026631588116288185
1772651422126311200,6.193311279296875,-0.00026631588116288185,-0.0006657897029072046,-0.00026631588116288185
1772651422136314600,6.203314697265625,-0.00026631588116288185,-0.00013315794058144093,-0.00026631588116288185
1772651422146318000,6.213318115234375,0.00026631588116288185,0.0009321055840700865,0.0007989476434886456
1772651422156321300,6.2233212890625,-0.00026631588116288185,-0.001731053227558732,0.00026631588116288185
1772651422166324700,6.23332470703125,-0.00026631588116288185,-0.00013315794058144093,0.0007989476434886456
1772651422176328200,6.243328125,-0.0007989476434886456,-0.00013315794058144093,-0.00026631588116288185
1772651422186331600,6.25333154296875,-0.00026631588116288185,-0.0006657897029072046,-0.0007989476434886456
1772651422196334800,6.2633349609375,-0.0007989476434886456,-0.00013315794058144093,-0.0013315794058144093
1772651422206338300,6.27333837890625,-0.00026631588116288185,0.0014647373463958502,-0.001864211168140173
1772651422216341800,6.283341796875,-0.00026631588116288185,-0.00013315794058144093,0.00026631588116288185
1772651422226345000,6.293344970703125,0.00026631588116288185,0.0003994738217443228,0.00026631588116288185
1772651422236348400,6.303348388671875,0.0007989476434886456,-0.0022636849898844957,-0.0007989476434886456
1772651422246352000,6.313351806640625,-0.00026631588116288185,0.0009321055840700865,0.001864211168140173
1772651422256355000,6.32335498046875,0.0013315794058144093,-0.00013315794058144093,-0.00026631588116288185
1772651422266358000,6.33335791015625,-0.0007989476434886456,0.0003994738217443228,-0.0013315794058144093
1772651422276361000,6.34336083984375,-0.00026631588116288185,0.001997369108721614,-0.00026631588116288185
1772651422286364000,6.353364013671875,-0.0007989476434886456,0.0009321055840700865,0.00026631588116288185
1772651422296366800,6.363366943359375,-0.0013315794058144093,0.0003994738217443228,-0.0007989476434886456
1772651422306369800,6.373369873046875,0.0013315794058144093,-0.00013315794058144093,-0.00026631588116288185
1772651422316372700,6.383372802734375,0.0007989476434886456,0.0003994738217443228,-0.00026631588116288185
1772651422326375700,6.393375732421875,-0.001864211168140173,-0.00013315794058144093,0.0013315794058144093
1772651422336378600,6.403378662109375,0.0013315794058144093,-0.0006657897029072046,-0.00026631588116288185
1772651422346381600,6.413381591796875,0.0013315794058144093,0.0003994738217443228,0.0007989476434886456
1772651422356384500,6.423384521484375,0.0007989476434886456,-0.00013315794058144093,-0.0013315794058144093
1772651422366387500,6.433387451171875,0.0007989476434886456,-0.00013315794058144093,0.00026631588116288185
1772651422376390400,6.443390380859375,0.0007989476434886456,-0.0006657897029072046,-0.0007989476434886456
1772651422386393300,6.453393310546875,-0.00026631588116288185,0.0003994738217443228,-0.0013315794058144093
1772651422396396300,6.463396240234375,0.001864211168140173,0.0003994738217443228,0.0007989476434886456
1772651422406399200,6.473399169921875,-0.00026631588116288185,-0.0006657897029072046,-0.00026631588116288185
1772651422416402200,6.483402099609375,0.00026631588116288185,0.0003994738217443228,-0.001864211168140173
1772651422426405000,6.493405029296875,-0.0013315794058144093,-0.00013315794058144093,0.00026631588116288185
1772651422436408000,6.503407958984375,0.0007989476434886456,-0.00013315794058144093,0.00026631588116288185
1772651422446411000,6.513410888671875,0.00026631588116288185,0.0003994738217443228,0.00026631588116288185
1772651422456414000,6.5234140625,-0.00026631588116288185,-0.00013315794058144093,-0.0007989476434886456
1772651422466417000,6.5334169921875,-0.00026631588116288185,-0.00013315794058144093,0.0013315794058144093
1772651422476419800,6.543419921875,-0.0007989476434886456,0.0009321055840700865,-0.00026631588116288185
1772651422486422800,6.5534228515625,-0.00026631588116288185,0.0009321055840700865,-0.0007989476434886456
1772651422496426000,6.563426025390625,0.0013315794058144093,0.0014647373463958502,0.0007989476434886456
1772651422506428700,6.5734287109375,0.00026631588116288185,0.0003994738217443228,-0.00026631588116288185
1772651422516432000,6.583431884765625,-0.0013315794058144093,0.0003994738217443228,-0.0013315794058144093
1772651422526434800,6.593434814453125,-0.00026631588116288185,0.0009321055840700865,0.00026631588116288185
1772651422536437500,6.6034375,0.00026631588116288185,-0.00013315794058144093,0.0013315794058144093
1772651422546440700,6.613440673828125,0.001864211168140173,0.0014647373463958502,-0.00026631588116288185
1772651422556443400,6.623443359375,0.0013315794058144093,0.0009321055840700865,-0.0013315794058144093
1772651422566446600,6.633446533203125,-0.00026631588116288185,0.0009321055840700865,-0.0007989476434886456
1772651422576449500,6.643449462890625,0.00026631588116288185,-0.0006657897029072046,0.0007989476434886456
1772651422586452500,6.653452392578125,0.00026631588116288185,-0.00013315794058144093,-0.00026631588116288185
1772651422596455400,6.663455322265625,-0.0007989476434886456,0.0009321055840700865,0.0013315794058144093
1772651422606458400,6.673458251953125,0.0007989476434886456,-0.0006657897029072046,0.00026631588116288185
1772651422616461300,6.68346142578125,-0.001864211168140173,0.0009321055840700865,-0.0013315794058144093
1772651422626464300,6.69346435546875,-0.00026631588116288185,-0.0011984214652329683,-0.0007989476434886456
1772651422636467200,6.70346728515625,-0.00026631588116288185,0.0003994738217443228,-0.00026631588116288185
1772651422646470100,6.71347021484375,0.00026631588116288185,0.0009321055840700865,-0.00026631588116288185
1772651422656473000,6.72347314453125,-0.0013315794058144093,0.0014647373463958502,0.00026631588116288185
1772651422666476000,6.73347607421875,-0.0013315794058144093,0.0009321055840700865,0.0007989476434886456
1772651422676479000,6.74347900390625,0.0013315794058144093,-0.0006657897029072046,-0.00026631588116288185
1772651422686482000,6.75348193359375,0.0013315794058144093,-0.00013315794058144093,0.0007989476434886456
1772651422696484900,6.76348486328125,-0.001864211168140173,-0.00013315794058144093,0.00026631588116288185
1772651422706487800,6.77348779296875,0.00026631588116288185,-0.0006657897029072046,-0.0007989476434886456
1772651422716490800,6.78349072265625,-0.0007989476434886456,-0.00013315794058144093,0.0003994738217443228
1772651422726493700,6.79349365234375,-0.00026631588116288185,-0.0006657897029072046,-0.0006657897029072046
1772651422736496600,6.80349658203125,0.00026631588116288185,0.0009321055840700865,0.0003994738217443228
1772651422746499600,6.81349951171875,0.00026631588116288185,-0.0022636849898844957,0.0009321055840700865
1772651422756502500,6.82350244140625,0.00026631588116288185,-0.0006657897029072046,-0.0011984214652329683
1772651422766506000,6.833506103515625,0.0007989476434886456,-0.00013315794058144093,0.0009321055840700865
1772651422776509200,6.84350927734375,-0.0007989476434886456,-0.0011984214652329683,0.0003994738217443228
1772651422786512400,6.853512451171875,0.00026631588116288185,-0.0006657897029072046,0.0003994738217443228
1772651422796515600,6.863515625,0.0007989476434886456,0.0003994738217443228,-0.0006657897029072046
1772651422806518800,6.873518798828125,0.001864211168140173,0.0009321055840700865,0.0003994738217443228
1772651422816522000,6.88352197265625,-0.00026631588116288185,0.0009321055840700865,-0.00013315794058144093
1772651422826525200,6.893525146484375,-0.0013315794058144093,0.0025300008710473776,0.0009321055840700865
1772651422836528600,6.903528564453125,-0.0007989476434886456,-0.0011984214652329683,0.0003994738217443228
1772651422846531800,6.91353173828125,-0.00026631588116288185,0.0009321055840700865,-0.00013315794058144093
1772651422856535000,6.92353515625,-0.0007989476434886456,-0.001731053227558732,0.0003994738217443228
1772651422866538200,6.933538330078125,0.0013315794058144093,-0.0006657897029072046,-0.0006657897029072046
1772651422876541400,6.94354150390625,-0.0013315794058144093,-0.0022636849898844957,-0.00013315794058144093
1772651422886544600,6.953544677734375,0.0007989476434886456,-0.0011984214652329683,-0.00013315794058144093
1772651422896547800,6.9635478515625,-0.00026631588116288185,-0.0006657897029072046,0.0014647373463958502
1772651422906551300,6.97355126953125,-0.0007989476434886456,-0.00013315794058144093,0.0009321055840700865
1772651422916554500,6.983554443359375,-0.00026631588116288185,0.0014647373463958502,0.0003994738217443228
1772651422926557700,6.9935576171875,0.0007989476434886456,-0.0006657897029072046,0.0003994738217443228
1772651422936561000,7.003560791015625,0.0013315794058144093,0.0009321055840700865,-0.0006657897029072046
1772651422946564000,7.013564208984375,0.00026631588116288185,-0.0006657897029072046,-0.0011984214652329683
1772651422956567300,7.0235673828125,0.001864211168140173,0.0025300008710473776,-0.00013315794058144093
1772651422966570500,7.033570556640625,0.00026631588116288185,0.0014647373463958502,-0.0006657897029072046
1772651422976574000,7.043573974609375,-0.00026631588116288185,0.0003994738217443228,-0.0011984214652329683
1772651422986577200,7.0535771484375,0.00026631588116288185,-0.0006657897029072046,-0.0011984214652329683
1772651422996580400,7.063580322265625,0.00026631588116288185,0.0003994738217443228,-0.00013315794058144093
1772651423006583600,7.07358349609375,0.00026631588116288185,0.0025300008710473776,-0.0011984214652329683
1772651423016586800,7.083586669921875,-0.00026631588116288185,0.0003994738217443228,-0.0006657897029072046
1772651423026590000,7.09358984375,-0.00026631588116288185,0.0009321055840700865,0.001997369108721614
1772651423036593400,7.103593505859375,0.00026631588116288185,0.001997369108721614,0.0009321055840700865
1772651423046596600,7.1135966796875,0.00026631588116288185,-0.003328948514536023,-0.0011984214652329683
1772651423056599800,7.123599853515625,-0.0007989476434886456,-0.00013315794058144093,0.0014647373463958502
1772651423066603000,7.13360302734375,0.00026631588116288185,-0.0006657897029072046,-0.0006657897029072046
1772651423076606200,7.143606201171875,0.00026631588116288185,-0.00013315794058144093,-0.00013315794058144093
1772651423086609400,7.153609375,0.0007989476434886456,0.0009321055840700865,-0.00013315794058144093
1772651423096612600,7.163612548828125,0.001864211168140173,-0.0006657897029072046,0.0003994738217443228
1772651423106616000,7.173615966796875,-0.00026631588116288185,0.0003994738217443228,0.0003994738217443228
1772651423116619300,7.183619384765625,0.0007989476434886456,0.0003994738217443228,-0.001731053227558732
1772651423126622500,7.19362255859375,0.001864211168140173,0.0009321055840700865,0.0003994738217443228
1772651423136625700,7.203625732421875,0.00026631588116288185,0.0003994738217443228,0.0003994738217443228
1772651423146628900,7.21362890625,0.00026631588116288185,-0.0006657897029072046,0.0009321055840700865
1772651423156632000,7.223632080078125,0.0013315794058144093,0.0014647373463958502,0.0009321055840700865
1772651423166635300,7.23363525390625,-0.00026631588116288185,-0.0006657897029072046,0.0009321055840700865
1772651423176638700,7.243638671875,-0.0007989476434886456,0.0003994738217443228,-0.0006657897029072046
1772651423186642000,7.253641845703125,0.0007989476434886456,-0.0011984214652329683,0.0009321055840700865
1772651423196645000,7.26364501953125,0.0007989476434886456,-0.0006657897029072046,-0.0006657897029072046
1772651423206648300,7.2736484375,-0.0007989476434886456,-0.0011984214652329683,0.0009321055840700865
1772651423216651500,7.283651611328125,-0.00026631588116288185,0.0014647373463958502,-0.00013315794058144093
1772651423226654700,7.29365478515625,-0.00026631588116288185,-0.0006657897029072046,-0.0011984214652329683
1772651423236658000,7.303657958984375,-0.0007989476434886456,-0.0006657897029072046,-0.00013315794058144093
1772651423246661400,7.313661376953125,0.0007989476434886456,-0.0006657897029072046,-0.00013315794058144093
1772651423256664600,7.32366455078125,0.0023968429304659367,-0.00013315794058144093,0.0014647373463958502
1772651423266667800,7.333667724609375,-0.00026631588116288185,-0.00013315794058144093,-0.00013315794058144093
1772651423276671000,7.3436708984375,-0.0007989476434886456,0.0014647373463958502,0.0003994738217443228
1772651423286674200,7.353674072265625,-0.001864211168140173,0.0009321055840700865,-0.00013315794058144093
1772651423296677400,7.363677490234375,-0.0013315794058144093,-0.00013315794058144093,-0.00013315794058144093
1772651423306680600,7.3736806640625,-0.00026631588116288185,0.0003994738217443228,0.0014647373463958502
1772651423316683800,7.383683837890625,-0.0007989476434886456,0.0003994738217443228,-0.0027963167522102594
1772651423326687200,7.393687255859375,-0.0013315794058144093,0.0009321055840700865,0.0009321055840700865
1772651423336690200,7.403690185546875,0.0013315794058144093,0.0014647373463958502,-0.0006657897029072046
1772651423346693600,7.413693603515625,0.00026631588116288185,-0.0006657897029072046,-0.0006657897029072046
1772651423356696800,7.42369677734375,-0.00026631588116288185,0.0009321055840700865,0.0014647373463958502
1772651423366700000,7.433699951171875,0.00026631588116288185,0.0003994738217443228,0.0009321055840700865
1772651423376703200,7.443703125,-0.00026631588116288185,0.0014647373463958502,0.0009321055840700865
1772651423386706400,7.45370654296875,-0.0013315794058144093,0.001997369108721614,-0.0006657897029072046
1772651423396709600,7.463709716796875,-0.0007989476434886456,-0.00013315794058144093,0.0014647373463958502
1772651423406712800,7.473712890625,0.00026631588116288185,-0.0006657897029072046,0.0009321055840700865
1772651423416716000,7.483716064453125,0.00026631588116288185,-0.0027963167522102594,0.0014647373463958502
1772651423426719200,7.49371923828125,0.0007989476434886456,-0.0006657897029072046,-0.00013315794058144093
1772651423436722400,7.503722412109375,0.0007989476434886456,0.0014647373463958502,-0.00013315794058144093
1772651423446725600,7.5137255859375,0.0007989476434886456,0.0003994738217443228,0.0009321055840700865
1772651423456729000,7.52372900390625,-0.0023968429304659367,0.0009321055840700865,-0.00013315794058144093
1772651423466732000,7.53373193359375,0.00026631588116288185,-0.00013315794058144093,-0.00013315794058144093
1772651423476735500,7.543735595703125,-0.00026631588116288185,-0.00013315794058144093,-0.00013315794058144093
1772651423486738700,7.55373876953125,-0.00026631588116288185,-0.0011984214652329683,0.0009321055840700865
1772651423496742000,7.563741943359375,0.00026631588116288185,0.0014647373463958502,0.0003994738217443228
1772651423506745000,7.5737451171875,-0.00026631588116288185,0.0025300008710473776,-0.001731053227558732
1772651423516748300,7.583748291015625,0.0013315794058144093,-0.0011984214652329683,0.0003994738217443228
1772651423526751500,7.59375146484375,-0.0013315794058144093,-0.00013315794058144093,-0.00013315794058144093
1772651423536754700,7.603754638671875,0.0013315794058144093,-0.0022636849898844957,-0.001731053227558732
1772651423546758000,7.6137578125,-0.0013315794058144093,-0.0011984214652329683,0.0003994738217443228
1772651423556761000,7.623760986328125,0.00026631588116288185,0.001997369108721614,-0.0011984214652329683
1772651423566764300,7.633764404296875,-0.0007989476434886456,0.0009321055840700865,0.001997369108721614
1772651423576767700,7.643767822265625,0.0007989476434886456,-0.0006657897029072046,-0.00013315794058144093
1772651423586771000,7.65377099609375,-0.00026631588116288185,0.0003994738217443228,0.0009321055840700865
1772651423596774100,7.663774169921875,0.00026631588116288185,-0.0006657897029072046,-0.0006657897029072046
1772651423606777300,7.67377734375,-0.0007989476434886456,0.0009321055840700865,-0.00013315794058144093
1772651423616780500,7.683780517578125,-0.0023968429304659367,-0.0006657897029072046,-0.00013315794058144093
1772651423626783700,7.69378369140625,0.00026631588116288185,0.0003994738217443228,0.0003994738217443228
1772651423636787000,7.703786865234375,0.00026631588116288185,0.0009321055840700865,0.001997369108721614
1772651423646790100,7.7137900390625,0.0007989476434886456,0.0003994738217443228,0.0014647373463958502
1772651423656793300,7.72379345703125,0.00026631588116288185,0.001997369108721614,0.0009321055840700865
1772651423666796500,7.733796630859375,0.0007989476434886456,0.004127896390855312,0.0014647373463958502
1772651423676799700,7.7437998046875,-0.0007989476434886456,0.004127896390855312,0.0009321055840700865
1772651423686803000,7.753802978515625,0.0013315794058144093,0.004660528153181076,0.0014647373463958502
1772651423696806400,7.763806396484375,-0.001864211168140173,-0.003328948514536023,-0.0006657897029072046
1772651423706809600,7.7738095703125,0.0007989476434886456,-0.0027963167522102594,-0.00013315794058144093
1772651423716812800,7.783812744140625,0.00026631588116288185,0.0014647373463958502,-0.0011984214652329683
1772651423726816000,7.79381591796875,0.0013315794058144093,-0.001731053227558732,-0.0011984214652329683
1772651423736819200,7.803819091796875,0.001864211168140173,-0.0022636849898844957,-0.00013315794058144093
1772651423746822400,7.813822509765625,-0.00026631588116288185,-0.0011984214652329683,-0.0011984214652329683
1772651423756825600,7.82382568359375,0.0007989476434886456,-0.0022636849898844957,-0.0006657897029072046
1772651423766829300,7.833829345703125,0.00026631588116288185,0.0009321055840700865,0.0014647373463958502
1772651423776833000,7.8438330078125,-0.00026631588116288185,0.0009321055840700865,-0.0006657897029072046
