time,seconds_elapsed,z,y,x
1772648239919738600,0.034738525390625,0.019174743443727493,0.10612688213586807,-0.013582110404968262
1772648239939749600,0.05474951171875,0.021837901324033737,0.1050616130232811,-0.01837579533457756
1772648239949755100,0.064755126953125,0.02024000696837902,0.09867003560066223,-0.014647373929619789
1772648239959760600,0.0747607421875,0.022370534017682076,0.08908266574144363,-0.010918950662016869
1772648239969766000,0.084765869140625,0.023435797542333603,0.08428897708654404,-0.009853687137365341
1772648239979771400,0.094771484375,0.027696851640939713,0.08056055754423141,-0.008788423612713814
1772648239989777000,0.10477685546875,0.03408843278884888,0.08056055754423141,-0.008788423612713814
1772648239999782400,0.114782470703125,0.04154527932405472,0.09121318906545639,-0.006125265266746283
1772648240009787600,0.12478759765625,0.05432844161987305,0.10186582803726196,-0.001864211168140173
1772648240019793200,0.134793212890625,0.06231791526079178,0.11944267153739929,0.006657897029072046
1772648240029798700,0.144798583984375,0.06924212723970413,0.13968268036842346,0.013049477711319923
1772648240039804200,0.15480419921875,0.07243791967630386,0.14820478856563568,0.021571585908532143
1772648240049809700,0.1648095703125,0.08096002787351608,0.15566162765026093,0.025832640007138252
1772648240059815400,0.1748154296875,0.08841687440872192,0.15779216587543488,0.03169158846139908
1772648240069821700,0.18482177734375,0.0942758247256279,0.15406373143196106,0.03488738089799881
1772648240079828200,0.194828125,0.09800424426794052,0.14660689234733582,0.03169158846139908
1772648240089834800,0.204834716796875,0.10279793292284012,0.11837740987539291,0.021038955077528954
1772648240099841300,0.21484130859375,0.10759161412715912,0.07576686888933182,0.003994738217443228
1772648240109847600,0.22484765625,0.11132004112005234,0.04540685936808586,-0.00719052879139781
1772648240119854000,0.23485400390625,0.11185266822576523,0.028895273804664612,-0.014647373929619789
1772648240129860600,0.244860595703125,0.10652635246515274,0.023568956181406975,-0.013049477711319923
1772648240139867100,0.2548671875,0.10439582169055939,0.0294279046356678,-0.017310531809926033
1772648240149873400,0.264873291015625,0.10546109080314636,0.02143842913210392,-0.01837579533457756
1772648240159880000,0.2748798828125,0.10173266381025314,0.007057370617985725,-0.0189084280282259
1772648240169886500,0.284886474609375,0.09747160971164703,-0.009986845776438713,-0.025832640007138252
1772648240179893000,0.29489306640625,0.08681897819042206,-0.028628956526517868,-0.032756853848695755
1772648240189899300,0.304899169921875,0.07297055423259735,-0.054195281118154526,-0.035420011729002
1772648240199905800,0.31490576171875,0.0564589649438858,-0.07283739000558853,-0.0402136966586113
1772648240209912300,0.324912353515625,0.04048001393675804,-0.08295739442110062,-0.040746331214904785
1772648240219918800,0.3349189453125,0.021837901324033737,-0.08934897929430008,-0.03488738089799881
1772648240229925000,0.344925048828125,0.005326317623257637,-0.08562055230140686,-0.03169158846139908
1772648240239931600,0.354931640625,-0.00426105409860611,-0.07230476289987564,-0.02263684943318367
1772648240249938200,0.364938232421875,-0.011717898771166801,-0.05632580816745758,-0.021571585908532143
1772648240259944700,0.37494482421875,-0.02024000696837902,-0.04354264587163925,-0.025300009176135063
1772648240269951000,0.384950927734375,-0.02450106106698513,-0.02010684832930565,-0.017310531809926033
1772648240279957500,0.39495751953125,-0.03142527490854263,-0.0003994738217443228,0.0023968429304659367
1772648240289964000,0.404964111328125,-0.04154527932405472,0.011851056478917599,0.01784316450357437
1772648240299970300,0.41497021484375,-0.055926334112882614,0.040080539882183075,0.029028430581092834
1772648240309976800,0.424976806640625,-0.07190528512001038,0.08002792298793793,0.045540016144514084
1772648240319983400,0.4349833984375,-0.0894821360707283,0.13116057217121124,0.06418212503194809
1772648240329990000,0.444989990234375,-0.10226529836654663,0.18282584846019745,0.08655266463756561
1772648240339996400,0.454996337890625,-0.11078740656375885,0.22437113523483276,0.1062600389122963
1772648240350002700,0.465002685546875,-0.12037477642297745,0.25313323736190796,0.10785793513059616
1772648240360009200,0.47500927734375,-0.1272989958524704,0.28242799639701843,0.10785793513059616
1772648240370015700,0.485015625,-0.13262531161308289,0.3213101029396057,0.12596741318702698
1772648240380022300,0.495022216796875,-0.14061477780342102,0.35806170105934143,0.1621863692998886
1772648240390028500,0.505028564453125,-0.1512674242258072,0.36711645126342773,0.1861547976732254
1772648240400035000,0.51503515625,-0.164583221077919,0.3596596121788025,0.18242637813091278
1772648240410041600,0.52504150390625,-0.17789900302886963,0.3655185401439667,0.1525990068912506
1772648240420048100,0.535048095703125,-0.18002954125404358,0.38575854897499084,0.12809793651103973
1772648240430054400,0.545054443359375,-0.1699095368385315,0.41345539689064026,0.12223898619413376
1772648240440061000,0.55506103515625,-0.1555284708738327,0.4262385666370392,0.10093371570110321
1772648240450067500,0.5650673828125,-0.13901689648628235,0.4342280328273773,0.04873580485582352
1772648240460074000,0.575073974609375,-0.11877688020467758,0.4496743679046631,-0.009321056306362152
1772648240470080300,0.585080322265625,-0.09161266684532166,0.4736427962779999,-0.05086633190512657
1772648240480086800,0.595086669921875,-0.066046342253685,0.49335017800331116,-0.08175897598266602
1772648240490093300,0.60509326171875,-0.04527369886636734,0.48908910155296326,-0.11211898922920227
1772648240500099800,0.615099853515625,-0.03249053657054901,0.4677838385105133,-0.14088110625743866
1772648240510106000,0.625106201171875,-0.029827378690242767,0.42304277420043945,-0.15579478442668915
1772648240520112600,0.635112548828125,-0.04207791015505791,0.38575854897499084,-0.1531316339969635
1772648240530119200,0.645119140625,-0.0564589649438858,0.36711645126342773,-0.13342425227165222
1772648240540125700,0.655125732421875,-0.07403581589460373,0.31119009852409363,-0.11318425089120865
1772648240550132000,0.665132080078125,-0.08735160529613495,0.23928481340408325,-0.11158635467290878
1772648240560138000,0.675137939453125,-0.09480845183134079,0.1711079478263855,-0.120108462870121
1772648240570143200,0.685143310546875,-0.0894821360707283,0.09920266270637512,-0.12650004029273987
1772648240580148200,0.695148193359375,-0.08202528953552246,0.018242638558149338,-0.1350221484899521
1772648240590153200,0.7051533203125,-0.09267792850732803,-0.03608580306172371,-0.14247900247573853
1772648240600158500,0.715158447265625,-0.05699159950017929,-0.09041424095630646,-0.16058847308158875
1772648240610163500,0.72516357421875,-0.0378168560564518,-0.14634057879447937,-0.18295900523662567
1772648240620168700,0.735168701171875,-0.018642112612724304,-0.16658058762550354,-0.19787269830703735
1772648240630173700,0.745173583984375,-0.003195790573954582,-0.15805847942829132,-0.20746007561683655
1772648240640178700,0.7551787109375,0.004793685860931873,-0.12823109328746796,-0.21118849515914917
1772648240650184000,0.765183837890625,0.047936856746673584,-0.11331740766763687,-0.22983060777187347
1772648240660189000,0.77518896484375,0.06924212723970413,-0.1074584573507309,-0.25859272480010986
1772648240670194200,0.785194091796875,0.06764423102140427,-0.0552605465054512,-0.2756369411945343
1772648240680199200,0.79519921875,0.10492845624685287,-0.037683695554733276,-0.30652958154678345
1772648240690204200,0.8052041015625,0.11025477200746536,-0.042477384209632874,-0.3320958912372589
1772648240700209400,0.81520947265625,0.12197267264127731,-0.02809632569551468,-0.33422642946243286
1772648240710214400,0.82521435546875,0.12889689207077026,-0.01957421749830246,-0.32144325971603394
1772648240720219600,0.8352197265625,0.14753900468349457,-0.012117372825741768,-0.29694220423698425
1772648240730224600,0.845224609375,0.17363795638084412,0.012916320003569126,-0.2564621865749359
1772648240740229600,0.855229736328125,0.2024000734090805,0.06617949903011322,-0.20586217939853668
1772648240750235000,0.86523486328125,0.24128219485282898,0.1141163557767868,-0.1771000623703003
1772648240760239900,0.875239990234375,0.2790990471839905,0.12583425641059875,-0.17496953904628754
1772648240770245000,0.8852451171875,0.314785361289978,0.15939006209373474,-0.18295900523662567
1772648240780250000,0.89525,0.348341166973114,0.18335849046707153,-0.18722006678581238
1772648240790255400,0.90525537109375,0.37390750646591187,0.20306585729122162,-0.18988321721553802
1772648240800260400,0.91526025390625,0.3957453966140747,0.20626164972782135,-0.1866874396800995
1772648240810265300,0.925265380859375,0.3946801424026489,0.1988048106431961,-0.1818937510251999
1772648240820270600,0.9352705078125,0.37923380732536316,0.17323848605155945,-0.17337164282798767
1772648240830275600,0.945275634765625,0.36591801047325134,0.15566162765026093,-0.16058847308158875
1772648240840280800,0.95528076171875,0.32650327682495117,0.14394372701644897,-0.1392832100391388
1772648240850285800,0.965285888671875,0.2790990471839905,0.11251845955848694,-0.10732530057430267
1772648240860290800,0.975290771484375,0.23808640241622925,0.09600687772035599,-0.0732368677854538
1772648240870296000,0.985296142578125,0.20453059673309326,0.03368895873427391,-0.05992107465863228
1772648240880301000,0.995301025390625,0.16192005574703217,-0.04301001504063606,-0.057790547609329224
1772648240890306300,1.005306396484375,0.11398319900035858,-0.07550055533647537,-0.06524739414453506
1772648240900311300,1.015311279296875,0.08681897819042206,-0.10213214159011841,-0.07483476400375366
1772648240910316500,1.025316650390625,0.07030738890171051,-0.15646058320999146,-0.08175897598266602
1772648240920321500,1.035321533203125,0.05273054540157318,-0.1644500494003296,-0.09081371873617172
1772648240930326500,1.045326416015625,0.06285054981708527,-0.16498269140720367,-0.10998845845460892
1772648240940331800,1.055331787109375,0.051132649183273315,-0.13622057437896729,-0.13289162516593933
1772648240950336800,1.065336669921875,0.043143171817064285,-0.12343741208314896,-0.1296958327293396
1772648240960341800,1.075341796875,0.022370534017682076,-0.07816371321678162,-0.10679266601800919
1772648240970347000,1.085346923828125,0.00852210819721222,-0.008388950489461422,-0.06791055202484131
1772648240980352000,1.09535205078125,-0.012250530533492565,0.0810931846499443,-0.03115895763039589
1772648240990357200,1.105357177734375,-0.06870950013399124,0.21212059259414673,-0.021038955077528954
1772648241000362200,1.1153623046875,-0.16192005574703217,0.4443480372428894,-0.025832640007138252
1772648241010367200,1.1253671875,-0.20612849295139313,0.6185186505317688,-0.05566002056002617
1772648241020372500,1.13537255859375,-0.23382534086704254,0.6941523551940918,-0.0774979218840599
1772648241030377500,1.14537744140625,-0.20612849295139313,0.7048049569129944,-0.057790547609329224
1772648241040382700,1.1553828125,-0.28975167870521545,0.6158554553985596,-0.02316948212683201
1772648241050387700,1.1653876953125,-0.2822948396205902,0.41878172755241394,0.03382211551070213
1772648241060392400,1.175392333984375,-0.2737727165222168,0.2744385302066803,0.1110537201166153
1772648241070396700,1.185396728515625,-0.3542001247406006,0.06564686447381973,0.1579253226518631
1772648241080401000,1.19540087890625,-0.3760380148887634,0.023036323487758636,0.18295900523662567
1772648241090404900,1.20540478515625,-0.4138548672199249,0.03315632790327072,0.19414427876472473
1772648241100409000,1.2154091796875,-0.4335622489452362,0.06884265691041946,0.22663481533527374
1772648241110413300,1.225413330078125,-0.4420843720436096,0.10879004001617432,0.2708432376384735
1772648241120417500,1.23541748046875,-0.44954121112823486,0.1428784728050232,0.32996538281440735
1772648241130421500,1.24542138671875,-0.45540016889572144,0.09387634694576263,0.41571909189224243
1772648241140425700,1.25542578125,-0.4793685972690582,-0.008388950489461422,0.5105275511741638
1772648241150430000,1.265429931640625,-0.5075980424880981,-0.1687111109495163,0.6058686375617981
1772648241160434200,1.27543408203125,-0.5374254584312439,-0.34021854400634766,0.7033402323722839
1772648241170438100,1.285438232421875,-0.5672528147697449,-0.475506991147995,0.7725823521614075
1772648241180442400,1.2954423828125,-0.5651223063468933,-0.5697828531265259,0.8018771409988403
1772648241190446600,1.305446533203125,-0.5496760010719299,-0.5585975646972656,0.7827023863792419
1772648241200450800,1.315450927734375,-0.5134570002555847,-0.47710490226745605,0.7150581479072571
1772648241210454800,1.325454833984375,-0.45540016889572144,-0.3492732644081116,0.6218475699424744
1772648241220459000,1.335458984375,-0.39894118905067444,-0.20812585949897766,0.54781174659729
1772648241230463200,1.345463134765625,-0.3531348705291748,-0.10053424537181854,0.5110601782798767
1772648241240467500,1.355467529296875,-0.28975167870521545,-0.07550055533647537,0.5121254324913025
1772648241250471400,1.365471435546875,-0.2311621904373169,-0.08295739442110062,0.5589970350265503
1772648241260475600,1.3754755859375,-0.17789900302886963,-0.11811109632253647,0.6133254766464233
1772648241270480000,1.38547998046875,-0.1363537311553955,-0.19747322797775269,0.6372938752174377
1772648241280484000,1.395484130859375,-0.10439582169055939,-0.24647535383701324,0.6229128241539001
1772648241290488000,1.405488037109375,-0.09640634804964066,-0.23529008030891418,0.5792370438575745
1772648241300492300,1.4154921875,-0.13475583493709564,-0.23262691497802734,0.5302349328994751
1772648241310496500,1.42549658203125,-0.17683374881744385,-0.19907112419605255,0.49454858899116516
1772648241320500700,1.435500732421875,-0.21465060114860535,-0.10639319568872452,0.49082016944885254
1772648241330505000,1.4455048828125,-0.22264008224010468,0.022503692656755447,0.5131906867027283
1772648241340509000,1.455509033203125,-0.20399796962738037,0.11092056334018707,0.5355612635612488
1772648241350513200,1.46551318359375,-0.18269269168376923,0.1567268967628479,0.5323654413223267
1772648241360517400,1.475517333984375,-0.15712636709213257,0.1753690093755722,0.5073317289352417
1772648241370521300,1.485521240234375,-0.13901689648628235,0.1759016364812851,0.46152541041374207
1772648241380525600,1.495525634765625,-0.13315793871879578,0.1897500604391098,0.3997401297092438
1772648241390529800,1.50552978515625,-0.13422320783138275,0.20040270686149597,0.3502053916454315
1772648241400534000,1.515533935546875,-0.13102741539478302,0.1950763761997223,0.3182474672794342
1772648241410538200,1.525538330078125,-0.1129179298877716,0.15406373143196106,0.2910832464694977
1772648241420542200,1.535542236328125,-0.06498107314109802,0.13009530305862427,0.24367903172969818
1772648241430546400,1.54554638671875,0.012250530533492565,0.11464899033308029,0.1728390008211136
1772648241440550700,1.555550537109375,0.1038631945848465,0.08375634253025055,0.0918789803981781
1772648241450554600,1.5655546875,0.12889689207077026,0.06458160281181335,0.003994738217443228
1772648241460558800,1.575558837890625,0.14274531602859497,0.052331071346998215,-0.06737791746854782
1772648241470563000,1.58556298828125,0.1464737355709076,0.0027963167522102594,-0.1249021515250206
1772648241480567300,1.5955673828125,0.1464737355709076,-0.04780369997024536,-0.16058847308158875
1772648241490571500,1.605571533203125,0.14434321224689484,-0.10319740325212479,-0.16058847308158875
1772648241500575500,1.615575439453125,0.13582110404968262,-0.17030900716781616,-0.12170635908842087
1772648241510579700,1.625579833984375,0.11504846066236496,-0.22197428345680237,-0.06897581368684769
1772648241520584000,1.635583984375,0.07882949709892273,-0.22144165635108948,-0.023702112957835197
1772648241530588000,1.645587890625,0.019174743443727493,-0.1633847951889038,0.020506322383880615
1772648241540592000,1.655592041015625,-0.08841687440872192,-0.10000161081552505,0.061518967151641846
1772648241550596400,1.665596435546875,-0.21784639358520508,-0.041944749653339386,0.10892319679260254
1772648241560600300,1.675600341796875,-0.3009369373321533,0.0022636849898844957,0.17124110460281372
1772648241570604000,1.68560400390625,-0.33609065413475037,0.016112111508846283,0.2378200888633728
1772648241580607700,1.695607666015625,-0.3446127474308014,0.024634219706058502,0.30173590779304504
1772648241590611500,1.705611572265625,-0.3163832724094391,0.0294279046356678,0.35446643829345703
1772648241600615200,1.715615234375,-0.2737727165222168,0.04540685936808586,0.39121803641319275
1772648241610619000,1.725618896484375,-0.20506322383880615,0.08056055754423141,0.4359591007232666
1772648241620622600,1.73562255859375,-0.10652635246515274,0.07416897267103195,0.543018102645874
1772648241630626300,1.745626220703125,-0.023968428373336792,0.06884265691041946,0.678306519985199
1772648241640630000,1.755630126953125,0.011717898771166801,0.12104056775569916,0.7693865895271301
1772648241650633700,1.7656337890625,0.042610540986061096,0.12104056775569916,0.7321023344993591
1772648241660637200,1.77563720703125,0.04474106803536415,0.04700475186109543,0.5760412216186523
1772648241670641000,1.785640869140625,-0.04420843720436096,-0.013182636350393295,0.38695698976516724
1772648241680644600,1.79564453125,-0.13848425447940826,-0.11438266932964325,0.36778223514556885
1772648241690648300,1.8056484375,-0.12357056885957718,-0.27523747086524963,0.43808963894844055
1772648241700652000,1.815652099609375,-0.009054739959537983,-0.34021854400634766,0.37736961245536804
1772648241710655700,1.82565576171875,0.0798947662115097,-0.3189132809638977,0.2053295373916626
1772648241720659500,1.835659423828125,0.11504846066236496,-0.18575532734394073,0.0045273699797689915
1772648241730663200,1.8456630859375,0.18162743747234344,-0.11438266932964325,-0.16857795417308807
1772648241740667000,1.8556669921875,0.20066902041435242,-0.08695213496685028,-0.2966758906841278
1772648241750670600,1.865670654296875,0.2395511418581009,-0.08215844631195068,-0.3573959171772003
1772648241760674300,1.87567431640625,0.30399957299232483,-0.07363633811473846,-0.3531348705291748
1772648241770677800,1.885677734375,0.37430697679519653,-0.0390152782201767,-0.3025348484516144
1772648241780681500,1.895681396484375,0.4238417148590088,0.026498429477214813,-0.21837902069091797
1772648241790685200,1.905685302734375,0.4659196436405182,0.10799109190702438,-0.14434321224689484
1772648241800689000,1.91568896484375,0.4936164915561676,0.20333217084407806,-0.10173266381025314
1772648241810692600,1.925692626953125,0.5154544115066528,0.28961852192878723,-0.06764423102140427
1772648241820696300,1.9356962890625,0.5399554371833801,0.36525222659111023,-0.03195790573954582
1772648241830700000,1.945699951171875,0.5388901829719543,0.4217112064361572,-0.04527369886636734
1772648241840703700,1.955703857421875,0.5431512594223022,0.43449434638023376,-0.1267663538455963
1772648241850707500,1.96570751953125,0.5388901829719543,0.39348170161247253,-0.22903165221214294
1772648241860711200,1.975711181640625,0.502138614654541,0.3114564120769501,-0.3163832724094391
1772648241870715000,1.98571484375,0.45793014764785767,0.20493006706237793,-0.37071171402931213
1772648241880718600,1.995718505859375,0.3940143585205078,0.09467529505491257,-0.3856253921985626
1772648241890722300,2.005722412109375,0.3231743276119232,-0.015579478815197945,-0.39308223128318787
1772648241900725800,2.015725830078125,0.24061639606952667,-0.1141163557767868,-0.42184436321258545
1772648241910729500,2.0257294921875,0.12982898950576782,-0.1892174333333969,-0.46072646975517273
1772648241920733200,2.035733154296875,0.02010684832930565,-0.22543638944625854,-0.4772380590438843
1772648241930737000,2.04573681640625,-0.05819002166390419,-0.23608903586864471,-0.4538022577762604
1772648241940740600,2.05574072265625,-0.11624687910079956,-0.2371542900800705,-0.4000064432621002
1772648241950744300,2.065744384765625,-0.1519332081079483,-0.22916480898857117,-0.3446127474308014
1772648241960748000,2.075748046875,-0.15992268919944763,-0.2233058661222458,-0.30839377641677856
1772648241970751700,2.085751708984375,-0.13542161881923676,-0.20093533396720886,-0.28016430139541626
1772648241980755500,2.09575537109375,-0.08801739662885666,-0.1567268967628479,-0.2508695721626282
1772648241990759200,2.10575927734375,-0.02623211406171322,-0.09174582362174988,-0.22264008224010468
1772648242000763000,2.115762939453125,0.04833633080124855,-0.039547909051179886,-0.2024000734090805
1772648242010766600,2.1257666015625,0.1442100554704666,0.006258423440158367,-0.2071937620639801
1772648242020770000,2.13577001953125,0.23156166076660156,0.021172111853957176,-0.24181482195854187
1772648242030773800,2.145773681640625,0.30240169167518616,0.013715268112719059,-0.29987168312072754
1772648242040777500,2.155777587890625,0.3561974763870239,-0.020373165607452393,-0.3595264256000519
1772648242050781200,2.16578125,0.3940143585205078,-0.06671212613582611,-0.42237699031829834
1772648242060785200,2.17578515625,0.42916804552078247,-0.09600687772035599,-0.4799012243747711
1772648242070789400,2.185789306640625,0.46432173252105713,-0.07789739221334457,-0.5257075428962708
1772648242080793600,2.195793701171875,0.4696480631828308,-0.10239845514297485,-0.5422191619873047
1772648242090797600,2.205797607421875,0.4797680675983429,-0.09440898150205612,-0.5384907126426697
1772648242100801800,2.2158017578125,0.4739091098308563,-0.09760477393865585,-0.5134570002555847
1772648242110806000,2.225805908203125,0.4616585671901703,-0.1050616130232811,-0.4713791012763977
1772648242120810200,2.235810302734375,0.44354909658432007,-0.10772477090358734,-0.4298338294029236
1772648242130814500,2.245814453125,0.41638487577438354,-0.10559424757957458,-0.38509276509284973
1772648242140818700,2.255818603515625,0.38229644298553467,-0.10772477090358734,-0.329166442155838
1772648242150823000,2.265822998046875,0.3487406373023987,-0.09600687772035599,-0.27643588185310364
1772648242160827100,2.2758271484375,0.31305432319641113,-0.09281108528375626,-0.21837902069091797
1772648242170831400,2.285831298828125,0.2773679792881012,-0.11038793623447418,-0.1656484752893448
1772648242180835600,2.295835693359375,0.24967113137245178,-0.1284974068403244,-0.12357056885957718
1772648242190839800,2.30583984375,0.2294311374425888,-0.13169319927692413,-0.10492845624685287
1772648242200843800,2.31584375,0.20439743995666504,-0.13116057217121124,-0.09960214048624039
1772648242210848000,2.325847900390625,0.17030900716781616,-0.13116057217121124,-0.1129179298877716
1772648242220852200,2.335852294921875,0.13888372480869293,-0.11464899033308029,-0.13528846204280853
1772648242230856400,2.3458564453125,0.12237215042114258,-0.06351634114980698,-0.17576847970485687
1772648242240860700,2.355860595703125,0.10426266491413116,-0.0022636849898844957,-0.2221074402332306
1772648242250865000,2.365864990234375,0.09201213717460632,0.06910897046327591,-0.26152220368385315
1772648242260869000,2.375869140625,0.06697844713926315,0.15166689455509186,-0.2785664200782776
1772648242270873300,2.385873291015625,0.03289001062512398,0.22144165635108948,-0.2743053436279297
1772648242280877600,2.395877685546875,-0.003328948514536023,0.2725743055343628,-0.25619587302207947
1772648242290881800,2.4058818359375,-0.05073317512869835,0.3343595862388611,-0.2450106143951416
1772648242300886000,2.415885986328125,-0.09121318906545639,0.3854922354221344,-0.2498043030500412
1772648242310890000,2.425889892578125,-0.1423458456993103,0.4717785716056824,-0.25246745347976685
1772648242320894200,2.435894287109375,-0.22863218188285828,0.5767070651054382,-0.23435798287391663
1772648242330898400,2.4458984375,-0.3415501117706299,0.6603302359580994,-0.20879164338111877
1772648242340902700,2.455902587890625,-0.4384891092777252,0.758867084980011,-0.1693768948316574
1772648242350907000,2.465906982421875,-0.5370259881019592,0.880307137966156,-0.11185266822576523
1772648242360911000,2.4759111328125,-0.6302365064620972,0.9671261310577393,-0.01597895286977291
1772648242370915300,2.485915283203125,-0.6760428547859192,0.9479513764381409,0.10013477504253387
1772648242380919600,2.49591943359375,-0.7058702707290649,0.8030755519866943,0.22743375599384308
1772648242390923800,2.505923828125,-0.7548723816871643,0.49148595333099365,0.32703590393066406
1772648242400928000,2.515927978515625,-0.8006786704063416,0.2763027250766754,0.38882118463516235
1772648242410932000,2.525931884765625,-0.8400934338569641,0.05952160060405731,0.4330296218395233
1772648242420936200,2.535936279296875,-0.869388222694397,-0.0762995034456253,0.4516717195510864
1772648242430940400,2.5459404296875,-0.8906934857368469,-0.18389111757278442,0.4655201733112335
1772648242440944600,2.555944580078125,-0.9008134603500366,-0.29680904746055603,0.48416227102279663
1772648242450948900,2.565948974609375,-0.8869650363922119,-0.4022701382637024,0.5113264918327332
1772648242460953000,2.575953125,-0.8310387134552002,-0.4587291181087494,0.5294359922409058
1772648242470957300,2.585957275390625,-0.7111965417861938,-0.44168490171432495,0.5289033651351929
1772648242480961500,2.59596142578125,-0.5641902089118958,-0.36125749349594116,0.49268439412117004
1772648242490965800,2.6059658203125,-0.43316277861595154,-0.2504700720310211,0.4181159436702728
1772648242500970000,2.615969970703125,-0.31545117497444153,-0.10239845514297485,0.33236223459243774
1772648242510974000,2.625973876953125,-0.231827974319458,0.07017423212528229,0.26738113164901733
1772648242520978200,2.635978271484375,-0.16791217029094696,0.20919112861156464,0.2599242925643921
1772648242530982400,2.645982421875,-0.13062794506549835,0.33968591690063477,0.306263267993927
1772648242540986600,2.655986572265625,-0.11571425199508667,0.46485435962677,0.37390750646591187
1772648242550990800,2.665990966796875,-0.1327584683895111,0.5575323104858398,0.4426169991493225
1772648242560995600,2.67599560546875,-0.1854890137910843,0.5346291065216064,0.48682543635368347
1772648242571000800,2.686000732421875,-0.2510027289390564,0.42117857933044434,0.4948149025440216
1772648242581005800,2.696005859375,-0.3122553825378418,0.28908589482307434,0.4846948981285095
1772648242591011300,2.70601123046875,-0.3735080361366272,0.2017342746257782,0.4772380590438843
1772648242601016600,2.7160166015625,-0.4155859351158142,0.1591237336397171,0.4580633044242859
1772648242611021800,2.726021728515625,-0.43795645236968994,0.14900372922420502,0.43516016006469727
1772648242621027000,2.736027099609375,-0.4523375332355499,0.20706059038639069,0.4234422445297241
1772648242631032300,2.7460322265625,-0.44275015592575073,0.3114564120769501,0.4202464520931244
1772648242641037600,2.75603759765625,-0.4209122359752655,0.3940143585205078,0.4069306552410126
1772648242651042800,2.766042724609375,-0.3964111804962158,0.43875542283058167,0.40266960859298706
1772648242661048000,2.776048095703125,-0.363920658826828,0.4504733085632324,0.404800146818161
1772648242671053300,2.78605322265625,-0.318114310503006,0.4360922574996948,0.4005391001701355
1772648242681058600,2.79605859375,-0.2605900764465332,0.41159120202064514,0.3856253921985626
1772648242691063800,2.806063720703125,-0.20146796107292175,0.3753722310066223,0.358993798494339
1772648242701069000,2.816069091796875,-0.1572595238685608,0.33595749735832214,0.3163832724094391
1772648242711074300,2.82607421875,-0.12157320231199265,0.2922816872596741,0.23648850619792938
1772648242721079600,2.83607958984375,-0.09014792740345001,0.24061639606952667,0.13475583493709564
1772648242731084800,2.846084716796875,-0.0624510757625103,0.20013637840747833,0.017576847225427628
1772648242741090000,2.856090087890625,-0.044874224811792374,0.17137427628040314,-0.10066740214824677
1772648242751095300,2.86609521484375,-0.039547909051179886,0.1447426825761795,-0.20026955008506775
1772648242761100500,2.8761005859375,-0.027297377586364746,0.10053424537181854,-0.2780337929725647
1772648242771105800,2.886105712890625,-0.017710005864501,0.054727911949157715,-0.3302316963672638
1772648242781111000,2.896111083984375,0.007856318727135658,0.02436790242791176,-0.35526537895202637
1772648242791116300,2.9061162109375,0.03874896094202995,-0.014514215290546417,-0.3579285442829132
1772648242801121500,2.91612158203125,0.07816371321678162,-0.027297377586364746,-0.33662328124046326
1772648242811126800,2.926126708984375,0.10905635356903076,-0.015046847052872181,-0.31265485286712646
1772648242821132000,2.936132080078125,0.13835109770298004,0.020639481022953987,-0.29933905601501465
1772648242831137300,2.94613720703125,0.15326479077339172,0.0600542314350605,-0.2881537973880768
1772648242841142500,2.956142578125,0.1585911065340042,0.1314268857240677,-0.27643588185310364
1772648242851147800,2.966147705078125,0.1442100554704666,0.20279954373836517,-0.26418536901474
1772648242861153000,2.976153076171875,0.12876373529434204,0.324239581823349,-0.23755376040935516
1772648242871158300,2.986158203125,0.10373003780841827,0.49574699997901917,-0.19228006899356842
1772648242881163500,2.99616357421875,0.07603318244218826,0.6640586256980896,-0.13901689648628235
1772648242891168800,3.006168701171875,0.06644581258296967,0.7737807631492615,-0.08628634363412857
1772648242901174000,3.016174072265625,0.06111949309706688,0.7673892378807068,-0.043143171817064285
1772648242911179300,3.02617919921875,0.05153212323784828,0.6368944048881531,0.0010652635246515274
1772648242921184500,3.0361845703125,0.029694220051169395,0.4137217104434967,0.059122126549482346
1772648242931189800,3.046189697265625,-0.0006657897029072046,0.17670059204101562,0.1603221595287323
1772648242941195000,3.056195068359375,-0.022503692656755447,-0.00013315794058144093,0.30413272976875305
1772648242951200300,3.0662001953125,-0.018242638558149338,-0.09973529726266861,0.4809664785861969
1772648242961205500,3.07620556640625,-0.0294279046356678,-0.10133319348096848,0.6013412475585938
1772648242971210800,3.086210693359375,-0.044874224811792374,-0.07097318023443222,0.64608234167099
1772648242981216000,3.096216064453125,-0.06458160281181335,-0.06617949903011322,0.6343644261360168
1772648242991221200,3.10622119140625,-0.04221106693148613,-0.1514005810022354,0.5635244250297546
1772648243001226500,3.1162265625,-0.014514215290546417,-0.2595248222351074,0.39734330773353577
1772648243011231700,3.126231689453125,-0.1045289859175682,-0.2659164071083069,0.1890842765569687
1772648243021237000,3.136237060546875,-0.1753690093755722,-0.18868480622768402,0.10439582169055939
1772648243031242200,3.1462421875,-0.11305109411478043,-0.13435636460781097,0.19014954566955566
1772648243041247500,3.15624755859375,0.013715268112719059,-0.17856480181217194,0.23648850619792938
1772648243051252700,3.166252685546875,0.14900372922420502,-0.15512900054454803,0.15339794754981995
1772648243061258000,3.176258056640625,0.17137427628040314,-0.012916320003569126,0.018642112612724304
1772648243071263200,3.18626318359375,0.20972375571727753,0.09733845293521881,-0.09693898260593414
1772648243081268500,3.1962685546875,0.2523342967033386,0.11012161523103714,-0.16192005574703217
1772648243091274000,3.20627392578125,0.31198906898498535,0.026498429477214813,-0.17204006016254425
1772648243101279200,3.216279296875,0.3908185660839081,-0.023036323487758636,-0.15393057465553284
1772648243111284500,3.226284423828125,0.4744417369365692,0.05952160060405731,-0.13848425447940826
1772648243121289700,3.236289794921875,0.5479449033737183,0.1820269078016281,-0.13741900026798248
1772648243131295200,3.246295166015625,0.5937512516975403,0.30719536542892456,-0.12570109963417053
1772648243141300500,3.256300537109375,0.6182523369789124,0.38762277364730835,-0.11824425309896469
1772648243151305700,3.2663056640625,0.6257091760635376,0.4004059135913849,-0.12942951917648315
1772648243161311200,3.276311279296875,0.6187849640846252,0.3796332776546478,-0.16884426772594452
1772648243171316500,3.28631640625,0.6182523369789124,0.34501221776008606,-0.22956429421901703
1772648243181321700,3.29632177734375,0.6214480996131897,0.26884588599205017,-0.3020022213459015
1772648243191327000,3.306326904296875,0.6219807267189026,0.13302478194236755,-0.3760380148887634
1772648243201332500,3.31633251953125,0.5948165059089661,-0.019840532913804054,-0.4394212067127228
1772648243211337700,3.326337646484375,0.5506080985069275,-0.18655426800251007,-0.491086483001709
1772648243221343000,3.336343017578125,0.47763752937316895,-0.30905959010124207,-0.5225117802619934
1772648243231348200,3.34634814453125,0.36525222659111023,-0.4006722569465637,-0.5251749157905579
1772648243241353700,3.356353759765625,0.21398481726646423,-0.4486091136932373,-0.5214464664459229
1772648243251359000,3.36635888671875,0.07017423212528229,-0.47470805048942566,-0.5257075428962708
1772648243261364200,3.3763642578125,-0.035286854952573776,-0.4832301735877991,-0.5241096615791321
1772648243271369500,3.386369384765625,-0.1050616130232811,-0.45073962211608887,-0.5022717714309692
1772648243281375000,3.396375,-0.14927005767822266,-0.40493330359458923,-0.44634541869163513
1772648243291380200,3.406380126953125,-0.14927005767822266,-0.35699644684791565,-0.36591801047325134
1772648243301385500,3.416385498046875,-0.12743215262889862,-0.29627642035484314,-0.28602325916290283
1772648243311390700,3.426390625,-0.08535423874855042,-0.25899219512939453,-0.21891164779663086
1772648243321396200,3.436396240234375,-0.02623211406171322,-0.20093533396720886,-0.18109479546546936
1772648243331401500,3.4464013671875,0.05313001945614815,-0.1609879434108734,-0.17523585259914398
1772648243341406700,3.45640673828125,0.11970898509025574,-0.11624687910079956,-0.19973690807819366
1772648243351412000,3.466411865234375,0.21718059480190277,-0.10239845514297485,-0.2508695721626282
1772648243361417500,3.47641748046875,0.271509051322937,-0.10186582803726196,-0.3057306408882141
1772648243371422700,3.486422607421875,0.3114564120769501,-0.13435636460781097,-0.3339601159095764
1772648243381428000,3.496427978515625,0.33009853959083557,-0.17696690559387207,-0.339819073677063
1772648243391433200,3.50643310546875,0.34075117111206055,-0.22543638944625854,-0.3312969505786896
1772648243401438700,3.516438720703125,0.34607750177383423,-0.24035008251667023,-0.32277485728263855
1772648243411444000,3.52644384765625,0.3290332853794098,-0.27284061908721924,-0.30945906043052673
1772648243421449200,3.53644921875,0.3205111622810364,-0.273905873298645,-0.3020022213459015
1772648243431454500,3.546454345703125,0.3189132809638977,-0.2563290297985077,-0.29454535245895386
1772648243441459700,3.556459716796875,0.3183806240558624,-0.22064270079135895,-0.2881537973880768
1772648243451465200,3.56646533203125,0.32743537425994873,-0.18602164089679718,-0.2721748352050781
1772648243461470500,3.576470458984375,0.34714275598526,-0.165781632065773,-0.260456919670105
1772648243471475700,3.586475830078125,0.36471959948539734,-0.1663142740726471,-0.24820640683174133
1772648243481481000,3.59648095703125,0.37856802344322205,-0.15939006209373474,-0.23489060997962952
1772648243491486500,3.606486572265625,0.39135119318962097,-0.16791217029094696,-0.2173137664794922
1772648243501491700,3.61649169921875,0.39294907450675964,-0.18708691000938416,-0.19547586143016815
1772648243511497000,3.6264970703125,0.3956122398376465,-0.20626164972782135,-0.1608547866344452
1772648243521502200,3.636502197265625,0.4004059135913849,-0.23289324343204498,-0.11078740656375885
1772648243531507700,3.6465078125,0.41638487577438354,-0.25419852137565613,-0.055926334112882614
1772648243541513000,3.656512939453125,0.389220654964447,-0.2920153737068176,-0.04154527932405472
1772648243551518200,3.666518310546875,0.3753722310066223,-0.3442132771015167,-0.05752423033118248
1772648243561523500,3.6765234375,0.35406696796417236,-0.3415501117706299,-0.07669897377490997
1772648243571528000,3.68652783203125,0.3205111622810364,-0.30053746700286865,-0.09960214048624039
1772648243581532700,3.69653271484375,0.290683776140213,-0.2371542900800705,-0.11238530278205872
1772648243591537400,3.706537353515625,0.26511746644973755,-0.17643427848815918,-0.12623372673988342
1772648243601542100,3.716542236328125,0.2720416784286499,-0.11731214821338654,-0.12942951917648315
1772648243611547000,3.726546875,0.20812585949897766,-0.03315632790327072,-0.10759161412715912
1772648243621551600,3.736551513671875,0.18149426579475403,-0.0720384493470192,-0.08841687440872192
1772648243631556400,3.746556396484375,0.09041424095630646,-0.009720529429614544,-0.08628634363412857
1772648243641560800,3.756560791015625,-0.011318424716591835,0.01904158480465412,-0.13848425447940826
1772648243651565600,3.766565673828125,-0.13116057217121124,0.1404816210269928,-0.15925689041614532
1772648243661570300,3.7765703125,-0.2691121995449066,0.3008037805557251,-0.17204006016254425
1772648243671575000,3.786574951171875,-0.4304996132850647,0.5261070132255554,-0.1976063847541809
1772648243681579800,3.796579833984375,-0.5876259803771973,0.7737807631492615,-0.21837902069091797
1772648243691584500,3.80658447265625,-0.7250449657440186,0.9639303088188171,-0.19920428097248077
1772648243701589200,3.81658935546875,-0.8459523916244507,1.0624672174453735,-0.09480845183134079
1772648243711594000,3.826593994140625,-0.8832366466522217,1.0741851329803467,0.06178528442978859
1772648243721598500,3.836598388671875,-0.9455545544624329,0.8158587217330933,0.21465060114860535
1772648243731603200,3.846603271484375,-0.9823061227798462,0.42650488018989563,0.3350253701210022
1772648243741608000,3.85660791015625,-0.9977524280548096,0.15273216366767883,0.4245075285434723
1772648243751612700,3.86661279296875,-1.0169272422790527,-0.1386174112558365,0.4894886016845703
1772648243761617400,3.876617431640625,-1.0323735475540161,-0.3836280405521393,0.5443496704101562
1772648243771622100,3.8866220703125,-1.033438801765442,-0.5769733786582947,0.5869601964950562
1772648243781627000,3.896626953125,-0.9966871738433838,-0.7255775928497314,0.6135917901992798
1772648243791631400,3.90663134765625,-0.9189229607582092,-0.840626060962677,0.6050696969032288
1772648243801636000,3.916635986328125,-0.7713839411735535,-0.9253145456314087,0.5672528147697449
1772648243811640800,3.926640869140625,-0.5918870568275452,-0.9343692660331726,0.4820317327976227
1772648243821645600,3.9366455078125,-0.4304996132850647,-0.8773776888847351,0.3542001247406006
1772648243831650300,3.946650390625,-0.28615641593933105,-0.7820366024971008,0.2215748131275177
1772648243841655000,3.956655029296875,-0.1567268967628479,-0.6297038793563843,0.12144003808498383
1772648243851659500,3.966659423828125,-0.06351634114980698,-0.4619249105453491,0.08575371652841568
1772648243861664500,3.97666455078125,-0.01344895176589489,-0.2834932506084442,0.1315600425004959
1772648243871669000,3.9866689453125,-0.024634219706058502,-0.13968268036842346,0.21944428980350494
1772648243881673700,3.996673828125,-0.05819002166390419,-0.05339633300900459,0.3025348484516144
1772648243891678500,4.006678466796875,-0.11784477531909943,0.04407527670264244,0.3403517007827759
1772648243901683200,4.01668310546875,-0.18282584846019745,0.05579317733645439,0.3664506673812866
1772648243911688000,4.02668798828125,-0.23502376675605774,0.09094687551259995,0.38828855752944946
1772648243921692700,4.036692626953125,-0.25845956802368164,0.16658058762550354,0.40852856636047363
1772648243931697200,4.046697265625,-0.2643185257911682,0.2155826985836029,0.4388885796070099
1772648243941702000,4.056701904296875,-0.28455850481987,0.28429219126701355,0.4916191101074219
1772648243951706600,4.06670654296875,-0.2984069585800171,0.422776460647583,0.5576654672622681
1772648243961711400,4.07671142578125,-0.2802974581718445,0.5644565224647522,0.6167875528335571
1772648243971716000,4.086716064453125,-0.25260061025619507,0.6885597109794617,0.6492781043052673
1772648243981720800,4.096720947265625,-0.23395849764347076,0.7769765853881836,0.6439517736434937
1772648243991725600,4.1067255859375,-0.23395849764347076,0.8121302723884583,0.608798086643219
1772648244001730000,4.11672998046875,-0.24035008251667023,0.7673892378807068,0.545414924621582
1772648244011734800,4.12673486328125,-0.24088270962238312,0.6422207355499268,0.46392226219177246
1772648244021739500,4.136739501953125,-0.24780692160129547,0.48243123292922974,0.36165696382522583
1772648244031744300,4.146744140625,-0.24088270962238312,0.31731536984443665,0.27057692408561707
1772648244041749000,4.1567490234375,-0.22011007368564606,0.15219952166080475,0.19014954566955566
1772648244051753700,4.166753662109375,-0.19134795665740967,0.026498429477214813,0.10918951034545898
1772648244061758500,4.176758544921875,-0.15033531188964844,-0.00013315794058144093,0.003195790573954582
1772648244071763200,4.18676318359375,-0.0864195004105568,0.006791055202484131,-0.11611372232437134
1772648244081768000,4.196767822265625,-0.07044055312871933,0.004660528153181076,-0.2215748131275177
1772648244091772700,4.206772705078125,-0.05552686005830765,-0.01717737503349781,-0.29827380180358887
1772648244101777400,4.21677734375,-0.02197105996310711,-0.03795001283288002,-0.3350253701210022
1772648244111782100,4.2267822265625,0.02436790242791176,-0.028362641111016273,-0.34248220920562744
1772648244121787000,4.236786865234375,0.07070686668157578,-0.011851056478917599,-0.3334274888038635
1772648244131791600,4.24679150390625,0.11917635798454285,0.030759483575820923,-0.30892643332481384
1772648244141796400,4.25679638671875,0.1633847951889038,0.07709844410419464,-0.2870885133743286
1772648244151801300,4.26680126953125,0.19587533175945282,0.13835109770298004,-0.26098957657814026
1772648244161806000,4.27680615234375,0.21877849102020264,0.20279954373836517,-0.2210421860218048
1772648244171810800,4.286810791015625,0.20333217084407806,0.2533995509147644,-0.1693768948316574
1772648244181815600,4.296815673828125,0.15592794120311737,0.30293431878089905,-0.11238530278205872
1772648244191820300,4.3068203125,0.07177212834358215,0.38336169719696045,-0.06764423102140427
1772648244201825000,4.316824951171875,-0.03049316816031933,0.5010733008384705,-0.04101264476776123
1772648244211829800,4.326829833984375,-0.08002792298793793,0.574043869972229,-0.035153694450855255
1772648244221834500,4.33683447265625,-0.08322371542453766,0.5388901829719543,-0.018109479919075966
1772648244231839200,4.346839111328125,-0.0858868733048439,0.42916804552078247,0.039414748549461365
1772648244241844000,4.356843994140625,-0.060320548713207245,0.29760798811912537,0.1272989958524704
1772648244251849000,4.366848876953125,-0.028895273804664612,0.20972375571727753,0.24820640683174133
1772648244261853700,4.376853759765625,-0.007590002380311489,0.13195951282978058,0.4053327739238739
1772648244271858400,4.3868583984375,0.0057257916778326035,0.06271739304065704,0.5198485851287842
1772648244281863200,4.39686328125,-0.01344895176589489,0.01904158480465412,0.5571328401565552
1772648244291868000,4.406867919921875,-0.024101587012410164,0.0030626326333731413,0.5603286027908325
1772648244301872600,4.41687255859375,-0.028895273804664612,-0.02996053732931614,0.5597959756851196
1772648244311877400,4.42687744140625,-0.052331071346998215,-0.16844479739665985,0.4905538558959961
1772648244321882000,4.436882080078125,-0.09760477393865585,-0.3506048619747162,0.28975167870521545
1772648244331886800,4.446886962890625,-0.2174469232559204,-0.4155859351158142,0.04154527932405472
1772648244341891600,4.4568916015625,-0.3175816833972931,-0.43263015151023865,-0.07616633921861649
1772648244351896600,4.466896484375,-0.23928481340408325,-0.41398802399635315,-0.05006738752126694
1772648244361901300,4.4769013671875,-0.047537386417388916,-0.4022701382637024,0.007456844672560692
1772648244371906000,4.486906005859375,0.058456335216760635,-0.29521116614341736,0.011185267008841038
1772648244381910800,4.496910888671875,0.12823109328746796,-0.11038793623447418,-0.005326317623257637
1772648244391915500,4.50691552734375,0.1873532235622406,0.04087948799133301,-0.006391581147909164
1772648244401920300,4.516920166015625,0.2491385042667389,0.12290477752685547,0.00426105409860611
1772648244411925000,4.526925048828125,0.28802061080932617,0.14687320590019226,-0.005326317623257637
1772648244421929700,4.5369296875,0.3327617049217224,0.16072162985801697,-0.051132649183273315
1772648244431934500,4.5469345703125,0.3945469856262207,0.19907112419605255,-0.09267792850732803
1772648244441939200,4.556939208984375,0.4504733085632324,0.28322693705558777,-0.0846884474158287
1772648244451944000,4.56694384765625,0.4691154360771179,0.3801659345626831,-0.03675159066915512
1772648244461949000,4.576948974609375,0.4717785716056824,0.43449434638023376,0.005326317623257637
1772648244471953700,4.58695361328125,0.4978775382041931,0.4339617192745209,0.003195790573954582
1772648244481958400,4.59695849609375,0.5117259621620178,0.40573224425315857,-0.043143171817064285
1772648244491963100,4.606963134765625,0.5191828012466431,0.3668501377105713,-0.12144003808498383
1772648244501968000,4.6169677734375,0.5271722674369812,0.271509051322937,-0.21837902069091797
1772648244511972600,4.62697265625,0.5213133096694946,0.12077425420284271,-0.32863378524780273
1772648244521977300,4.636977294921875,0.489888072013855,-0.04913527891039848,-0.42717066407203674
1772648244531982000,4.646982177734375,0.42117857933044434,-0.1945437490940094,-0.4942822754383087
1772648244541986800,4.65698681640625,0.3061301112174988,-0.3032006323337555,-0.5475454330444336
1772648244551991600,4.666991455078125,0.15646058320999146,-0.42304277420043945,-0.5784381031990051
1772648244561996500,4.67699658203125,-0.003861580276861787,-0.49761122465133667,-0.600275993347168
1772648244572001300,4.687001220703125,-0.14021530747413635,-0.5290365219116211,-0.6056023240089417
1772648244582006000,4.697006103515625,-0.22809955477714539,-0.5487438440322876,-0.5736443996429443
1772648244592010800,4.7070107421875,-0.27710166573524475,-0.538091242313385,-0.4905538558959961
1772648244602015500,4.717015380859375,-0.2877542972564697,-0.4917522668838501,-0.38189697265625
1772648244612020200,4.727020263671875,-0.2600574493408203,-0.41824910044670105,-0.26631587743759155
1772648244622025000,4.73702490234375,-0.2126532346010208,-0.31065747141838074,-0.16831164062023163
1772648244632029700,4.74702978515625,-0.13648688793182373,-0.18761953711509705,-0.11078740656375885
1772648244642034400,4.757034423828125,-0.043808963149785995,-0.09121318906545639,-0.10013477504253387
1772648244652039200,4.7670390625,0.05739107355475426,-0.028362641111016273,-0.1315600425004959
1772648244662044000,4.7770439453125,0.13835109770298004,0.004660528153181076,-0.19441059231758118
1772648244672048600,4.787048583984375,0.21824586391448975,0.0366184338927269,-0.2785664200782776
1772648244682053400,4.797053466796875,0.2874879837036133,0.062184758484363556,-0.3621895909309387
1772648244692058000,4.80705810546875,0.32210904359817505,0.05313001945614815,-0.42184436321258545
1772648244702062800,4.817062744140625,0.3391532599925995,-0.011318424716591835,-0.4426169991493225
1772648244712067600,4.827067626953125,0.3476753830909729,-0.043276332318782806,-0.44048646092414856
1772648244722072600,4.837072509765625,0.3535343408584595,-0.1050616130232811,-0.4245075285434723
1772648244732077300,4.847077392578125,0.35459959506988525,-0.1327584683895111,-0.4111917316913605
1772648244742082000,4.85708203125,0.3535343408584595,-0.1572595238685608,-0.4000064432621002
1772648244752086800,4.867086669921875,0.35459959506988525,-0.15992268919944763,-0.3824295997619629
1772648244762091500,4.877091552734375,0.3604585528373718,-0.15353110432624817,-0.35526537895202637
1772648244772096300,4.88709619140625,0.3721764385700226,-0.13116057217121124,-0.3249053657054901
1772648244782101000,4.89710107421875,0.389220654964447,-0.10346371680498123,-0.2934800982475281
1772648244792105700,4.907105712890625,0.4041343629360199,-0.08269108086824417,-0.2636527121067047
1772648244802110500,4.9171103515625,0.4147869944572449,-0.08428897708654404,-0.23222744464874268
1772648244812115200,4.927115234375,0.4174501299858093,-0.0762995034456253,-0.19973690807819366
1772648244822120000,4.937119873046875,0.42650488018989563,-0.08855003118515015,-0.16777899861335754
1772648244832124700,4.947124755859375,0.43449434638023376,-0.10879004001617432,-0.1315600425004959
1772648244842129400,4.95712939453125,0.4195806682109833,-0.13435636460781097,-0.10173266381025314
1772648244852134100,4.967134033203125,0.4339617192745209,-0.17164058983325958,-0.08415582031011581
1772648244862139000,4.977138916015625,0.43875542283058167,-0.16365110874176025,-0.07829686999320984
1772648244872143600,4.9871435546875,0.40306907892227173,-0.22170796990394592,-0.10173266381025314
1772648244882148600,4.997148681640625,0.39721015095710754,-0.25260061025619507,-0.12570109963417053
1772648244892153300,5.0071533203125,0.4004059135913849,-0.22170796990394592,-0.164583221077919
1772648244902158000,5.017157958984375,0.34554484486579895,-0.2233058661222458,-0.2210421860218048
1772648244912162800,5.027162841796875,0.3151848316192627,-0.21957744657993317,-0.23489060997962952
1772648244922167600,5.03716748046875,0.28003114461898804,-0.18389111757278442,-0.21784639358520508
1772648244932172300,5.04717236328125,0.28908589482307434,-0.15939006209373474,-0.16138742864131927
1772648244942177000,5.057177001953125,0.19907112419605255,-0.11571425199508667,-0.1267663538455963
1772648244952181800,5.067181640625,0.15379741787910461,-0.16524900496006012,-0.11930951476097107
1772648244962186500,5.0771865234375,0.10479529947042465,-0.1098553016781807,-0.1363537311553955
1772648244972191200,5.087191162109375,0.09201213717460632,-0.03315632790327072,-0.1603221595287323
1772648244982196000,5.097196044921875,0.0003994738217443228,0.14314478635787964,-0.1837579607963562
1772648244992200700,5.10720068359375,-0.10772477090358734,0.2587258815765381,-0.21145480871200562
1772648245002205400,5.117205322265625,-0.2131858617067337,0.4600606858730316,-0.24927166104316711
1772648245012210200,5.127210205078125,-0.3463438153266907,0.6443513035774231,-0.2822948396205902
1772648245022215000,5.13721484375,-0.4688491225242615,0.796151340007782,-0.2689790427684784
1772648245032219600,5.1472197265625,-0.5226449370384216,0.8797745108604431,-0.17576847970485687
1772648245042224600,5.157224609375,-0.5604617595672607,0.980974555015564,-0.012250530533492565
1772648245052229400,5.1672294921875,-0.6819018125534058,0.5516733527183533,0.15393057465553284
1772648245062234000,5.177234130859375,-0.7165228724479675,0.27417218685150146,0.3153179883956909
1772648245072239000,5.187239013671875,-0.760198712348938,0.05366265028715134,0.44581279158592224
1772648245082244400,5.197244384765625,-0.8166576623916626,-0.11997530609369278,0.5193159580230713
1772648245092249300,5.207249267578125,-0.8613986968994141,-0.23502376675605774,0.5608612298965454
1772648245102254300,5.21725439453125,-0.911466121673584,-0.34261539578437805,0.5853623151779175
1772648245112259300,5.22725927734375,-0.9290429353713989,-0.4645880460739136,0.6178528666496277
1772648245122264300,5.237264404296875,-0.9343692660331726,-0.6419544219970703,0.6695181131362915
1772648245132269600,5.24726953125,-0.8720513582229614,-0.8273102641105652,0.6908233761787415
1772648245142274600,5.257274658203125,-0.7282407879829407,-0.9594029784202576,0.6780402064323425
1772648245152279600,5.267279541015625,-0.5833649635314941,-1.0408955812454224,0.5965476036071777
1772648245162284500,5.277284423828125,-0.4550006687641144,-1.003611445426941,0.4394212067127228
1772648245172289500,5.28728955078125,-0.3447459042072296,-0.8518113493919373,0.25193482637405396
1772648245182294800,5.297294677734375,-0.2515353560447693,-0.635030210018158,0.09267792850732803
1772648245192299800,5.3072998046875,-0.17217321693897247,-0.4251733124256134,0.03195790573954582
1772648245202304800,5.3173046875,-0.10772477090358734,-0.20785954594612122,0.07510107755661011
1772648245212309800,5.327309814453125,-0.09494160860776901,-0.027297377586364746,0.1890842765569687
1772648245222314800,5.337314697265625,-0.11038793623447418,0.05685843899846077,0.316915899515152
1772648245232320000,5.347320068359375,-0.14980268478393555,0.05632580816745758,0.4138548672199249
1772648245242325000,5.357324951171875,-0.19347849488258362,-0.012916320003569126,0.4671180546283722
1772648245252330000,5.367330078125,-0.22650165855884552,-0.004394211806356907,0.4857601523399353
1772648245262335000,5.3773349609375,-0.2552637755870819,0.016378426924347878,0.49854332208633423
1772648245272340000,5.387340087890625,-0.29893958568573,0.04087948799133301,0.5001412034034729
1772648245282345200,5.39734521484375,-0.3298322260379791,0.08881634473800659,0.4900212287902832
1772648245292350200,5.40735009765625,-0.3538006544113159,0.19853848218917847,0.5038696527481079
1772648245302355200,5.417355224609375,-0.3585943281650543,0.3902859091758728,0.5305012464523315
1772648245312360200,5.427360107421875,-0.32344064116477966,0.6251765489578247,0.5432844161987305
1772648245322365200,5.437365234375,-0.28668904304504395,0.8036081790924072,0.524642288684845
1772648245332370200,5.4473701171875,-0.25260061025619507,0.9096018671989441,0.4820317327976227
1772648245342375400,5.45737548828125,-0.2233058661222458,0.9383640289306641,0.42663803696632385
1772648245352380400,5.46738037109375,-0.19347849488258362,0.871785044670105,0.3621895909309387
1772648245362385400,5.477385498046875,-0.16365110874176025,0.716789186000824,0.30040431022644043
1772648245372390400,5.487390380859375,-0.13382373750209808,0.5000080466270447,0.24607586860656738
1772648245382395400,5.4973955078125,-0.11198582500219345,0.313586950302124,0.19654111564159393
1772648245392400600,5.507400634765625,-0.08695213496685028,0.1681784838438034,0.13102741539478302
1772648245402405600,5.517405517578125,-0.05499422922730446,0.07709844410419464,0.04580633342266083
1772648245412410600,5.52741064453125,-0.020373165607452393,0.04301001504063606,-0.05699159950017929
1772648245422415600,5.53741552734375,0.00519315991550684,0.04407527670264244,-0.1597895324230194
1772648245432420600,5.547420654296875,-0.007057370617985725,0.029161589220166206,-0.24288007616996765
1772648245442425900,5.55742578125,0.004127896390855312,0.01531316339969635,-0.3078611493110657
1772648245452430800,5.567430908203125,0.021172111853957176,0.0014647373463958502,-0.34621065855026245
1772648245462435800,5.577435791015625,0.04940159618854523,0.026498429477214813,-0.3717769682407379
1772648245472440800,5.58744091796875,0.07123950123786926,0.04034685716032982,-0.3781685531139374
1772648245482445800,5.59744580078125,0.09946898370981216,0.0882837176322937,-0.36964643001556396
1772648245492451000,5.607451171875,0.1261005699634552,0.15166689455509186,-0.339819073677063
1772648245502456000,5.6174560546875,0.1596563756465912,0.20386481285095215,-0.29827380180358887
1772648245512461000,5.6274609375,0.18575532734394073,0.23795324563980103,-0.24714113771915436
1772648245522466000,5.637466064453125,0.18895111978054047,0.2901511490345001,-0.19600848853588104
1772648245532471000,5.647470947265625,0.16604794561862946,0.34075117111206055,-0.16298532485961914
1772648245542476000,5.65747607421875,0.12769846618175507,0.4004059135913849,-0.13582110404968262
1772648245552481300,5.667481201171875,0.054727911949157715,0.46805015206336975,-0.11451582610607147
1772648245562485800,5.67748583984375,-0.0011984214652329683,0.5410206913948059,-0.11185266822576523
1772648245572490000,5.687489990234375,0.0025300008710473776,0.519715428352356,-0.09640634804964066
1772648245582494000,5.697493896484375,0.004660528153181076,0.4190480411052704,-0.060187388211488724
1772648245592498200,5.707498291015625,0.009986845776438713,0.2725743055343628,0.012783162295818329
1772648245602502400,5.71750244140625,0.012650004588067532,0.14207951724529266,0.12570109963417053
1772648245612506600,5.727506591796875,0.020639481022953987,0.07230476289987564,0.29401272535324097
1772648245622510800,5.7375107421875,0.016378426924347878,0.01531316339969635,0.4852275252342224
1772648245632514800,5.747514892578125,-0.028895273804664612,-0.04647212103009224,0.6556696891784668
1772648245642519000,5.75751904296875,-0.07949528843164444,-0.048602648079395294,0.7909581661224365
1772648245652523300,5.767523193359375,-0.09600687772035599,-0.016112111508846283,0.9123982191085815
1772648245662527500,5.777527587890625,-0.10772477090358734,-0.027830010280013084,0.9342361092567444
1772648245672531500,5.787531494140625,-0.11997530609369278,-0.18282584846019745,0.7062697410583496
1772648245682535700,5.79753564453125,-0.16684690117835999,-0.288286954164505,0.27696850895881653
1772648245692540000,5.807539794921875,-0.3442132771015167,-0.17270584404468536,-0.02876211516559124
1772648245702544100,5.817544189453125,-0.37031224370002747,-0.13701951503753662,0.013848425820469856
1772648245712548400,5.82754833984375,-0.2041311264038086,-0.28615641593933105,0.1789642721414566
1772648245722552600,5.837552490234375,-0.036352116614580154,-0.44594594836235046,0.20453059673309326
1772648245732556500,5.847556640625,0.04673843830823898,-0.30000483989715576,0.05699159950017929
1772648245742560800,5.857560791015625,0.06325002014636993,-0.056592125445604324,-0.1177116185426712
1772648245752565000,5.86756494140625,0.10799109190702438,0.10799109190702438,-0.22743375599384308
1772648245762569200,5.8775693359375,0.1878858506679535,0.1495363712310791,-0.2455432415008545
1772648245772573200,5.8875732421875,0.28908589482307434,0.07550055533647537,-0.21465060114860535
1772648245782577400,5.897577392578125,0.40253645181655884,0.003595264395698905,-0.19867165386676788
1772648245792581600,5.90758154296875,0.5410206913948059,0.07230476289987564,-0.1794968992471695
1772648245802585900,5.9175859375,0.6390249729156494,0.26991114020347595,-0.10333056002855301
1772648245812590000,5.927590087890625,0.6672544479370117,0.46858277916908264,0.006391581147909164
1772648245822594000,5.937593994140625,0.6336986422538757,0.5873596668243408,0.070840023458004
1772648245832598300,5.947598388671875,0.6139912605285645,0.5639238953590393,0.05006738752126694
1772648245842602500,5.9576025390625,0.5846965312957764,0.46272385120391846,-0.023435797542333603
1772648245852606700,5.967606689453125,0.544216513633728,0.334892213344574,-0.13369056582450867
1772648245862611000,5.97761083984375,0.4829638600349426,0.182559534907341,-0.25672850012779236
1772648245872615000,5.987614990234375,0.41691750288009644,-0.011318424716591835,-0.37550538778305054
1772648245882619100,5.997619140625,0.36898064613342285,-0.20200060307979584,-0.4751075208187103
1772648245892623400,6.007623291015625,0.31731536984443665,-0.35167011618614197,-0.5257075428962708
1772648245902627600,6.017627685546875,0.23315955698490143,-0.4858933389186859,-0.5305012464523315
1772648245912631600,6.027631591796875,0.09680582582950592,-0.5647228360176086,-0.5278380513191223
1772648245922635800,6.0376357421875,-0.060853179544210434,-0.6115944385528564,-0.5273054242134094
1772648245932640000,6.047639892578125,-0.19241322576999664,-0.6318344473838806,-0.5044022798538208
1772648245942644200,6.057644287109375,-0.27337324619293213,-0.6382260322570801,-0.44581279158592224
1772648245952648400,6.0676484375,-0.3117227256298065,-0.609996497631073,-0.3547327518463135
1772648245962652400,6.07765234375,-0.3127880096435547,-0.5450154542922974,-0.25246745347976685
1772648245972656600,6.08765673828125,-0.2893522083759308,-0.46085962653160095,-0.15446321666240692
1772648245982660900,6.097660888671875,-0.2323606014251709,-0.3585943281650543,-0.07829686999320984
1772648245992665000,6.1076650390625,-0.15939006209373474,-0.254731148481369,-0.04101264476776123
1772648246002669300,6.11766943359375,-0.06351634114980698,-0.15086795389652252,-0.04474106803536415
1772648246012673300,6.12767333984375,0.03342264145612717,-0.05819002166390419,-0.08575371652841568
1772648246022677500,6.137677490234375,0.13302478194236755,0.0014647373463958502,-0.16777899861335754
1772648246032681700,6.147681640625,0.225702702999115,0.07177212834358215,-0.27164220809936523
1772648246042686000,6.15768603515625,0.3002711534500122,0.11544793099164963,-0.36432012915611267
1772648246052690200,6.167690185546875,0.3386206328868866,0.09840371459722519,-0.4095938205718994
1772648246062694700,6.177694580078125,0.3583280146121979,0.0552605465054512,-0.40852856636047363
1772648246072699100,6.18769921875,0.3561974763870239,-0.020373165607452393,-0.3813643455505371
1772648246082704000,6.197703857421875,0.3482080101966858,-0.07896266132593155,-0.3456780016422272
1772648246092708600,6.20770849609375,0.33063116669654846,-0.11837740987539291,-0.31372010707855225
1772648246102713300,6.21771337890625,0.31678274273872375,-0.14128057658672333,-0.2870885133743286
1772648246112718000,6.227718017578125,0.31252169609069824,-0.1327584683895111,-0.26098957657814026
1772648246132727600,6.2477275390625,0.36312171816825867,-0.06831002235412598,-0.21518322825431824
1772648246142732000,6.25773193359375,0.3993406593799591,-0.032091062515974045,-0.20559586584568024
1772648246152736800,6.26773681640625,0.43449434638023376,-0.02569948323071003,-0.20559586584568024
1772648246162741500,6.277741455078125,0.45899543166160583,-0.040080539882183075,-0.1928126960992813
1772648246172746200,6.287746337890625,0.4760396480560303,-0.06351634114980698,-0.16405057907104492
1772648246182751000,6.2977509765625,0.49201858043670654,-0.12157320231199265,-0.12357056885957718
1772648246192755700,6.307755615234375,0.506932258605957,-0.16365110874176025,-0.08362318575382233
1772648246202760400,6.317760498046875,0.5191828012466431,-0.22596903145313263,-0.055393703281879425
1772648246212765200,6.32776513671875,0.5250417590141296,-0.29627642035484314,-0.04846949130296707
1772648246222769700,6.337769775390625,0.5143890976905823,-0.36605116724967957,-0.06072001904249191
1772648246232774400,6.3477744140625,0.49255120754241943,-0.4155859351158142,-0.08362318575382233
1772648246242779100,6.357779052734375,0.4659196436405182,-0.4438154101371765,-0.10173266381025314
1772648246252783900,6.367783935546875,0.433429092168808,-0.4640554189682007,-0.13102741539478302
1772648246262788600,6.37778857421875,0.39135119318962097,-0.46618595719337463,-0.17044216394424438
1772648246272793300,6.38779345703125,0.3609911799430847,-0.45979437232017517,-0.19174742698669434
1772648246282798000,6.397798095703125,0.2869553565979004,-0.3836280405521393,-0.18056216835975647
1772648246292802600,6.407802490234375,0.21398481726646423,-0.4033353924751282,-0.14807163178920746
1772648246302807300,6.417807373046875,0.1681784838438034,-0.39481329917907715,-0.12836425006389618
1772648246312812000,6.42781201171875,0.0978710874915123,-0.2850911617279053,-0.14061477780342102
1772648246322816800,6.437816650390625,0.018508953973650932,-0.1892174333333969,-0.17576847970485687
1772648246332821500,6.447821533203125,-0.05819002166390419,-0.05446159839630127,-0.19228006899356842
1772648246342826200,6.457826171875,-0.14128057658672333,0.09520792961120605,-0.19654111564159393
1772648246352831000,6.4678310546875,-0.23981745541095734,0.27097639441490173,-0.1784316450357437
1772648246362835500,6.47783544921875,-0.3447459042072296,0.43875542283058167,-0.1512674242258072
1772648246372840200,6.487840087890625,-0.4496743679046631,0.5554017424583435,-0.12144003808498383
1772648246382845000,6.497844970703125,-0.5519396662712097,0.6107954978942871,-0.058589495718479156
1772648246392849700,6.507849609375,-0.6233122944831848,0.5511407256126404,0.03728422522544861
1772648246402854400,6.5178544921875,-0.6669881343841553,0.3956122398376465,0.15339794754981995
1772648246412859100,6.527859130859375,-0.7005439400672913,0.18522270023822784,0.26684850454330444
1772648246422864000,6.53786376953125,-0.7570028901100159,-0.0762995034456253,0.3595264256000519
1772648246432868600,6.54786865234375,-0.7857649922370911,-0.24940481781959534,0.42290961742401123
1772648246442873000,6.557873046875,-0.8299734592437744,-0.38096487522125244,0.4623243808746338
1772648246452877800,6.5678779296875,-0.8613986968994141,-0.5098617672920227,0.49641281366348267
1772648246462882600,6.577882568359375,-0.8582029342651367,-0.6392912864685059,0.5406212210655212
1772648246472887300,6.58788720703125,-0.8374302983283997,-0.7708513140678406,0.5709812641143799
1772648246482892000,6.59789208984375,-0.7724491953849792,-0.8720513582229614,0.5736443996429443
1772648246492896800,6.607896728515625,-0.6563354730606079,-0.8912261128425598,0.5336970090866089
1772648246502901500,6.617901611328125,-0.5231775641441345,-0.8667250275611877,0.44581279158592224
1772648246512906000,6.627906005859375,-0.3932153880596161,-0.7644597291946411,0.3153179883956909
1772648246522910700,6.63791064453125,-0.28562378883361816,-0.6179860234260559,0.18162743747234344
1772648246532915500,6.64791552734375,-0.19347849488258362,-0.46991437673568726,0.1038631945848465
1772648246542920200,6.657920166015625,-0.1615205854177475,-0.3207774758338928,0.13102741539478302
1772648246552925000,6.667925048828125,-0.15033531188964844,-0.12583425641059875,0.24447797238826752
1772648246562930000,6.677929931640625,-0.17004269361495972,0.0552605465054512,0.3914843499660492
1772648246572935000,6.687934814453125,-0.19560901820659637,0.17190690338611603,0.511859118938446
1772648246582940000,6.69793994140625,-0.23928481340408325,0.2502037584781647,0.5779054760932922
1772648246592945000,6.70794482421875,-0.29521116614341736,0.2826943099498749,0.600275993347168
1772648246602950000,6.717949951171875,-0.3213101029396057,0.33968591690063477,0.5800359845161438
1772648246612955000,6.727954833984375,-0.35167011618614197,0.3796332776546478,0.541686475276947
1772648246622960000,6.737960205078125,-0.3735080361366272,0.3759048581123352,0.5075980424880981
1772648246632965000,6.747965087890625,-0.3788343369960785,0.389220654964447,0.49747806787490845
1772648246642970000,6.75797021484375,-0.3735080361366272,0.456332266330719,0.5075980424880981
1772648246652975000,6.76797509765625,-0.3500722348690033,0.5346291065216064,0.5219791531562805
1772648246662980000,6.77797998046875,-0.3117227256298065,0.6054691672325134,0.5171854496002197
1772648246672985300,6.7879853515625,-0.26378586888313293,0.6390249729156494,0.48789069056510925
1772648246682990300,6.797990234375,-0.2270342856645584,0.6091975569725037,0.4303664565086365
1772648246692995300,6.807995361328125,-0.20785954594612122,0.5394228100776672,0.35047170519828796
1772648246703000300,6.818000244140625,-0.17963005602359772,0.42543962597846985,0.27590325474739075
1772648246713005300,6.82800537109375,-0.14873741567134857,0.2539321780204773,0.2210421860218048
1772648246723010300,6.83801025390625,-0.1327584683895111,0.0744352862238884,0.1608547866344452
1772648246733015600,6.848015625,-0.1098553016781807,-0.07470160722732544,0.10173266381025314
1772648246743020500,6.8580205078125,-0.0768321305513382,-0.1759016364812851,0.03834948688745499
1772648246753025500,6.868025634765625,-0.03049316816031933,-0.20732691884040833,-0.027164220809936523
1772648246763030500,6.878030517578125,0.04087948799133301,-0.20732691884040833,-0.09534108638763428
1772648246773035500,6.888035400390625,0.07763107866048813,-0.19241322576999664,-0.1693768948316574
1772648246783040500,6.89804052734375,0.07763107866048813,-0.15512900054454803,-0.24128219485282898
1772648246793045800,6.908045654296875,0.09201213717460632,-0.09174582362174988,-0.2977411448955536
1772648246803050800,6.91805078125,0.1026647686958313,-0.051798440515995026,-0.33822116255760193
1772648246813055700,6.9280556640625,0.1165132001042366,-0.0006657897029072046,-0.3664506673812866
1772648246823060700,6.938060791015625,0.1261005699634552,0.03715106472373009,-0.3861580193042755
1772648246833065700,6.948065673828125,0.12823109328746796,0.04727106913924217,-0.3872233033180237
1772648246843070700,6.95807080078125,0.14261215925216675,0.06165212765336037,-0.3760380148887634
1772648246853076000,6.968075927734375,0.17616795003414154,0.0739026591181755,-0.35579800605773926
1772648246863081000,6.9780810546875,0.22197428345680237,0.08562055230140686,-0.3243727385997772
1772648246873086000,6.9880859375,0.24700798094272614,0.10053424537181854,-0.28921905159950256
1772648246883091000,6.998091064453125,0.2640521824359894,0.11065424978733063,-0.27696850895881653
1772648246893096000,7.008095947265625,0.282161682844162,0.17616795003414154,-0.2913495600223541
1772648246903101000,7.018100830078125,0.2757700979709625,0.28429219126701355,-0.3025348484516144
1772648246913106200,7.028106201171875,0.22889849543571472,0.4089280366897583,-0.3078611493110657
1772648246923111200,7.038111083984375,0.1639174222946167,0.506932258605957,-0.295610636472702
1772648246933116200,7.0481162109375,0.13835109770298004,0.4994754493236542,-0.2396842986345291
1772648246943121200,7.05812109375,0.08082687109708786,0.4094606637954712,-0.1560611128807068
1772648246953126100,7.068126220703125,0.020639481022953987,0.29334694147109985,-0.070840023458004
1772648246963131100,7.078131103515625,-0.04221106693148613,0.17989638447761536,-0.002130527049303055
1772648246973136400,7.088136474609375,-0.11305109411478043,0.09414266049861908,0.029827378690242767
1772648246983141400,7.098141357421875,-0.19560901820659637,0.028628956526517868,0.05805686116218567
1772648246993146400,7.108146484375,-0.26698166131973267,-0.004394211806356907,0.11132004112005234
1772648247003151400,7.1181513671875,-0.29680904746055603,0.013715268112719059,0.18961690366268158
1772648247013156400,7.12815625,-0.30000483989715576,0.09147950261831284,0.25300008058547974
1772648247023161300,7.138161376953125,-0.30000483989715576,0.20972375571727753,0.3067958950996399
1772648247033166600,7.14816650390625,-0.26698166131973267,0.2992058992385864,0.3669832944869995
1772648247043171600,7.158171630859375,-0.19773954153060913,0.33009853959083557,0.40213698148727417
1772648247053176600,7.168176513671875,-0.0864195004105568,0.2731069326400757,0.36538538336753845
1772648247063181600,7.178181640625,0.0414121188223362,0.1633847951889038,0.24288007616996765
1772648247073186600,7.1881865234375,0.12823109328746796,0.07816371321678162,0.0612526535987854
1772648247083191600,7.198191650390625,0.111719511449337,0.07337002456188202,-0.030892642214894295
1772648247093196800,7.20819677734375,0.062184758484363556,0.09946898370981216,0.026098955422639847
1772648247103201800,7.218201904296875,0.04407527670264244,0.008388950489461422,0.16192005574703217
1772648247113206800,7.228206787109375,0.08082687109708786,-0.17963005602359772,0.21571587026119232
1772648247123211800,7.238211669921875,0.07230476289987564,-0.318114310503006,0.1512674242258072
1772648247133216800,7.248216796875,-0.019307902082800865,-0.2659164071083069,0.05273054540157318
1772648247143221800,7.2582216796875,-0.08695213496685028,-0.20200060307979584,-0.03834948688745499
1772648247153227000,7.26822705078125,-0.11837740987539291,-0.16844479739665985,-0.07723160833120346
1772648247163232000,7.27823193359375,-0.13435636460781097,-0.13169319927692413,-0.06870950013399124
1772648247173237000,7.288237060546875,-0.10346371680498123,-0.09867003560066223,-0.0378168560564518
1772648247183242000,7.298241943359375,-0.04700475186109543,-0.043276332318782806,0.001597895286977291
1772648247193247000,7.3082470703125,0.05099949240684509,0.045673172920942307,0.04953475296497345
1772648247203252000,7.318251953125,0.1644500494003296,0.17403742671012878,0.09480845183134079
1772648247213257200,7.32825732421875,0.26937851309776306,0.3109237849712372,0.10120003670454025
1772648247223262200,7.33826220703125,0.35566484928131104,0.41585224866867065,0.066046342253685
1772648247233267200,7.34826708984375,0.4179827868938446,0.4419512152671814,-0.007989476434886456
1772648247243272200,7.358272216796875,0.46698489785194397,0.3817638158798218,-0.09054739773273468
1772648247253277200,7.368277099609375,0.49148595333099365,0.28855326771736145,-0.1832253336906433
1772648247263282200,7.3782822265625,0.510660707950592,0.1681784838438034,-0.26684850454330444
1772648247273287400,7.388287353515625,0.5170522928237915,0.04780369997024536,-0.32863378524780273
1772648247283292400,7.39829248046875,0.4936164915561676,-0.0768321305513382,-0.3669832944869995
1772648247293297400,7.40829736328125,0.4238417148590088,-0.2174469232559204,-0.3968106508255005
1772648247303302400,7.418302490234375,0.2997385263442993,-0.3644532859325409,-0.4111917316913605
1772648247313307400,7.428307373046875,0.12077425420284271,-0.481632262468338,-0.4202464520931244
1772648247323312400,7.4383125,-0.07470160722732544,-0.5524722933769226,-0.42610540986061096
1772648247333317400,7.4483173828125,-0.20519638061523438,-0.5870933532714844,-0.4005391001701355
1772648247343322600,7.458322509765625,-0.27763429284095764,-0.5673859715461731,-0.33715590834617615
1772648247353327600,7.46832763671875,-0.2941458821296692,-0.496013343334198,-0.26152220368385315
1772648247363332600,7.47833251953125,-0.2701774537563324,-0.41345539689064026,-0.20559586584568024
1772648247373337600,7.488337646484375,-0.21957744657993317,-0.32929959893226624,-0.16884426772594452
1772648247383342600,7.498342529296875,-0.14607426524162292,-0.24035008251667023,-0.1693768948316574
1772648247393347600,7.50834765625,-0.05712475627660751,-0.14873741567134857,-0.20133480429649353
1772648247403352800,7.518352783203125,0.046205803751945496,-0.08748476952314377,-0.2503369152545929
1772648247413357800,7.52835791015625,0.1639174222946167,-0.0294279046356678,-0.30360010266304016
1772648247423362800,7.53836279296875,0.24274691939353943,-0.024634219706058502,-0.35526537895202637
1772648247433367800,7.548367919921875,0.3199785351753235,-0.040613170713186264,-0.3909517228603363
1772648247443372800,7.558372802734375,0.3860248625278473,-0.04167843610048294,-0.40373486280441284
1772648247453377800,7.568377685546875,0.389220654964447,-0.1476721614599228,-0.37444013357162476
1772648247463382800,7.5783828125,0.38868802785873413,-0.21638165414333344,-0.32224223017692566
1772648247473388000,7.588387939453125,0.3716438114643097,-0.22809955477714539,-0.2732400894165039
1772648247483393000,7.59839306640625,0.3519364297389984,-0.20732691884040833,-0.24394534528255463
1772648247493398000,7.60839794921875,0.34128379821777344,-0.16045531630516052,-0.24128219485282898
1772648247503403000,7.618403076171875,0.33009853959083557,-0.10825740545988083,-0.2535327076911926
1772648247513408000,7.628407958984375,0.32583749294281006,-0.09973529726266861,-0.2599242925643921
1772648247523413000,7.6384130859375,0.34554484486579895,-0.028895273804664612,-0.2636527121067047
1772648247533418000,7.64841796875,0.35939326882362366,0.018508953973650932,-0.26738113164901733
1772648247543423200,7.65842333984375,0.36312171816825867,-0.007590002380311489,-0.25140219926834106
1772648247553428200,7.66842822265625,0.36312171816825867,-0.016112111508846283,-0.2396842986345291
1772648247563433000,7.678432861328125,0.3476753830909729,-0.1045289859175682,-0.21358533203601837
1772648247573437700,7.688437744140625,0.3583280146121979,-0.13382373750209808,-0.17630110681056976
1772648247583442200,7.698442138671875,0.34501221776008606,-0.17217321693897247,-0.13102741539478302
1772648247593447000,7.708447021484375,0.3386206328868866,-0.2035984843969345,-0.0990695059299469
1772648247603451600,7.71845166015625,0.3482080101966858,-0.1940111219882965,-0.08309055864810944
1772648247613456400,7.728456298828125,0.3434143364429474,-0.18282584846019745,-0.06870950013399124
1772648247623460900,7.7384609375,0.31731536984443665,-0.21584902703762054,-0.03994738310575485
1772648247633465600,7.748465576171875,0.3141195774078369,-0.19667427241802216,-0.019707374274730682
1772648247643470300,7.75847021484375,0.2773679792881012,-0.1950763761997223,-0.012783162295818329
1772648247653474800,7.768474853515625,0.24700798094272614,-0.19188059866428375,-0.01438105758279562
1772648247663479600,7.7784794921875,0.20226691663265228,-0.2137184888124466,-0.012250530533492565
1772648247673484300,7.788484375,0.18362480401992798,-0.23023007810115814,-0.006924212910234928
1772648247683488800,7.79848876953125,0.16231952607631683,-0.2504700720310211,0.003195790573954582
1772648247693493500,7.808493408203125,0.16125427186489105,-0.26804694533348083,0.02450106106698513
1772648247703498200,7.818498291015625,0.14793847501277924,-0.2834932506084442,0.02503369376063347
1772648247713502700,7.828502685546875,0.1404816210269928,-0.2659164071083069,0.023435797542333603
1772648247723507500,7.838507568359375,0.1255679428577423,-0.27230799198150635,0.04846949130296707
1772648247733512200,7.84851220703125,0.11385004222393036,-0.2504700720310211,0.09267792850732803
1772648247743516700,7.8585166015625,0.09094687551259995,-0.2371542900800705,0.1086568832397461
1772648247753521400,7.868521484375,0.05099949240684509,-0.1711079478263855,0.09960214048624039
1772648247763526100,7.878526123046875,-0.010785792954266071,-0.08855003118515015,0.10013477504253387
1772648247773530600,7.888530517578125,-0.07896266132593155,-0.0027963167522102594,0.09800424426794052
1772648247783535400,7.898535400390625,-0.15939006209373474,0.08668582141399384,0.09161266684532166
1772648247793540000,7.9085400390625,-0.24993745982646942,0.14793847501277924,0.0756337121129036
1772648247803544800,7.918544921875,-0.33888694643974304,0.16285216808319092,0.06285054981708527
1772648247813549300,7.92854931640625,-0.42783647775650024,0.08295739442110062,0.06870950013399124
1772648247823554000,7.938553955078125,-0.5071985721588135,-0.06351634114980698,0.09321055561304092
1772648247833558800,7.948558837890625,-0.559396505355835,-0.25899219512939453,0.1278316229581833
1772648247843563300,7.958563232421875,-0.5918870568275452,-0.47044700384140015,0.15286532044410706
1772648247853568000,7.968568115234375,-0.6110618114471436,-0.6462154984474182,0.16671374440193176
1772648247863572700,7.97857275390625,-0.609996497631073,-0.780971348285675,0.18002954125404358
1772648247873577500,7.988577392578125,-0.5972133874893188,-0.8629966378211975,0.1981390118598938
1772648247883582000,7.99858203125,-0.559396505355835,-0.8747144937515259,0.21465060114860535
1772648247893586700,8.008586669921876,-0.4970785975456238,-0.8049397468566895,0.23276008665561676
1772648247903591400,8.01859130859375,-0.4214448928833008,-0.6882933974266052,0.2636527121067047
1772648247913596000,8.028595947265625,-0.33249539136886597,-0.5588638782501221,0.29933905601501465
1772648247923600600,8.0386005859375,-0.2520679831504822,-0.4294343590736389,0.33236223459243774
1772648247933605400,8.04860546875,-0.19560901820659637,-0.3175816833972931,0.3430148661136627
1772648247953614600,8.068614501953125,-0.15353110432624817,-0.1759016364812851,0.295610636472702
1772648247963619300,8.078619384765625,-0.14927005767822266,-0.12476898729801178,0.24873903393745422
1772648247973623800,8.088623779296874,-0.15885742008686066,-0.07736476510763168,0.20080217719078064
1772648247983628500,8.098628662109375,-0.18442374467849731,-0.036352116614580154,0.15233267843723297
1772648247993633300,8.10863330078125,-0.22117534279823303,-0.007057370617985725,0.11025477200746536
1772648248003637800,8.1186376953125,-0.265383780002594,0.0009321055840700865,0.08202528953552246
1772648248013642500,8.128642578125,-0.29680904746055603,0.00519315991550684,0.07297055423259735
1772648248023647200,8.138647216796874,-0.31119009852409363,0.02756369300186634,0.08735160529613495
1772648248033651700,8.148651611328125,-0.3213101029396057,0.06111949309706688,0.1081242486834526
1772648248043656400,8.158656494140626,-0.3207774758338928,0.0978710874915123,0.14274531602859497
1772648248053661200,8.1686611328125,-0.3159838020801544,0.1165132001042366,0.18588848412036896
