time,seconds_elapsed,z,y,x
1772643969844279000,0.063279052734375,0.10229191521704196,0.007152447304222732,-0.000683041227562353
1772643969854320000,0.073320068359375,0.10378653768897056,0.012718757928162813,0.008076284150872378
1772643969864360200,0.083360107421875,0.0939116248846054,0.002195719945989549,0.015733648769930005
1772643969874401000,0.093401123046875,0.10244505995213984,0.001452061971835792,0.002434296208526939
1772643969884442000,0.103442138671875,0.08733575362563133,-0.007310176882892846,-0.012023204278899356
1772643969894483200,0.113483154296875,0.10035948584973811,-0.0017631737476214765,-0.0007141578850336373
1772643969904524000,0.12352392578125,0.08883622131645678,-0.013108213903475552,0.00529290051003918
1772643969914563800,0.133563720703125,0.09003332214653491,-0.00471826069355011,0.003898176482319832
1772643969924605000,0.14360498046875,0.09945932213962078,-0.002882770628388971,-0.005677251051971689
1772643969934646000,0.15364599609375,0.09706570500135421,0.00024677783530205485,0.013016918890830129
1772643969944686800,0.163686767578125,0.08973521598279476,0.004388298086822033,-0.004201936068711802
1772643969954728000,0.17372802734375,0.09931319166719912,-0.00688482761029154,-0.01556845740401186
1772643969964768000,0.18376806640625,0.10379998169243335,0.010975640587881207,0.0068171509352512654
1772643969974809300,0.193809326171875,0.09257774593234061,0.002413015958480537,-0.002305482197087258
1772643969984850400,0.203850341796875,0.08389642682671547,0.004280654727574437,-0.002427144948532805
1772643969994891500,0.2138916015625,0.10155132598280905,0.011947846620902418,0.004394572563981637
1772643970004932400,0.223932373046875,0.10409458072483539,0.005665387084241956,0.0036785332491155714
1772643970014972400,0.233972412109375,0.08554068690240382,0.016734423310309648,0.012288750746753067
1772643970025013500,0.244013427734375,0.09137655344903468,0.007160210485570132,0.0059808279752731315
1772643970035054300,0.254054443359375,0.09751169520318508,-0.0016517857950180768,-0.0018256993235088884
1772643970045095400,0.264095458984375,0.08314648524224758,0.0010428966490551828,-0.002003804969927296
1772643970055136500,0.274136474609375,0.07581248909235,0.0014209179149009287,0.0056026788452640175
1772643970065176300,0.28417626953125,0.09122399323582649,0.0051974590452387925,-0.0018643782329279927
1772643970075217200,0.294217041015625,0.0916723215252161,-0.0037941863848827777,0.0032897165946196762
1772643970085258200,0.30425830078125,0.09122223967015743,-0.007959069245681166,-0.0005963401916436851
1772643970095299300,0.31429931640625,0.10498773017227649,-0.0010273337537422776,-0.006589781053317711
1772643970105340200,0.324340087890625,0.11052724412083625,-0.005577306941989809,-0.010856069328822195
1772643970115380200,0.334380126953125,0.08972761719822883,0.009854801598098128,-0.006251936534233391
1772643970125421300,0.34442138671875,0.081045713570714,0.01457105299765244,0.001687943953787908
1772643970135462400,0.35446240234375,0.0922691183745861,0.0015450922838412225,0.012296641792263835
1772643970145503200,0.364503173828125,0.08957505698502063,0.004213452976569533,0.0011880316076334566
1772643970155544300,0.37454443359375,0.0867313579916954,0.006459460071381181,-0.01345131911956705
1772643970165584400,0.38458447265625,0.09271861570775508,0.0009086027448996901,-0.006503454476734623
1772643970175625200,0.394625244140625,0.08763152170181274,0.0011785057274624705,-0.00767913805944845
1772643970185666300,0.404666259765625,0.0862830297023058,0.0030161512170918284,0.01763645931710489
1772643970195707400,0.414707275390625,0.09600947394669056,0.00538781225187704,-0.005651130230026319
1772643970205748200,0.424748291015625,0.09496201072037219,-0.005063201673701405,0.0019373978033661841
1772643970215788300,0.434788330078125,0.08987491671442985,0.015120010383613406,0.0001215348872821778
1772643970225829400,0.444829345703125,0.08763210622370242,0.008321874676086008,-0.0035835301757324487
1772643970235870500,0.454870361328125,0.099153032669425,0.007336736096255481,0.0008566990277264267
1772643970245911300,0.464911376953125,0.0967570774435997,0.00038651509955525394,0.010516690439777448
1772643970255952400,0.474952392578125,0.09092121089696883,0.0032113267293199894,0.0015893515506759286
1772643970265992400,0.484992431640625,0.10109832151830196,0.01094623183030635,0.0025942268774379043
1772643970276033300,0.495033203125,0.09211948077082634,-0.0030822569895535704,-0.004478515387233347
1772643970286074400,0.505074462890625,0.0993015012294054,-0.00483174927169457,-0.00245958591341041
1772643970296115500,0.515115478515625,0.08673077346980572,0.01467162729529664,-0.005172991324262693
1772643970306156300,0.52515625,0.09436229126155377,0.005249097900930792,-0.0023402155837509778
1772643970316197400,0.535197265625,0.08807575833797454,-0.0036736835440620776,-0.002476454849820584
1772643970326237400,0.545237548828125,0.1003425347149372,-0.004295760965161025,0.005254897454055026
1772643970336278500,0.555278564453125,0.09600245968401432,0.003681738986354321,-0.005120548750972375
1772643970346319400,0.5653193359375,0.09615034372210501,0.00420114148426801,-0.0033784086582250893
1772643970356360400,0.5753603515625,0.10243336951434612,0.008150134838372469,-0.0071007901822216805
1772643970366401500,0.585401611328125,0.09210837485492229,0.0016092800938524304,0.0027927085916046052
1772643970376441300,0.59544140625,0.09824117852151393,-0.00024303324194625017,-0.0009640775254927575
1772643970386482200,0.605482177734375,0.08462298753559588,0.011614230752363801,0.011906263368343934
1772643970396523300,0.615523193359375,0.08776479269266128,-0.0037595534629188475,0.000791744032735005
1772643970406564400,0.625564453125,0.0949485667169094,-0.004991506410669535,-0.003725431997608393
1772643970416605200,0.635605224609375,0.09630115036964416,0.00579246579632163,0.0052916310015600175
1772643970426645200,0.645645263671875,0.09151157800555229,0.0006155563487671316,0.0018118625944014638
1772643970436686300,0.655686279296875,0.08417875089943408,0.010796539427619427,-0.005959931317716836
1772643970446727200,0.66572705078125,0.088069328597188,0.010527641092054545,-0.005283703423431143
1772643970456768300,0.675768310546875,0.08911562277972698,0.0074530559523031115,0.000019380553904920816
1772643970466809300,0.685809326171875,0.07939093210101127,0.004883223730605095,0.0029598270531278103
1772643970476849400,0.695849365234375,0.09540098665952682,0.011644881618954241,-0.002562516564922407
1772643970486890200,0.70589013671875,0.09480126720070839,0.005685973214544356,0.0012094853876158595
1772643970496931300,0.715931396484375,0.09091068950295447,-0.003283606514241546,-0.0044874658786691725
1772643970506972400,0.725972412109375,0.0964478653639555,0.007214863282255828,-0.008910287289600818
1772643970517013200,0.73601318359375,0.09270809431374072,0.013298201783932744,-0.004428173439484089
1772643970527053300,0.74605322265625,0.08582768715023995,0.0027360373677685853,-0.0008349986525718122
1772643970537094400,0.756094482421875,0.08582768715023995,0.0028903146140277385,0.008450743486452847
1772643970547135200,0.76613525390625,0.09315992973446846,0.010657112690620123,0.005173164854198694
1772643970557176300,0.77617626953125,0.09316109877824783,-0.004171586596220731,0.0013828143942169844
1772643970567217400,0.786217529296875,0.08717676367163657,0.004789316635765135,-0.011515702281333506
1772643970577257500,0.796257568359375,0.09825053087174891,-0.004339764503668993,0.0038289289047010243
1772643970587298300,0.80629833984375,0.09615794250667095,0.0003841404793784022,0.010399676463985815
1772643970597339400,0.81633935546875,0.08852700923681259,0.01622243693387136,0.009346660279715433
1772643970607380500,0.82638037109375,0.09750818807184695,0.0005618534001521765,0.007591651572240516
1772643970617421300,0.83642138671875,0.10379472099542617,-0.007250573916453867,-0.009538009000197053
1772643970627461400,0.84646142578125,0.09631342532932757,-0.008021777484659105,-0.001285875092074275
1772643970637502500,0.85650244140625,0.09406944579482078,0.01457328148735687,-0.0022592410357203333
1772643970647543600,0.86654345703125,0.09122808488905429,0.010655998445767909,-0.004422602215223014
1772643970657584400,0.87658447265625,0.09586568156182765,-0.011570957866217941,-0.0079230024184566
1772643970667625500,0.88662548828125,0.08509177409112453,0.003870393426250666,-0.004696331989532336
1772643970677665300,0.896665283203125,0.08823591733574866,-0.0017176906380802393,0.010842305664950981
1772643970687706000,0.9067060546875,0.1008048915296793,-0.007962667708564549,0.008871809309581294
1772643970697747200,0.916747314453125,0.09736498020887374,0.005453881491720676,0.007660013233870267
1772643970707788300,0.926788330078125,0.07985738056898116,0.00979897975763306,0.001362538791168481
1772643970717829000,0.9368291015625,0.09242693928480147,0.0042540041826665395,-0.004154882056592032
1772643970727869200,0.946869140625,0.09766483993828295,-0.00849829068891704,-0.0026411804248578845
1772643970737910300,0.95691015625,0.09527180732190609,0.0011933197041042148,-0.008502884665643796
1772643970747951400,0.966951416015625,0.09527414540946483,0.0042462044687010345,0.00006093640699982643
1772643970757992200,0.9769921875,0.09647183076143265,0.004702569934073835,0.000022047435026615856
1772643970768033300,0.987033203125,0.09632394672334194,0.003898596607428044,-0.0016520415233448147
1772643970778073300,0.9970732421875,0.09093757750988006,0.005696330211777239,0.00684087887071073
1772643970788114400,1.007114501953125,0.08660042508840561,0.00023592764772474765,0.002963982638437301
1772643970798155300,1.0171552734375,0.10081424387991428,-0.011080690131243317,-0.003488563634967431
1772643970808196400,1.0271962890625,0.1006646062761545,0.0025545615873299537,-0.005035263354005292
1772643970818237200,1.0372373046875,0.08255904074311256,0.014946498713921754,-0.0011273052631877362
1772643970828277200,1.04727734375,0.09527823706269263,0.013781747517175971,0.0058479040442965926
1772643970838318300,1.057318359375,0.09752280111908912,0.004173413227126002,0.0012613343058619647
1772643970848359400,1.067359375,0.09243395354747772,0.0026992855539545416,-0.005261144531751051
1772643970858400300,1.077400146484375,0.09048983374238014,0.00029867241932079195,0.005884317931393161
1772643970868441300,1.08744140625,0.08659808700084685,0.003458250695094466,-0.009351181191205978
1772643970878481400,1.0974814453125,0.10111118099987507,0.018337054467666893,0.0017402951955329626
1772643970888522500,1.1075224609375,0.09707330378592013,0.008518438427802175,0.0027926172600593415
1772643970898563300,1.117563232421875,0.09004092093110085,0.009982245636358857,0.0043426871131174265
1772643970908604400,1.1276044921875,0.09737667064666747,-0.004907280459627509,-0.003970492799859494
1772643970918645500,1.1376455078125,0.09184066382944583,-0.004303396282345056,-0.004936059029540047
1772643970928685300,1.147685302734375,0.0864525410503149,-0.0014575053319334983,0.00560772947971709
1772643970938726400,1.157726318359375,0.08390928630828857,-0.004165960573032498,0.0011204827967565506
1772643970948767500,1.167767578125,0.0924351225912571,-0.0009092420657165347,-0.00125458490466699
1772643970958808300,1.177808349609375,0.10126374121308326,0.011167491631861776,-0.003566615573549643
1772643970968849400,1.187849365234375,0.0943827495276928,0.008975991203263402,0.0026354630701243874
1772643970978889500,1.197889404296875,0.08854746750295162,-0.0055407012586481865,-0.0014412117842584847
1772643970988930600,1.2079306640625,0.09602993221282959,0.005361636631004512,0.0026061821767129002
1772643970998971400,1.217971435546875,0.09722586399912833,-0.0028393881443887947,-0.014603037304803728
1772643971009012700,1.2280126953125,0.09019114305675029,-0.0005410663404501974,-0.001440828191768378
1772643971019053800,1.2380537109375,0.0909405001193285,0.006312818142306059,-0.0029551691443193704
1772643971029093400,1.24809326171875,0.09303425752818584,-0.00009480214398354291,-0.005773423169134185
1772643971039134500,1.258134521484375,0.10350830526947974,0.0011237981318496168,-0.005447214288916438
1772643971049175600,1.268175537109375,0.09842062674164771,0.006355269044544547,0.0048860002095811065
1772643971059216400,1.27821630859375,0.09572831891775131,0.005106547625083476,-0.008240617000265047
1772643971069257500,1.288257568359375,0.09393091410696507,0.00977326079448685,-0.0005474960812367498
1772643971079297500,1.298297607421875,0.09572831891775131,0.0005753339362330734,-0.008592015120666473
1772643971089338600,1.308338623046875,0.09752280111908912,-0.003726107851043343,0.0027809176891110837
1772643971099379500,1.31837939453125,0.10425649328827857,0.0004471957782283425,0.005791159755224362
1772643971109420500,1.328420654296875,0.09811959796845912,0.0019581117978319526,-0.0019048746400978415
1772643971119461600,1.338461669921875,0.08405307869315147,0.0005994819968007505,-0.005408727175742387
1772643971129501700,1.348501708984375,0.09467676403820514,-0.004340714351739734,-0.001916766007291153
1772643971139542500,1.35854248046875,0.0924345380693674,0.006824293062090874,0.004759560818318277
1772643971149583600,1.36858349609375,0.08675240077972411,0.0037109468145295975,-0.003627186654368415
1772643971159624700,1.378624755859375,0.10171499211192131,0.005245207177102565,-0.010225379343004897
1772643971169665500,1.38866552734375,0.0922866540312767,-0.0012038958970457315,-0.012203100023604928
1772643971179705600,1.39870556640625,0.10007073203623294,0.00694315193509683,0.0010907178461551665
1772643971189746700,1.40874658203125,0.09648059858977794,0.0013557437242008746,0.0032094909652601927
1772643971199787500,1.41878759765625,0.10500585035085677,0.008470452833920717,0.0001930566203780472
1772643971209828600,1.42882861328125,0.09392857601940631,0.0018335721027106045,0.00195468686488457
1772643971219869700,1.43886962890625,0.09467501047253608,0.008604016085714102,0.011995010230876504
1772643971229909800,1.44890966796875,0.09347849416434764,0.017998433630447834,0.015179933010460807
1772643971239950600,1.45895068359375,0.09632043959200381,0.0008167962756007909,-0.008890212615951895
1772643971249991700,1.46899169921875,0.08808978686332702,0.0062507126915268595,-0.002801430754177272
1772643971260032800,1.47903271484375,0.09407821362316608,0.004523103447631001,-0.008544440518738702
1772643971270073600,1.489073486328125,0.08405190964937209,0.01681475853752345,-0.0019671718871220947
1772643971280113700,1.49911376953125,0.08839198468029498,0.011017689631320535,-0.003422256933106109
1772643971290154800,1.50915478515625,0.09004033640921115,0.007195135668478906,0.012281270693195984
1772643971300195600,1.519195556640625,0.08809797016978263,0.0003691803722642362,-0.0034114158786833285
1772643971310236700,1.529236572265625,0.09797522106170654,0.009740162242483348,-0.0027881420143414286
1772643971320277800,1.53927783203125,0.08450842124521732,0.0067175264856778084,0.0009950023867189883
1772643971330317600,1.549317626953125,0.0924392142444849,0.013149605359788983,-0.0007841178487055003
1772643971340358400,1.5593583984375,0.088548636546731,0.0008881992776878177,0.005164671020489186
1772643971350399500,1.5693994140625,0.0845095902889967,-0.0001873027330264449,0.006188059251476079
1772643971360440600,1.579440673828125,0.09184300191700458,0.002325155011937022,0.0007793686083517968
1772643971370481400,1.5894814453125,0.09827683435678482,0.0029687684114091096,0.003880713890865445
1772643971380521500,1.599521484375,0.0985737714767456,-0.0032454664609394964,-0.007939295966131613
1772643971390562600,1.6095625,0.089742230245471,0.005626790373213589,-0.0051468431028537445
1772643971400603600,1.619603759765625,0.10021510894298553,0.0026823526854626834,-0.01036099755456671
1772643971410644500,1.62964453125,0.08719722193777561,0.0037018867252394554,0.011950586567260325
1772643971420685600,1.639685546875,0.08719663741588592,-0.011242273901123553,-0.007173234363924711
1772643971430725600,1.6497255859375,0.08135960182547569,0.008225775624159723,0.0015439415063709019
1772643971440766500,1.659766357421875,0.08001052530407905,0.006629062750935554,0.009362031378783286
1772643971450807600,1.6698076171875,0.09946224474906921,0.010838040481787175,0.004931419387040659
1772643971460848600,1.6798486328125,0.09108136989474296,0.008632840321399271,0.004204676015069708
1772643971470889500,1.689889404296875,0.08135551017224789,0.002028985076956451,-0.005082810556469485
1772643971480929500,1.699929443359375,0.08314882332980632,-0.00013591960566118358,-0.012263543240260332
1772643971490970600,1.709970703125,0.10768997486829757,0.010752937747910618,0.0004572422482073307
1772643971501011700,1.72001171875,0.08614449801445007,0.010095624616649002,-0.011387491058092563
1772643971511052500,1.730052490234375,0.08404957156181335,0.004281257515773177,0.00998243743260391
1772643971521093600,1.74009375,0.08599427588880061,0.00820887928828597,0.010961201070575043
1772643971531133700,1.7501337890625,0.10574585506319999,0.0035645058148540553,-0.010203697234159335
1772643971541174500,1.760174560546875,0.08389876491427421,0.0004018222665414214,0.0014891425792127847
1772643971551215600,1.770215576171875,0.0928746830523014,-0.007491451733931898,0.005755905778752639
1772643971561256700,1.780256591796875,0.09107844728529453,0.007047215097770095,0.0005284443208947777
1772643971571297500,1.790297607421875,0.0850935276567936,0.0020855010371655224,0.0018618574822787195
1772643971581337600,1.800337646484375,0.10065291583836078,0.0011169299996457993,0.011494111504033207
1772643971591378700,1.810378662109375,0.09825988322198391,0.0006369827292859554,0.005351928087742999
1772643971601419800,1.820419677734375,0.09197627290785312,0.009293971111252903,-0.0009918971141800283
1772643971611460600,1.830460693359375,0.0883873085051775,-0.0048322607283480465,0.00017012326936237512
1772643971621501700,1.840501708984375,0.0870411545932293,-0.0029070100205019116,-0.005358558757929131
1772643971631541500,1.85054150390625,0.09302256709039211,0.011707078401278704,0.002505059889797121
1772643971641582600,1.86058251953125,0.08524141169488429,0.0021301986954174934,0.009099946376495062
1772643971651623400,1.87062353515625,0.09691548287570476,0.00953408174375072,0.007747746316250413
1772643971661664500,1.88066455078125,0.08659165726006031,-0.0061801316733472045,-0.0026482768859248606
1772643971671705600,1.89070556640625,0.08209843749403953,0.009199479494523256,0.007546561188343912
1772643971681745400,1.900745361328125,0.08553893333673476,0.004600716994795948,-0.01011022853073664
1772643971691786500,1.910786376953125,0.10484101517796515,-0.0037420543388463554,0.004407432045554742
1772643971701827600,1.92082763671875,0.09795651636123656,0.002841908895038068,0.0004390764038544148
1772643971711868400,1.930868408203125,0.09062427377700805,0.00642826121551916,0.006905760800465941
1772643971721909500,1.940909423828125,0.09855448225438594,0.01094858818417415,0.02122904958212748
1772643971731949600,1.950949462890625,0.09526420853734016,0.010606715943943709,-0.0045133127059787505
1772643971741990700,1.96099072265625,0.09212006529271602,-0.009407934613432735,0.0008961725215893238
1772643971752031500,1.971031494140625,0.08777882121801375,-0.0003809621416032314,-0.0002721040728036314
1772643971762072600,1.981072509765625,0.091816113910079,-0.0067351900065317745,0.005909214910631999
1772643971772113700,1.99111376953125,0.08852584019303321,-0.0021319887937046584,-0.0013203984161838888
1772643971782153700,2.00115380859375,0.09331365899145602,0.017784991809166966,-0.010181969459541142
1772643971792194600,2.011194580078125,0.09645721771419048,-0.00033485797755420207,0.005504132107924669
1772643971802235600,2.021235595703125,0.08299158694148064,-0.011004994546528904,0.003806132551003247
1772643971812276500,2.0312763671875,0.09526420853734016,-0.00317852043826133,-0.012134162973240017
1772643971822317600,2.041317626953125,0.09571779752373695,0.00389006624110043,-0.003658732570102438
1772643971832357600,2.051357666015625,0.10245207421481609,-0.0006408917194232344,0.011808931340556592
1772643971842398700,2.061398681640625,0.10035656324028969,0.0056513402925804255,0.0017772296724375336
1772643971852439600,2.071439453125,0.09975567473769187,0.005563314949255436,-0.002062549419840798
1772643971862480600,2.081480712890625,0.08598784614801407,0.009743705906439573,0.01329027420580387
1772643971872521700,2.091521728515625,0.08254384317398071,-0.007571786961145698,0.017570134348934514
1772643971882561800,2.101561767578125,0.08733283101618289,0.00437991385096684,-0.0033581604546401647
1772643971892602600,2.1116025390625,0.10633505312800406,0.003964355320017785,-0.007222343335812911
1772643971902643700,2.121643798828125,0.08179390158951282,0.003673336484190076,0.003875772854266688
1772643971912684800,2.131684814453125,0.10349135413467883,0.0016241854020394384,0.004696341122686863
1772643971922725600,2.1417255859375,0.08568331024348735,0.0053982971132732925,-0.0008425609045196324
1772643971932765400,2.151765380859375,0.0928659152239561,-0.0031588658897206186,-0.0021468301698099822
1772643971942806500,2.161806640625,0.1012450365126133,-0.006279555193521082,0.006372850367007777
1772643971952847400,2.171847412109375,0.09585749825537204,-0.006523081625811755,0.007363706301571801
1772643971962888400,2.181888427734375,0.10229133069515228,0.00905605243584141,0.003028353111539036
1772643971972929300,2.19192919921875,0.08448387132585049,0.0032214279982261357,-0.005155528732808307
1772643971982969300,2.20196923828125,0.08298924885392188,-0.0038804764288477597,-0.0011183273722883314
1772643971993010200,2.21201025390625,0.09047346712946891,0.0041085312973707915,-0.003169597346289083
1772643972003051300,2.22205126953125,0.10065116227269172,0.005098820976354181,0.006085466526681557
1772643972013092400,2.23209228515625,0.08942775746881962,0.005134641208406537,-0.001130794128216803
1772643972023133200,2.24213330078125,0.09152502200901508,0.0027902883056551216,0.0004177322217263281
1772643972033173200,2.25217333984375,0.08718494697809219,0.005934340218733996,0.006891376082086936
1772643972043214300,2.26221435546875,0.08254559673964977,0.011488942138571292,-0.0014854162521660327
1772643972053255400,2.27225537109375,0.08269464982151985,0.011794300027005374,0.012142949067894369
1772643972063296300,2.282296142578125,0.07685936779677867,0.004005874640494585,0.00016254275110550223
1772643972073337300,2.29233740234375,0.09870938055515288,-0.002050009598676115,-0.004532382732629776
1772643972083377400,2.30237744140625,0.08778934261202812,0.011164605555031447,0.00008136727367527783
1772643972093418200,2.312418212890625,0.09212824859917164,0.010139061899576335,0.003956363809807226
1772643972103459300,2.322459228515625,0.09212883312106132,-0.006340729062538594,-0.01654585106880404
1772643972113500400,2.33250048828125,0.079559274405241,0.005923307368066162,-0.006067382880719378
1772643972123541200,2.342541259765625,0.08360124327242374,-0.008027988029737025,0.002128527328139171
1772643972133581000,2.3525810546875,0.09736907186210154,-0.006993292953446507,-0.013926489750109612
1772643972143622100,2.3626220703125,0.090339027094841,-0.005885934499744326,0.0028319994223769754
1772643972153663200,2.372663330078125,0.09916530762910843,0.0031434856574982404,0.00017913769287988541
1772643972163704000,2.3827041015625,0.09138298318982124,-0.0020610972482711077,0.009145274222409351
1772643972173745200,2.3927451171875,0.0988654478996992,0.008106642756517976,0.0094242464274168
1772643972183785200,2.40278515625,0.09602233342826366,0.0066206602487713095,0.011960222045285627
1772643972193826300,2.412826416015625,0.09258300662934779,-0.003486307745799422,0.0025467618733644483
1772643972203867100,2.4228671875,0.08899053509533404,-0.008960428307950496,-0.01006395083675161
1772643972213908200,2.432908203125,0.09033727352917194,-0.0010554456033743918,0.000470631452742964
1772643972223949300,2.44294921875,0.08734510597586631,0.003570241435896605,0.0020915289191529153
1772643972233989000,2.452989013671875,0.0833025525867939,0.001248191696498543,-0.0015067330348305403
1772643972244030200,2.4630302734375,0.09736790281832218,0.0029606581701897084,-0.006866378638148307
1772643972254071300,2.4730712890625,0.08958791646659374,0.008332304738555103,0.003440824636258185
1772643972264112000,2.483112060546875,0.09392623793184757,0.0038713067417033013,-0.0067194809807464475
1772643972274153200,2.4931533203125,0.08928747221529483,-0.004065258411224931,-0.0043446781408041715
1772643972284193300,2.503193359375,0.08734101432263851,-0.003583027852233499,-0.005652445404278114
1772643972294234400,2.513234375,0.09258008401989937,0.0036885888522490856,-0.010583782592928036
1772643972304275200,2.523275146484375,0.08195698319673538,0.005751604062970727,-0.006564317818498239
1772643972314316300,2.53331640625,0.09856734173595905,0.002598126734420657,-0.011957756093563511
1772643972324357400,2.543357421875,0.09317688086926937,0.0036982699960470197,0.01331181018417701
1772643972334397400,2.5533974609375,0.0952712228000164,-0.005542874949425459,0.0027920144718606025
1772643972344438300,2.563438232421875,0.0850935276567936,-0.002360482053644955,-0.003260052108718082
1772643972354479400,2.573479248046875,0.10604337670505046,0.0012156046011485159,-0.010131371783465147
1772643972364520200,2.583520263671875,0.09960895974338053,-0.01750754484096542,-0.0012912545200902967
1772643972374561300,2.593561279296875,0.09227730168104172,-0.006015333033073693,-0.003638922757934779
1772643972384601300,2.603601318359375,0.09242635476291179,0.00041278205197304484,0.002840867715422064
1772643972394642400,2.613642333984375,0.08958207124769688,0.005101232129149138,-0.0019472616102546453
1772643972404683300,2.623683349609375,0.08449380819797515,0.00898320639533922,-0.0026667532575316726
1772643972414724400,2.633724365234375,0.1025993737310171,-0.0014590397018939257,0.001821598537126556
1772643972424765400,2.643765380859375,0.09332476490736007,0.00382235303344205,0.009320384194143116
1772643972434805200,2.65380517578125,0.10080606057345867,0.00231521813981235,-0.007821734001068397
1772643972444846000,2.66384619140625,0.09916121597588062,0.00511953497081995,-0.010352805114956572
1772643972454887200,2.67388720703125,0.08644318870007991,0.011687825711537151,-0.005906986420927569
1772643972464928300,2.68392822265625,0.08554360951185226,0.0029271212267689404,0.004083086328860372
1772643972474969000,2.693968994140625,0.10080547605156898,0.0004252214084379375,-0.00011526954327709972
1772643972485009200,2.704009033203125,0.0976630863726139,-0.0009003646395169198,0.0032718430112116037
1772643972495050200,2.71405029296875,0.08419862464368343,0.00948985900953412,-0.0007933149353135377
1772643972505091000,2.724091064453125,0.0949748702019453,0.0019371968739666044,0.01026526382882148
1772643972515132200,2.734132080078125,0.09811784440279006,0.005773267905507236,0.005708559505688026
1772643972525173200,2.74417333984375,0.08255494908988475,0.006247863147314637,0.008695027970569208
1772643972535214000,2.754214111328125,0.09646949267387389,0.004937072809692472,-0.001901650636550039
1772643972545254100,2.764254150390625,0.09871464125216006,0.008406191958673297,-0.0010934486593585462
1772643972555295200,2.774295166015625,0.08823942446708678,0.0006459332207217812,-0.00813164933361113
1772643972565336300,2.78433642578125,0.0934755715548992,-0.0031962387580424544,-0.000365682374080643
1772643972575377200,2.794377197265625,0.09931319166719912,-0.0032372100892476734,0.005412681831652298
1772643972585417200,2.804417236328125,0.09422492861747742,0.0018591449353843926,0.00007107420852407812
1772643972595458300,2.814458251953125,0.08898644344210624,0.006686601624451578,-0.012209739826945587
1772643972605499400,2.82449951171875,0.09302665874361991,0.009227847072482108,-0.00009119454794563352
1772643972615540200,2.834540283203125,0.09362754724621772,0.0027381927922368048,0.006002765812445431
1772643972625581300,2.844581298828125,0.08150690134167671,-0.002379113688878715,-0.0014194018112495541
1772643972635622100,2.8546220703125,0.09721358903944492,0.0010514818143099545,-0.0007428177239373326
1772643972645662200,2.864662109375,0.10005436542332172,0.013235000354610383,0.002257140410179272
1772643972655703300,2.874703369140625,0.08972761719822883,0.005084335793275386,-0.0027224746332969517
1772643972665744400,2.884744384765625,0.09556289922297,0.009019026627391576,-0.00006235204595141112
1772643972675785200,2.89478515625,0.0840431418210268,0.015517083409801125,-0.011283564892737194
1772643972685826300,2.904826416015625,0.09167582865655421,0.009486845068540424,0.00399183698198758
1772643972695866400,2.914866455078125,0.10110358221530914,0.0003622026422061026,-0.0006790409058798104
1772643972705907500,2.924907470703125,0.10948621063530445,0.002228507970739156,0.01048014868851751
1772643972715948300,2.9349482421875,0.08913374295830725,-0.005511036772746593,0.00380702760014683
1772643972725989400,2.9449892578125,0.08703998554944992,-0.0007608283046633005,-0.0017477752490900455
1772643972736030500,2.955030517578125,0.09960603713393211,0.00021508578909561036,0.009552576381666586
1772643972746070300,2.9650703125,0.09601473464369774,0.0045737193900160485,-0.005275867176847532
1772643972756111000,2.975111083984375,0.08598901519179343,0.0029251849980093535,-0.002877957455953583
1772643972766152200,2.985152099609375,0.08883329870700836,0.0034921346983872352,-0.0038239696017932146
1772643972776193000,2.995193115234375,0.08195055345594883,0.0078053217223845416,0.0018858685455285012
1772643972786234000,3.005234130859375,0.09871054959893226,-0.0071599912898614995,0.0005026066267397254
1772643972796274200,3.015274169921875,0.10424830998182297,-0.0037493791287764905,-0.006855939442524686
1772643972806315300,3.025315185546875,0.09646540102064609,0.010834387219976633,-0.0008752484645694493
1772643972816356000,3.035356201171875,0.09631459437310695,-0.0033634668174199757,-0.00038305363398976624
1772643972826397200,3.045397216796875,0.09122574680149555,-0.0006465360089205205,0.0051860517352353775
1772643972836438300,3.055438232421875,0.09167465961277485,0.0005365180294960737,-0.0006277947758324444
1772643972846478300,3.065478271484375,0.0894324336439371,-0.0006957454455085099,-0.0022060130111407486
1772643972856519200,3.075519287109375,0.09152619105279446,-0.0029096038363873957,0.006028064650483429
1772643972866560300,3.085560302734375,0.08359189092218876,0.012909019803255796,0.005301385210594162
1772643972876601300,3.095601318359375,0.0856856483310461,0.009804898041766137,0.0018575192338787017
1772643972886642200,3.10564208984375,0.10064940870702266,0.005304298686888069,-0.005739740095240995
1772643972896682200,3.11568212890625,0.1000508582919836,-0.0033849662631750105,0.0010300280343275518
1772643972906723300,3.125723388671875,0.0858382085442543,0.00400921737505123,-0.015773898581927643
1772643972916764200,3.13576416015625,0.09691080670058727,0.009379767964873463,0.0003229300777427852
1772643972926805200,3.14580517578125,0.09286766878962516,0.008557747524883598,-0.013079289203090592
1772643972936846300,3.155846435546875,0.08717676367163657,0.0025492826240137217,-0.0031554957557003945
1772643972946886400,3.165886474609375,0.08927227464616298,0.009412026266660541,0.015847785802045836
1772643972956927200,3.17592724609375,0.08463233988583087,0.003741889942064881,0.0015406901033595203
1772643972966968300,3.18596826171875,0.09375848014950752,0.0037695999328978356,-0.01635612804982811
1772643972977009400,3.196009521484375,0.08358429213762283,0.004029785239044577,0.0005712514161597937
1772643972987050500,3.206050537109375,0.08882219279110432,0.0009861797594465315,-0.0008595668382477015
1772643972997090600,3.216090576171875,0.09465630577206612,-0.0024190803730860353,0.0005361527033150195
1772643973007131600,3.226131591796875,0.0796907918304205,-0.0032463432437740266,-0.007558772215945646
1772643973017172500,3.23617236328125,0.09480652789771556,-0.0017021642753854392,-0.0005037208715919405
1772643973027213600,3.246213623046875,0.08717501010596751,0.012959032957442104,0.009254808144643903
1772643973037254700,3.256254638671875,0.09390811775326728,0.006380257355328649,0.010791507059475406
1772643973047294700,3.266294677734375,0.09076280546486377,-0.0023791867541149256,-0.003546531766746193
1772643973057335600,3.27633544921875,0.09136135587990284,0.008710837461054324,-0.004156096766144037
1772643973067376600,3.286376708984375,0.08402794425189494,0.000043017157819122074,0.0030761743086390194
1772643973077417700,3.296417724609375,0.07968786922097205,-0.0036989093168638644,0.002204542573262006
1772643973087458600,3.30645849609375,0.10168284340798854,-0.0029257512535899874,0.003628017771430313
1772643973097498600,3.31649853515625,0.10018822093605995,-0.000574986876361072,0.003154993432201445
1772643973107539700,3.326539794921875,0.0913584332704544,-0.005792593660484999,0.004413843520032242
1772643973117580500,3.33658056640625,0.08762100030779837,0.006685487379599362,-0.007001394061511382
1772643973127621600,3.34662158203125,0.10557634371519088,0.0044384208388626575,-0.004826579906232655
1772643973137662700,3.356662841796875,0.09345686685442924,-0.0017194624700583516,-0.005461516808904707
1772643973147702800,3.366702880859375,0.09570143091082572,0.006668043054454028,0.008733341553807257
1772643973157743600,3.37674365234375,0.08971417319476604,-0.0005984225508756935,0.002121494799153879
1772643973167784700,3.38678466796875,0.08372574643492699,0.007593304673209786,0.012129468531813473
1772643973177825800,3.39682568359375,0.09030980100035667,0.00981943802377209,-0.008038555089524016
1772643973187866600,3.40686669921875,0.10452712692320346,0.007510594825819134,-0.0017583240425679831
1772643973197906700,3.41690673828125,0.09824293208718299,-0.005385821224190295,0.006643958925968036
1772643973207947800,3.42694775390625,0.08372866904437541,-0.004348294869996607,-0.001898161771520972
1772643973217988600,3.436988525390625,0.08791910647153854,0.0026535284497775135,0.001264320847392082
1772643973228029700,3.44702978515625,0.08103577669858932,0.006367891064099967,0.010191002149367705
1772643973238070800,3.45707080078125,0.09524901096820831,0.008183288189303129,-0.004667745215864852
1772643973248110600,3.467110595703125,0.10198621026873587,0.006131945150066167,0.001289528353884816
1772643973258151400,3.4771513671875,0.09390811775326728,0.0090418047147803,0.0025098913285415618
1772643973268192500,3.487192626953125,0.0909141966342926,-0.002581979317218065,0.0010087934500537812
1772643973278233600,3.497233642578125,0.08687222776710987,0.014839403343945741,0.002791649145679548
1772643973288274400,3.5072744140625,0.08432955754697323,0.010456219823658465,0.0107406627882272
1772643973298314500,3.517314453125,0.09929390244483947,0.0013199234921485185,0.009356898545939475
1772643973308355600,3.52735546875,0.09300795404314995,0.003010525193903595,-0.0009682148444931953
1772643973318396700,3.537396728515625,0.09390928679704666,-0.011180040586180984,-0.002473121248418465
1772643973328437500,3.5474375,0.09615501989722251,-0.006587817425094545,0.0011466675507836044
1772643973338478600,3.557478515625,0.09705226099789142,0.0013373312846757471,-0.00419199919658713
1772643973348518700,3.5675185546875,0.09869769011735915,-0.00566535055162385,0.011360091594513505
1772643973358559500,3.5775595703125,0.10169102671444416,-0.002822437009587884,-0.002165306541416794
1772643973368600600,3.5876005859375,0.10318857179582118,0.002394256459083408,-0.0017176997712347656
1772643973378641700,3.5976416015625,0.0983989994317293,0.0007715140954591334,-0.0020207652378827334
1772643973388682500,3.6076826171875,0.09346212755143642,0.0019399185540154575,0.007849507923983036
1772643973398722600,3.61772265625,0.09031739978492259,0.007667411089036613,0.006713453098759055
1772643973408763600,3.627763671875,0.09405658631324768,-0.006670326343085616,-0.0018848090996034443
1772643973418804700,3.6378046875,0.09839841490983962,-0.002869783282652497,0.006544654136803001
1772643973428845600,3.647845458984375,0.09825111539363861,0.004977605749480426,-0.004661571203405037
1772643973438886700,3.65788671875,0.0973497826397419,0.003885481397528201,0.013142180105159058
1772643973448926700,3.6679267578125,0.09764964236915111,0.0026774025157094,-0.009178244910249485
1772643973458967800,3.6779677734375,0.07894669546484946,0.008294858804997056,0.007011513596726581
1772643973469008600,3.688008544921875,0.07879647333920002,0.007893420130945742,-0.0011116967021021992
1772643973479049700,3.6980498046875,0.08612754687964916,-0.00748531425409019,-0.004545653206156567
1772643973489090600,3.708090576171875,0.08702420345842837,0.0009219919494353234,0.002368528362782672
1772643973499130600,3.718130615234375,0.0859773247539997,0.004776110094320028,0.00627650471990928
1772643973509171700,3.728171630859375,0.08822247333228588,-0.0012221622060984373,0.005095797902205958
1772643973519212800,3.738212890625,0.09285890096127987,-0.00951780646238476,-0.007528578007081523
1772643973529253600,3.748253662109375,0.08657295255959034,0.0125198560888879,0.00009835494109429418
1772643973539294700,3.758294677734375,0.0986959365516901,0.003642082829400897,0.0012626129474956542
1772643973549334500,3.76833447265625,0.1042336969345808,-0.005048223300278186,0.0034264125184155997
1772643973559375600,3.778375732421875,0.10722177283465861,0.003930653979815542,-0.0018058895113412289
1772643973569416400,3.78841650390625,0.10662088433206081,0.0039975269372574986,0.008256718751695006
1772643973579457500,3.79845751953125,0.08866378735899924,0.0022536241456866265,0.006980150344083085
1772643973589498600,3.80849853515625,0.09495032028257847,0.01896897742934525,0.014115902241831645
1772643973599538700,3.81853857421875,0.08911620730161667,-0.000952496685553342,0.006856049040379003
1772643973609579500,3.82857958984375,0.09360650445818901,-0.003977196535281837,0.0032492475869134066
1772643973619620600,3.83862060546875,0.10004267498552799,0.0016390724439173936,0.00386505053085275
1772643973629661400,3.848661376953125,0.09989128381609916,0.01111959736952558,-0.006569934708531945
1772643973639702500,3.85870263671875,0.09764613523781299,0.006774681766703724,-0.0006894435688853263
1772643973649742600,3.86874267578125,0.10198737931251525,0.007776241758372634,-0.0035597200418822465
1772643973659783700,3.87878369140625,0.08672434372901916,0.004058225882239639,-0.01081313436939381
1772643973669824500,3.888824462890625,0.09495616550147533,0.0003111665747128427,-0.005387264262605458
1772643973679865600,3.898865478515625,0.0992974095761776,-0.004067194639984518,-0.00301764905443415
1772643973689906700,3.90890673828125,0.10468202522397041,0.0030294490900821982,0.0019256616997998207
1772643973699946800,3.91894677734375,0.08807049764096736,-0.0023216478805989024,-0.006702977370517328
1772643973709987600,3.928987548828125,0.08627601543962955,0.0004970445356331766,-0.005359727801708504
1772643973720028700,3.939028564453125,0.07834522244036198,-0.00042777869170531626,-0.0015862645444460212
1772643973730069800,3.94906982421875,0.09420505487322807,-0.0015925298884510992,0.003256718507315963
1772643973740110600,3.959110595703125,0.09465455220639706,-0.005781195483636111,0.002182175477826968
1772643973750150700,3.969150634765625,0.09719546886086464,-0.001232117344532162,0.004940379011631012
1772643973760191700,3.979191650390625,0.10078560230731963,0.0013336049576289952,0.007657510749530047
1772643973770232600,3.989232666015625,0.09509878884255886,-0.0023435857177712023,0.0096779015280772
1772643973780273700,3.999273681640625,0.09494973576068877,-0.001017488213162869,0.0030930706445127724
1772643973790314800,4.009314697265625,0.09300210882425308,-0.001252648675907403,-0.0131819458599668
1772643973800354800,4.019354736328125,0.09180500799417496,0.0014354578969068825,-0.0025681608544196933
1772643973810395600,4.029395751953125,0.08955927489399909,0.009427516096737235,0.006053208224894479
1772643973820436700,4.039436767578125,0.08536825294494628,-0.0027957499320618805,-0.003982365900743753
1772643973830477800,4.049477783203125,0.09973521647155284,-0.0024033348146826027,-0.004591218514088541
1772643973840518700,4.0595185546875,0.09958967052102088,0.0079586308542639,0.006433238784736022
1772643973850558500,4.069558349609375,0.09240998815000057,0.003992631566431373,0.010142998289177193
1772643973860599600,4.079599609375,0.09315700712502002,-0.0006119761521928012,0.0011612805980257689
1772643973870640600,4.089640625,0.09809212543964385,0.0008289068385027348,0.0005828961881808937
1772643973880681500,4.099681396484375,0.10587444987893103,-0.0034094796499237415,0.0013534695687238126
1772643973890722600,4.10972265625,0.08627017022073269,-0.004418309632595628,0.00362239174824208
1772643973900762600,4.1197626953125,0.09734276837706565,0.0018900697966106235,0.013940837935870512
1772643973910803500,4.129803466796875,0.0864174697369337,0.006891220818459987,-0.002357824305677786
1772643973920844500,4.139844482421875,0.09659341131448745,0.0017890205749310551,-0.0003128288088366389
1772643973930885600,4.1498857421875,0.10003624524474143,-0.005870042810868471,0.0014816899251192807
1772643973940926500,4.159926513671875,0.08537351364195346,-0.0032174276765435934,-0.004094968562899157
1772643973950966500,4.169966552734375,0.10198328765928745,0.005764646207634359,0.0036598468149546533
1772643973961007600,4.180007568359375,0.0882172126352787,-0.0001042640920728445,0.0014517605777364224
1772643973971048700,4.190048583984375,0.09300620047748089,0.008245101379137487,0.0021046806616708633
1772643973981089800,4.20008984375,0.09749708215594291,-0.004042443791218102,0.004243674584897235
1772643973991131000,4.210130859375,0.08447802610695361,-0.002701605375204235,0.005630297504551708
1772643974001171000,4.2201708984375,0.08507891460955143,0.007440799258928745,-0.00926718356902711
1772643974011211800,4.230211669921875,0.09974456882178782,0.005177585300989449,0.007771392053319141
1772643974021252900,4.2402529296875,0.10528232920467853,-0.0091130250537768,-0.011745720778079703
1772643974031294000,4.2502939453125,0.09526011688411236,0.0030290472312830387,-0.001839170726435259
1772643974041334800,4.260334716796875,0.08852467114925384,0.005023636848293244,0.0049138380645774304
1772643974051374800,4.270374755859375,0.10228840808570384,-0.000414700014423579,0.00175404972624965
1772643974061416000,4.280416015625,0.10169102671444416,-0.012080350426770746,-0.006114108099276199
1772643974071457000,4.29045703125,0.09016659313738346,-0.006922072614450007,0.005863969263108447
1772643974081497900,4.300497802734375,0.0873234786659479,-0.0006538607988506555,0.006773138263588771
1772643974091539000,4.3105390625,0.09435527699887752,0.006700374421477318,0.004140807865466922
1772643974101578800,4.320578857421875,0.09180909964740276,0.003151559366099536,0.0010826441375538706
1772643974111619600,4.33061962890625,0.0940513256162405,0.006782390149123966,-0.008878841838566586
1772643974121661000,4.340660888671875,0.09853811564147472,-0.004805135259404778,-0.004851942676352337
1772643974131702000,4.350701904296875,0.10227964025735854,-0.0008986841390840708,-0.0029862310028634965
1772643974141742800,4.360742919921875,0.09943535674214363,0.0019793555152602493,-0.0009009856940247118
1772643974151784000,4.370783935546875,0.09404898752868175,0.019331472332496196,0.0035480935361701994
1772643974161823700,4.38082373046875,0.08985855010151862,0.006644351651612669,-0.0014039302474819122
1772643974171864800,4.39086474609375,0.09075696024596691,0.010646390367206186,-0.0010811919659841805
1772643974181905700,4.40090576171875,0.089859719145298,0.0019292692958377301,-0.002377204859582707
1772643974191946800,4.41094677734375,0.09464987603127956,-0.0030633878923021253,0.01080824813172221
1772643974201986800,4.42098681640625,0.09060849168598652,0.007900178665295243,0.005109388036141172
1772643974212028000,4.43102783203125,0.0959942763775587,0.009713055039849131,-0.00877746382332407
1772643974222068700,4.44106884765625,0.09090835141539573,-0.0027707981538958844,0.00667973349224776
1772643974232109800,4.45110986328125,0.08507423843443393,-0.0003108195148408413,-0.0010473810279276222
1772643974242150700,4.461150634765625,0.09838964708149432,-0.002331877013668418,0.0029873726471792905
1772643974252191700,4.471191650390625,0.08851531879901886,-0.0008353000466711819,-0.002806992845283821
1772643974262231800,4.481231689453125,0.07893909668028354,0.0009516016364097595,-0.0032955709466710686
1772643974272273000,4.49127294921875,0.0822352156162262,0.003984996249247342,-0.009348039386048912
1772643974282313700,4.501313720703125,0.09690437695980071,-0.005288370465394109,0.008315947258798405
1772643974292354800,4.511354736328125,0.08717968628108501,0.011997640579380095,-0.002567631131457165
1772643974302396000,4.52139599609375,0.09301438378393649,0.010805581250600516,-0.006546471634553745
1772643974312436000,4.53143603515625,0.09645487962663173,0.006487809383030981,0.0012684216337744145
1772643974322476800,4.541476806640625,0.09062135116755962,-0.0006057838734239339,-0.005470522099267691
1772643974332518000,4.551517822265625,0.08313947097957133,0.0028333237297832963,-0.003235639186669141
1772643974342559000,4.56155908203125,0.09959960739314555,0.0038661556425504382,0.012644523648172616
1772643974352599800,4.571599853515625,0.10693360354304313,-0.0015668657242320478,0.0004922587626613676
1772643974362640000,4.581639892578125,0.10050094014704226,0.009030022945441306,0.004050627097673714
1772643974372681000,4.591680908203125,0.09691431383192539,-0.0006824110399000346,-0.0006502258033491671
1772643974382721800,4.6017216796875,0.09212766407728194,0.005980261719692498,0.0007402513075154274
1772643974392763000,4.611762939453125,0.0939244843661785,-0.004864500763826072,0.008451848598150536
1772643974402804000,4.621803955078125,0.09212824859917164,0.010830478229839353,0.01046272262968123
1772643974412844000,4.631843994140625,0.0847965905368328,0.004075067419186234,0.0058616037760861215
1772643974422884900,4.641884765625,0.0868926860332489,0.014189853394031523,0.0006551759731024503
1772643974432926000,4.651926025390625,0.08898702796399593,0.0044835203559137875,-0.001892855408741161
1772643974442967000,4.661967041015625,0.09587035773694515,-0.0029770247831009326,-0.0034370891760569064
1772643974453008000,4.6720078125,0.08644318870007991,0.0009144479637965559,-0.005216191145172342
1772643974463047700,4.682047607421875,0.08539747903943061,-0.002588993579894304,-0.0020934742810670287
1772643974473088800,4.6920888671875,0.08599719849824905,-0.003487495055887848,0.0023163597841281444
1772643974483129900,4.7021298828125,0.09438333404958248,0.0020413696344941854,0.010003535019559785
1772643974493170700,4.712170654296875,0.10635668043792247,-0.0032653950041159987,0.004764447055989876
1772643974503211800,4.722211669921875,0.09154431123137474,-0.006948540496267378,0.001522542525315657
1772643974513251800,4.732251953125,0.09708265613615512,-0.004638747450243681,0.0054728419205173845
1772643974523292700,4.742292724609375,0.09872925429940223,-0.0007888670890592039,-0.003905848332121968
1772643974533333800,4.752333740234375,0.09828092601001262,0.002761884195078164,-0.015201249793125315
1772643974543374800,4.762374755859375,0.09648761285245418,0.006584492956846952,0.012316479003895073
1772643974553415700,4.772415771484375,0.08840776677131652,-0.0024566724371165036,0.00864937133109197
1772643974563455700,4.782455810546875,0.0958902314811945,-0.0008272080717608332,-0.01018655430311337
1772643974573496800,4.792496826171875,0.09888239903450012,-0.007107311254553496,0.0010740772386081516
1772643974583538000,4.802537841796875,0.09738719204068183,0.0029959304129704833,0.0008568816908169538
1772643974593578800,4.812578857421875,0.086465400531888,0.0030732699654996394,-0.0007844101096503436
1772643974603619800,4.822619873046875,0.0905091229647398,-0.0030521358459256586,0.007081089967908337
1772643974613660000,4.832659912109375,0.08721709568202494,-0.00876265897983685,-0.004692496064631268
1772643974623700700,4.84270068359375,0.09709434657394886,-0.0036988545179367062,0.006501198587566614
1772643974633741800,4.852741943359375,0.09260697202682494,-0.002831570164114237,-0.011644461493846028
1772643974643783000,4.862782958984375,0.10592647232711315,-0.009508819438330828,0.0025037812481634317
1772643974653823700,4.87282373046875,0.1107166292130947,0.0031090536649338897,0.015012211760738864
1772643974663863800,4.88286376953125,0.09904606516361236,0.007247870502714067,0.003360891267843544
1772643974673905000,4.89290478515625,0.0900689779818058,-0.0034218459411524235,-0.002146574441483244
1772643974683946000,4.902946044921875,0.08932195900678634,0.005679397343285381,0.0074001019223593175
1772643974693986800,4.91298681640625,0.09859773687422276,0.0000595847001299262,0.009922642669919877
1772643974704028000,4.92302783203125,0.08902034571170807,-0.003963843863364309,0.0001785623041447252
1772643974714068000,4.93306787109375,0.08512918349206447,0.01341556281959638,-0.0026544143657665697
1772643974724109000,4.943109130859375,0.08602759363651274,-0.009663882135879247,0.004700268379133194
1772643974734150000,4.95314990234375,0.10024433503746986,0.0009240743086673319,0.019079114139778537
1772643974744191000,4.96319091796875,0.0911187792956829,-0.0037810346423648297,-0.002037396712275222
1772643974754231800,4.973231689453125,0.08917349044680595,-0.014223828728869556,-0.005382834682660177
1772643974764271600,4.983271728515625,0.09949965415000915,0.002357066253852099,-0.004382151473825797
1772643974774312700,4.993312744140625,0.0902256298482418,-0.004195899053569883,0.00325875520077534
1772643974784353800,5.003353759765625,0.0933674350053072,-0.00655902972202748,0.003844245204841718
1772643974794394600,5.01339453125,0.10129939704835414,-0.007201675007119775,0.0038572873495053496
1772643974804435700,5.023435791015625,0.10414134247601031,-0.004195077069662511,-0.0013502090325579047
1772643974814475800,5.033475830078125,0.09037292936444281,0.009922843599319458,0.0015172909614630042
1772643974824516900,5.043516845703125,0.09097031073570251,-0.0017341851151548326,-0.009049978888081386
1772643974834557700,5.0535576171875,0.09560615384280681,-0.007064074901025742,-0.0022438151377253235
1772643974844598800,5.063598876953125,0.10188917963504791,0.004061367687396705,0.010932888291543348
1772643974854639900,5.073639892578125,0.09919862537682056,-0.003802497555501759,0.006590420374134555
1772643974864680000,5.083679931640625,0.1011444987475872,-0.0011269034043885767,0.004787964928895235
1772643974874720800,5.093720703125,0.08588087864220142,0.0008697320392355323,0.008738273457251488
1772643974884761900,5.103761962890625,0.09875029708743095,-0.008860767325758934,0.006479881804902106
1772643974894802700,5.113802734375,0.09171849875450133,-0.0020043620923534036,-0.0007358582601882517
1772643974904843800,5.12384375,0.08872633120119572,0.005018211754504591,0.0006086151513271034
1772643974914883800,5.1338837890625,0.10353928492963313,-0.0008053250335156917,0.010061603616038337
1772643974924925000,5.143925048828125,0.10084873067140579,0.006595671937987208,0.003294995557935908
1772643974934965800,5.1539658203125,0.10728256311118602,0.007822893911693244,0.00013474142872728408
1772643974945006800,5.1640068359375,0.0974064812630415,0.00947115430906415,0.004319890759419649
1772643974955048000,5.1740478515625,0.0821428611576557,-0.0035357546444050965,-0.0009117354169022291
1772643974965088000,5.184087890625,0.0909708952575922,-0.0032031799554824826,-0.009295322818122804
1772643974975127800,5.1941279296875,0.08947568826377392,-0.004754135724529623,0.008986457798350602
1772643974985169000,5.2041689453125,0.10458791719973087,0.007976184777263551,-0.0018503771070390938
1772643974995210000,5.2142099609375,0.09695756845176219,-0.00254798571607098,0.004428091241093352
1772643975005250800,5.224250732421875,0.0981599299788475,-0.004341792063973844,-0.0013092742339707911
1772643975015291000,5.234290771484375,0.09830898306071757,-0.0016628003793768584,-0.0009164755241014063
1772643975025332000,5.24433203125,0.0942693522810936,-0.0015615502282977103,-0.0031118301439099012
1772643975035373000,5.254373046875,0.08095452815592288,0.00961366805229336,-0.00020303002512082457
1772643975045414000,5.264413818359375,0.09741524909138678,0.005230356667842715,0.002366802196577191
1772643975055455000,5.274455078125,0.09591945757567882,-0.001763703470584005,0.010350348296388983
1772643975065495000,5.2844951171875,0.10115677370727062,-0.00491694333711639,0.012756048598093912
1772643975075536100,5.2945361328125,0.10594517702758312,-0.0058180386289954185,-0.0008358023701701313
1772643975085577000,5.304576904296875,0.09561842880249023,0.005139554845541715,0.007881784492079168
1772643975095618000,5.3146181640625,0.08948328704833984,0.001708575749862939,0.00335421493188478
1772643975114444000,5.333444091796875,0.08918342731893063,0.00276287057576701,-0.0027670170279219743
1772643975124485000,5.343485107421875,0.09442249701619147,0.0015183321410790086,-0.00053041708227247
1772643975134526000,5.35352587890625,0.09741817170083522,0.006246292244736105,0.0067272624284029
1772643975144566000,5.36356591796875,0.0963736310839653,0.008428823915589601,0.0033757235107943415
1772643975154607000,5.373607177734375,0.08993979864418507,0.0052688437810167665,-0.008753461893228813
1772643975164648000,5.38364794921875,0.08485445820391177,-0.00036359088169410825,-0.0067810841080266976
1772643975174689000,5.39368896484375,0.07961889563798905,-0.00519771477356553,0.004438667434034869
1772643975184730000,5.403730224609375,0.09218903887569904,0.010645550116989762,-0.010242230013106018
1772643975194770000,5.41377001953125,0.10655717144608497,0.0053331594551913435,-0.004428867559228092
1772643975204810800,5.423810791015625,0.10192015929520129,0.004102905274182558,0.009729147658124566
1772643975214851800,5.433851806640625,0.10042319873571395,-0.0019987543354742228,-0.006026913873013109
1772643975224893000,5.443892822265625,0.0832154588252306,-0.007730046262778342,-0.008508729884540663
1772643975234933800,5.453933837890625,0.08142097662389278,0.0012118965404108166,0.005088628375902772
1772643975244973800,5.463973876953125,0.0977285528242588,-0.010248623221274464,-0.011279409307427704
1772643975255015000,5.474014892578125,0.09578384849727153,0.005273373825661838,-0.006609892259584739
1772643975265056000,5.484055908203125,0.08979775982499122,0.00197740102019161,0.005284406676329672
1772643975275096800,5.494096923828125,0.09159165750443934,-0.007695687335450202,0.0037994105492718516
1772643975285138000,5.504137939453125,0.08889993420243263,0.004376077926065773,0.000188133850088343
1772643975295178000,5.514177978515625,0.1016191305220127,-0.008352160216495394,-0.006409501716122031
1772643975305218800,5.52421875,0.08994798195064067,0.007789904957544058,0.0030317415118683126
1772643975315260000,5.534260009765625,0.10850187577307224,-0.004458532045129687,0.003095436131535098
1772643975325301000,5.544301025390625,0.09443535649776458,-0.006375581180211156,-0.0024765005155932157
1772643975335341800,5.554341796875,0.08949614652991295,-0.0030699637635610995,-0.005707490926608443
1772643975345382000,5.5643818359375,0.08426058396399021,0.001225724136363715,0.0009715667122043669
1772643975355423000,5.574423095703125,0.09383855964839458,0.00418062841920182,0.0008287881074938923
1772643975365464000,5.584464111328125,0.08830021474361419,-0.0005809782257303595,0.010475271584000438
1772643975375505000,5.5945048828125,0.09608312370479107,0.00027017697719857093,0.0061240632377099246
1772643975385546000,5.6045458984375,0.09892623817622662,-0.0033465339489281176,0.002889446964347735
1772643975395586000,5.6145859375,0.0948871919184923,0.004694477959163486,-0.009398901923606172
1772643975405627100,5.624627197265625,0.0915934110701084,-0.005725538039952517,-0.005047163854353129
1772643975415668000,5.63466796875,0.09608487727046013,-0.006697616208810359,0.00648635721146129
1772643975425709000,5.644708984375,0.08815525331497191,0.005528499364200979,0.003225136058963835
1772643975435750000,5.65475,0.08620821090042591,0.008865973223838955,-0.00021922310809604822
1772643975445791000,5.664791015625,0.09069792353510855,-0.0019255795014090835,-0.004866537457285449
1772643975455831000,5.6748310546875,0.08920563915073872,-0.00231852434175089,-0.00224342241208069
1772643975465872100,5.6848720703125,0.10775953297317027,-0.010959803697932511,0.007316506158979609
1772643975475913000,5.694912841796875,0.09518763616979121,-0.012240125832054763,0.011518149966746568
1772643975485954000,5.7049541015625,0.09114683634638786,0.001553805313259363,-0.007481113003008067
1772643975495995100,5.7149951171875,0.09952654215693474,-0.0023503807847388087,-0.008507944433251395
1772643975506035000,5.725034912109375,0.07902735948562621,-0.00227126940023154,-0.002451475672191009
1772643975516075800,5.73507568359375,0.09818214181065558,-0.0012629874068312346,-0.003645836555911228
1772643975526116900,5.745116943359375,0.09159867176711559,0.003638100774027407,-0.007039442783268168
1772643975536158000,5.755157958984375,0.07962766346633433,0.004072546668536961,0.007060823498014361
1772643975546198800,5.76519873046875,0.09549158755242824,0.003450049122329801,-0.002043890385143459
1772643975556238800,5.77523876953125,0.09204933814406395,0.007524769481644034,0.007346645568916573
1772643975566280000,5.785280029296875,0.0887573108613491,0.004828917993791401,-0.0017473642571363597
1772643975576320800,5.79532080078125,0.099680855935812,0.002439575171843171,0.013198869595304131
1772643975586361900,5.80536181640625,0.09938158072829247,0.006492485558148473,-0.0011919405977707355
1772643975596403000,5.81540283203125,0.09609130701124667,0.005543167210370302,0.004609731418313458
1772643975606443000,5.825443115234375,0.09578910919427872,-0.0027695377785712477,-0.004462669364130124
1772643975616483800,5.83548388671875,0.09683598789870738,-0.0053155507332645355,-0.0038004151962697506
1772643975626525000,5.84552490234375,0.09593699323236941,-0.00023906945288181304,0.007227567500201985
1772643975636566000,5.85556591796875,0.08770400241613388,-0.007480455415882169,0.0015805471897125244
1772643975646606800,5.86560693359375,0.10715455281734466,-0.0012982596496120095,0.004763944732490926
1772643975656647000,5.87564697265625,0.10386427910029887,0.0022825579792261123,-0.005347124048462137
1772643975666688000,5.88568798828125,0.08949614652991295,0.002803549646027386,0.00845116361156106
1772643975676729000,5.89572900390625,0.0773725780159235,0.005273684352915734,0.0034074064238462597
1772643975686770000,5.90577001953125,0.08425590778887271,-0.0011330591505393384,-0.0015983659741934388
1772643975696811000,5.91581103515625,0.101314594617486,-0.0007972695912234484,-0.006749154599802568
1772643975706851000,5.92585107421875,0.08665361658036708,-0.0026956322921440003,0.0026532179225236176
1772643975716892000,5.935891845703125,0.08485504272580147,0.004870272917486727,0.009533844281733036
1772643975726933000,5.94593310546875,0.09697627315223216,-0.001107760312501341,-0.005492834395775571
1772643975736974000,5.95597412109375,0.09816928232908248,0.008422028848621994,-0.009312703211186452
1772643975747015000,5.966014892578125,0.08515139532387256,0.004252597676869482,-0.002183216657442972
1772643975757055000,5.976054931640625,0.0856026462227106,-0.004473839212115854,0.011478576008183881
1772643975767096000,5.986095947265625,0.0903916340649128,0.0032776882301084696,0.007783393018366769
1772643975777137200,5.99613720703125,0.09308452641069888,-0.00012284092837944627,-0.0015392013991717248
1772643975787178000,6.006177978515625,0.08904372658729552,-0.0021982589629478753,0.005181905283080414
1772643975797219000,6.016218994140625,0.09248480695188045,-0.0023525910081341863,0.004029903970053419
1772643975807259000,6.0262587890625,0.08784837932288646,0.0008909940229728817,0.00010252879271283745
1772643975817300000,6.036300048828125,0.09144377346634865,0.0062982050950638946,-0.0003498911499045789
1772643975827340800,6.0463408203125,0.08710428295731544,0.002669401872344315,0.003307754574809223
1772643975837382000,6.0563818359375,0.09174246415197848,-0.00586726633189246,0.002466883303876966
1772643975847422700,6.066422607421875,0.09443827910721302,-0.0016063574844039975,-0.001121706639463082
1772643975857462800,6.076462890625,0.09713467858433723,-0.0009445691074244678,-0.0014139584511518477
1772643975867503900,6.08650390625,0.08321838143467902,-0.0009827091607265174,0.0074801083560101685
1772643975877545000,6.096544921875,0.10206979689896106,0.005529522277507931,0.007841644277935848
1772643975887585800,6.106585693359375,0.1091004261881113,-0.0011681121976114808,0.004905536027112975
1772643975897627000,6.116626953125,0.08456044369339942,0.009432082674000412,-0.010635896372655405
1772643975907667000,6.1266669921875,0.0847094967752695,0.0009018807431682944,-0.015060306952474638
1772643975917708000,6.1367080078125,0.08650748610794544,0.004144296730495989,0.008206111942464485
1772643975927748900,6.146748779296875,0.09354162252843379,0.002191683091688901,0.014568459181766956
1772643975937790000,6.1567900390625,0.09638356795608997,0.000598459083493799,-0.004916523212008178
1772643975947831000,6.1668310546875,0.0890495718061924,0.00798988450905308,-0.0037308296919334677
1772643975957870800,6.176870849609375,0.09204173935949801,0.010265391692984849,0.009127090111747383
1772643975967912000,6.186911865234375,0.09099427613317966,-0.004699501194152981,0.0007434205121360719
1772643975977953800,6.196953857421875,0.09398761273026465,-0.0033448717148043213,0.009373593952413647
1772643975987994600,6.20699462890625,0.09578326397538185,-0.004233765112236142,0.007415135094709694
1772643975998035700,6.21703564453125,0.09069441640377045,0.0010371975606307386,0.004718845215439796
1772643976008075500,6.227075439453125,0.08515724054276942,0.005197513844165951,0.00017974048107862473
1772643976018116400,6.237116455078125,0.11523322985470294,-0.0002971928482875228,0.006457761304639279
1772643976028157400,6.247157470703125,0.09233692291378974,-0.004272982877772301,-0.008388802432455123
1772643976038198500,6.257198486328125,0.074531217110157,0.0006296214067377149,-0.0009052052114158868
1772643976048239400,6.2672392578125,0.07782265987098216,-0.0021713526897132397,0.0021742022339254615
1772643976058279400,6.277279541015625,0.09069207831621169,0.010721428364794701,0.010193705563107504
1772643976068320500,6.287320556640625,0.08739946651160717,0.00817046524034813,0.00902910962998867
1772643976078361600,6.297361572265625,0.08530395553708076,-0.007947798932995647,-0.00416475499663502
1772643976088402400,6.30740234375,0.08410568566322327,0.002876249556057155,0.0031100765782408413
1772643976098443500,6.317443603515625,0.10460486833453178,-0.003806333480402827,-0.00004205817659385502
1772643976108483600,6.327483642578125,0.09352934756875038,-0.006619929596409202,0.0025831209615338594
1772643976118524700,6.337524658203125,0.08859306021034717,-0.000056241965573281045,0.002818098761187866
1772643976128565500,6.3475654296875,0.09068798666298389,0.0011158705537207424,0.0031645649781450627
1772643976138606600,6.357606689453125,0.08350479716062545,-0.004899937403388321,0.0053590428151190275
1772643976148647400,6.3676474609375,0.09218494722247123,0.0013238872812129556,0.001410935377003625
1772643976158687500,6.3776875,0.09472586387693882,-0.010557232512719929,0.003657170800678432
1772643976168728600,6.387728515625,0.09726911861896514,-0.0008290529689751564,-0.008733579015824944
1772643976178769700,6.397769775390625,0.09128361446857453,0.003966529010795057,0.005484066567430272
1772643976188810500,6.407810546875,0.08978606938719749,-0.003466269604768604,0.0034955322318710384
1772643976198851600,6.4178515625,0.10041033925414085,0.008653280321229249,0.006933525590226054
1772643976208891600,6.4278916015625,0.08739128320515155,0.007149159368593246,0.004586003482853994
1772643976218932700,6.4379326171875,0.08933598753213882,0.010761066255439072,-0.00514319897419773
1772643976228973600,6.4479736328125,0.09562193593382835,0.005809234268032014,0.007240363049693405
1772643976239014700,6.4580146484375,0.10100888966917991,0.007454846050590276,0.01428169639594853
1772643976249055700,6.4680556640625,0.1028004492610693,0.0038175489941611883,0.006699552437569946
1772643976259095600,6.478095458984375,0.08933072683513164,0.017799020334519446,0.003904587956797331
1772643976269136600,6.48813671875,0.08529284962117671,-0.00036956396475434304,0.00190462804492563
1772643976279177700,6.498177734375,0.10444763194620608,-0.0005647394769825041,-0.0061565955341327935
1772643976289218600,6.508218505859375,0.093528178524971,-0.0036925526413135227,0.0019223098320886492
1772643976299259600,6.518259765625,0.1040028107881546,0.0028651253738440573,-0.0018711276341229677
1772643976309299500,6.528299560546875,0.09607084874510764,0.003477064993418753,0.00010330511084757744
1772643976319340500,6.538340576171875,0.09023498219847678,0.008590444218087941,0.005001598546421155
1772643976329381400,6.54838134765625,0.10220657502114772,0.0069462024087086315,0.0044890002486295995
1772643976339422500,6.55842236328125,0.09382570016682147,0.004323690151702612,0.008742483841488137
1772643976349463600,6.568463623046875,0.10220423693358897,0.007668653198052197,-0.0015878902459517121
1772643976359503600,6.578503662109375,0.10294950234293937,-0.004557206646632403,0.007343184103351086
1772643976369544400,6.58854443359375,0.0966653075069189,-0.006974843981303274,-0.004924094597110525
1772643976379585500,6.59858544921875,0.10384791248738764,-0.0011422288376837968,0.004044389153132215
1772643976389626600,6.608626708984375,0.10040741664469241,-0.0023440058428794144,0.0034074612227734174
1772643976399667500,6.61866748046875,0.10130641131103038,0.0010161730389110744,-0.0051778227630071335
1772643976409707500,6.62870751953125,0.09771686238646507,0.000206975547876209,-0.000262724323105067
1772643976419748600,6.63874853515625,0.09218085556924342,0.00786660518925637,-0.000513776474725455
1772643976429789400,6.64878955078125,0.09547405189573764,0.0018651362847536801,0.0021452592672314493
1772643976439830500,6.65883056640625,0.08589841429889201,-0.00024699703101068734,0.004938013524608686
1772643976449871600,6.66887158203125,0.09622340895831584,-0.0027704328277148305,-0.0034829467449337243
1772643976459911700,6.67891162109375,0.09652385320961475,-0.006705635118484497,-0.005421778453560545
1772643976469952500,6.688952392578125,0.09263327551186085,-0.006553659427165985,-0.0013709321601781993
1772643976479993600,6.69899365234375,0.09652209964394569,0.0006885485197417438,-0.004546027665492147
1772643976490034700,6.70903466796875,0.09682546650469302,0.0008726363823749124,0.00216929772994481
1772643976500075500,6.719075439453125,0.08979542173743248,-0.004602141766902059,0.0015302874403540043
1772643976510115600,6.729115478515625,0.10086801989376544,-0.003056738955806941,0.011811105031333863
1772643976520156700,6.73915673828125,0.08500468032956122,-0.0042108956933021545,0.013460278744157403
1772643976530197500,6.749197509765625,0.09113982208371162,0.003726126117352396,0.010044168424047529
1772643976540238600,6.759238525390625,0.09458031792640685,0.003012826748844236,0.0019664138352964073
1772643976550278700,6.769278564453125,0.10131342557370662,-0.005923142971284687,0.0020547588390298186
1772643976560319700,6.77931982421875,0.08934592440426349,-0.0019864793757908045,-0.0006594776888843625
1772643976570360600,6.789360595703125,0.08829904569983482,-0.009365337580721824,-0.007943652480840682
1772643976580401700,6.799401611328125,0.07752396918535231,0.007865911069512366,-0.009864501008205115
1772643976590442800,6.80944287109375,0.10176467647254467,0.0057733227044343945,-0.007110398260783404
1772643976600482600,6.819482666015625,0.1047562595039606,0.0005626936503686011,-0.003820051478501409
1772643976610523400,6.8295234375,0.0924871450394392,-0.0011123451560735701,-0.0045662667359225445
1772643976620564500,6.839564453125,0.10640519575476645,-0.006842047914490103,-0.007275854488182813
1772643976630605800,6.849605712890625,0.09757482356727122,0.005899597698915749,-0.001366137254051864
1772643976640646700,6.859646728515625,0.08620119663774967,0.0007131349717266857,-0.00363015492958948
1772643976650686500,6.8696865234375,0.0954804816365242,0.010244714231137186,-0.0014120404887013136
1772643976660727600,6.8797275390625,0.10416063169836998,0.00915487316781655,-0.0029344734161626546
1772643976670768400,6.889768310546875,0.09608253918290138,-0.010355170601978898,0.01082447774731554
1772643976680809500,6.8998095703125,0.09278992737829685,0.007010773811209946,0.01055001732064411
1772643976690850600,6.9098505859375,0.09937456646561622,0.0038483277249149977,0.011747967534093186
1772643976700890600,6.919890625,0.09189385532140731,0.00933046719674021,0.007444680849602445
1772643976710931500,6.929931396484375,0.09578151040971279,0.0022114107054658234,-0.000279081802861765
1772643976720972500,6.93997265625,0.10206745881140232,0.002934226820990443,0.00374289458906278
1772643976731013600,6.950013671875,0.08905132537186146,0.0018165844352915881,0.006714183751121163
1772643976741054500,6.960054443359375,0.0884521904349327,-0.006108527741860598,0.0016489088513422757
1772643976751094500,6.970094482421875,0.08845335947871208,0.011066497209109365,-0.004795216653589159
1772643976761135600,6.980135498046875,0.09339315396845341,0.002462901248503476,-0.0025264406045433134
1772643976771176700,6.9901767578125,0.09249474382400512,0.0051801791168749325,0.007196743103675544
1772643976781217500,7.000217529296875,0.09114800539016724,-0.009923446387518197,-0.0002802508466411382
1772643976791258600,7.010258544921875,0.0950403366535902,0.002428907647356391,0.007649921098118647
1772643976801298700,7.020298583984375,0.09055120854079723,0.0026106208898127076,0.00039931064904667437
1772643976811339500,7.030339599609375,0.09249708191156386,-0.011766809231881052,0.005473645638115704
1772643976821380600,7.040380615234375,0.09563830254673958,-0.012955050902068613,0.0004658365466166287
1772643976831421700,7.050421630859375,0.10147475361526012,0.0028534714686684307,-0.0020257702065631746
1772643976841462500,7.060462646484375,0.08950666792392731,0.00040041576074436306,-0.0010378642809111625
1772643976851502600,7.070502685546875,0.10970774443149565,-0.006351341788098216,-0.00042538580521941184
1772643976861543700,7.080543701171875,0.09564414776563644,-0.011072835618350655,-0.0009927921633236109
1772643976871584800,7.090584716796875,0.08891045559644699,-0.005240677132457495,-0.004884264910221099
1772643976881625600,7.10062548828125,0.09759177470207214,-0.004388225021585822,-0.004216028526145965
1772643976891666700,7.110666748046875,0.10133388383984565,-0.007541391822881996,-0.0029218331302981824
1772643976901706800,7.120706787109375,0.09130816438794136,-0.009217270879540591,0.00014599347510375083
1772643976911747600,7.13074755859375,0.08786474593579768,-0.002752020388189703,-0.001599434553273022
1772643976921788700,7.14078857421875,0.09415244790315627,0.0005892163311131298,0.0081333024345804
1772643976931829800,7.150829833984375,0.08921674506664276,0.008434979661740363,-0.0003409589247778058
1772643976941870600,7.16087060546875,0.09714695354402064,-0.00698176691243425,0.0013638722317293286
1772643976951910400,7.170910400390625,0.09804536368846893,-0.006279262932576238,0.0004843129182234406
1772643976961951500,7.180951416015625,0.09535013325512409,0.000684621263295412,0.003585137610929087
1772643976971992600,7.19099267578125,0.09894202026724815,-0.009928232160490005,0.00143368606492877
1772643976982033400,7.201033447265625,0.09699439333081245,-0.005640764099638909,-0.007732055556774139
1772643976992074500,7.211074462890625,0.09444996954500674,-0.0011384111790917813,-0.0037102983605582264
1772643977002114600,7.221114501953125,0.08591887256503104,-0.011263134026061742,0.0014074373788200319
1772643977012155600,7.23115576171875,0.0983382091552019,-0.016935243112035096,0.00424897181452252
1772643977022196500,7.241196533203125,0.08546937523186206,-0.007153177956584841,0.007894698772579431
1772643977032237600,7.251237548828125,0.07798515695631504,-0.0068058075573295355,0.008408977570803836
1772643977042278700,7.261278564453125,0.0857680659174919,0.004035721789486706,-0.0006996361693367362
1772643977052318500,7.271318359375,0.09070727588534355,0.007305044050049036,0.005247554397815838
1772643977062359600,7.281359619140625,0.09310264658927916,0.0049256381002254785,0.008008561810059472
1772643977072400600,7.291400634765625,0.09010697190463543,-0.002915047196485102,0.0015476587002631276
1772643977082441500,7.30144140625,0.09864040697216987,0.002356993188615888,0.000763714381493628
1772643977092481300,7.311481201171875,0.09968845472037792,-0.003466086941678077,0.0032448180069681253
1772643977102522400,7.3215224609375,0.09744447518587111,-0.003644110389705747,0.002517088254308328
1772643977112563500,7.3315634765625,0.09445055406689644,0.0014579071907326578,0.0033234179348219186
1772643977122604300,7.341604248046875,0.09459902262687682,-0.00779410620862618,-0.0035398645639419554
1772643977132645400,7.351645263671875,0.09744155257642269,-0.004453874136321246,0.001934913585335016
1772643977142685400,7.361685546875,0.09250351165235042,0.0007999182060360908,0.002042182485247031
1772643977152726500,7.3717265625,0.09938742594718933,-0.008483494978584348,-0.006512496299715712
1772643977162767400,7.381767333984375,0.09220482096672057,0.00003450505780056119,-0.006048157590441405
1772643977172808400,7.391808349609375,0.09310381563305854,0.007197565087582915,-0.003838600915344432
1772643977182849300,7.401849365234375,0.1050748239338398,-0.005361618364695459,-0.007580993180908263
1772643977192889300,7.411889404296875,0.09669453360140323,0.0012751162360422313,-0.0007754870176780969
1772643977202930400,7.421930419921875,0.09699322428703308,-0.0051586066058836874,-0.004923446143139153
1772643977212971500,7.431971435546875,0.09909048882722854,-0.008378719429858029,0.0046439533483237025
1772643977223012400,7.442012451171875,0.08607493990957736,-0.0010970562553964554,0.0042579314391128715
1772643977233053400,7.452053466796875,0.0986433295816183,-0.01365023009199649,0.009057075349148363
1772643977243094500,7.462094482421875,0.09744739779531955,-0.00571854204358533,0.0013376418119296432
1772643977253134600,7.472134521484375,0.09280921660065651,0.004308236854244024,-0.008101108064875006
1772643977263175400,7.482175537109375,0.10059271008372306,0.001534187297336757,0.0002763875222764909
1772643977273216500,7.492216552734375,0.09027063803374767,-0.0006074278412386775,0.005569278899161144
1772643977283257600,7.502257568359375,0.08997077830433844,-0.004944507197476924,0.003041650984529406
1772643977293297400,7.51229736328125,0.09221534236073493,-0.007159370235353708,-0.005851109781535342
1772643977303338500,7.52233837890625,0.09595745149850844,-0.010613401413056998,-0.012479578877426683
1772643977313379600,7.532379638671875,0.07725450459420681,-0.008979790595546364,0.011662152414163574
1772643977323420400,7.54242041015625,0.0869797797948122,0.008272318179626018,-0.0039441162495873865
1772643977333461500,7.55246142578125,0.09969897611439227,-0.006497125200647861,0.0038922033992595966
1772643977343501600,7.56250146484375,0.09072013536691666,0.001429831873718649,0.00020402553896419702
1772643977353542700,7.572542724609375,0.10253975249826908,-0.006446564057189971,0.005915772515581921
1772643977363583500,7.58258349609375,0.10014379727244377,-0.010569343075621872,-0.0013048811866436152
1772643977373624600,7.59262451171875,0.09759878896474837,0.00938961350545287,0.0003039148500189185
1772643977383665700,7.602665771484375,0.09101707248687743,0.005571881848201155,0.0011765603655483573
1772643977393705500,7.61270556640625,0.09819792390167713,-0.002753573024459183,0.006283619447285309
1772643977403746300,7.622746337890625,0.09236088831126689,0.004301971510238946,-0.011334199101431295
1772643977413787400,7.632787353515625,0.08966858048737049,0.0060401021481491625,-0.0024686368695460256
1772643977423828500,7.642828369140625,0.0965519102603197,-0.006383399160485715,0.008640493904892355
1772643977433869300,7.652869384765625,0.08607903156280516,-0.0037404651699587703,-0.003943120735744014
1772643977443909400,7.662909423828125,0.10074468577504157,-0.0045176052886061364,0.0030574056760873645
1772643977453950500,7.672950439453125,0.09745148944854735,0.003023256811313331,0.003769015411008149
1772643977463991300,7.6829912109375,0.09670388595163822,-0.0019604864180088042,-0.009228961317334323
1772643977474032400,7.693032470703125,0.09625614218413829,-0.0015873422566801308,0.0013317691935691982
1772643977484073500,7.703073486328125,0.0757557904690504,0.0007767017272301017,0.003657353463768959
1772643977494113500,7.713113525390625,0.09700257663726806,-0.00022949790693819523,0.009555371126951649
1772643977504154400,7.723154296875,0.09909750308990478,0.0020083258814178407,-0.0007499963833950459
1772643977514195500,7.733195556640625,0.09595160627961158,0.010629914156440644,0.00034534283895045517
1772643977524236500,7.743236572265625,0.10372983906567096,0.005008530610706657,-0.0032112810635473578
1772643977534277400,7.75327734375,0.09265782543122768,-0.003845514713320881,-0.003523497951030731
1772643977544317400,7.7633173828125,0.09549918633699417,-0.0003229666103608906,0.008714161929301916
1772643977554358500,7.773358642578125,0.1023772554129362,0.004750427663791925,-0.004108175104344264
1772643977564399400,7.7833994140625,0.08382219254672527,-0.002325173278246075,0.003929064810927957
1772643977574440400,7.7934404296875,0.08666355345249176,-0.00019596096351742742,-0.0030589857118204235
1772643977584481500,7.8034814453125,0.10088087937533854,-0.0014888320519588886,0.0031667295357678082
1772643977594521600,7.813521484375,0.10192951164543627,-0.00823527410486713,-0.005087167071178555
1772643977604562400,7.8235625,0.08696458222568035,-0.012570654694363474,0.008734693260677159
1772643977614603500,7.833603515625,0.10058335773348807,-0.016069310465082524,0.008455958517687394
1772643977624644600,7.84364453125,0.08472001816928386,-0.0003135411948896944,0.006989612292172387
1772643977634685400,7.853685546875,0.0874152486026287,-0.008297397821955382,0.004126030421443283
1772643977644725500,7.8637255859375,0.09639233578443526,-0.0045168929025530815,-0.00007264511110261083
1772643977654766600,7.8737666015625,0.10222761780917644,-0.008406831279490143,0.0025112339022569357
1772643977664807700,7.8838076171875,0.0929489173322916,0.007445493700355291,-0.002922207589633763
1772643977674848500,7.8938486328125,0.08606558755934238,0.00880395910460502,-0.006853117297776043
1772643977684888300,7.903888427734375,0.09265081116855144,0.0014600991478189826,-0.005409731822740287
1772643977694929400,7.913929443359375,0.10043079752027988,0.002267415209021419,0.0002437456279993057
1772643977704970200,7.92397021484375,0.09264905760288238,-0.0027680216749198733,0.007049772381037473
1772643977715011300,7.93401123046875,0.09085165279209613,0.005219086355157197,-0.004630445412779227
1772643977725052400,7.944052490234375,0.0962386065274477,-0.0078134867625311,-0.004159421234391629
1772643977735092500,7.954092529296875,0.09878010770380496,-0.003541070140339434,-0.00042908473280258477
1772643977745133300,7.96413330078125,0.08740881886184215,0.004202821984700858,0.0030141510562505572
1772643977755174400,7.97417431640625,0.09324702349603176,-0.0003359904887154698,-0.01244154842197895
1772643977765215500,7.984215576171875,0.08202478773593902,0.0028889994397759437,-0.0036778665288351472
1772643977775256300,7.99425634765625,0.08097732450962067,0.00811707281898707,0.002626046787807718
1772643977785296400,8.00429638671875,0.08367021685540675,0.001548782078269869,0.004584989702701568
1772643977795337500,8.01433740234375,0.09175006293654442,0.012313318932428955,0.004943118957988917
1772643977805378600,8.024378662109376,0.10132453148961067,-0.005435633448977023,0.00035209224014542994
1772643977815419400,8.03441943359375,0.08935586127638816,-0.0030667306268587708,0.008322029939712957
1772643977825460500,8.04446044921875,0.0927963571190834,0.0005483728640712797,-0.0006086242844816297
1772643977835500500,8.05450048828125,0.09190028506219386,-0.002351495029591024,-0.001823461700649932
1772643977845541400,8.064541259765624,0.0936976898729801,0.004796093436423689,0.013388099423935635
1772643977855582500,8.07458251953125,0.08651450037062168,0.0009162563283927739,0.0024765370482113212
1772643977865623600,8.08462353515625,0.09265139569044113,0.008045761148445308,-0.000820394738484174
1772643977875664400,8.094664306640626,0.0814332515835762,-0.004156151565071195,0.0014241236521396784
1772643977885704400,8.104704345703125,0.09609832127392291,-0.012546342237014323,0.007968302864907309
1772643977895745500,8.11474560546875,0.10043781178295612,-0.0007314560797065496,-0.0011199074080213904
1772643977905786600,8.12478662109375,0.11195640014111995,0.0020868710103444754,0.010821792599884793
1772643977915827500,8.134827392578124,0.0969920552432537,0.013776103227678686,0.009930533715430647
1772643977925868500,8.14486865234375,0.1023772554129362,-0.0005309833378531038,-0.002943286910280585
1772643977935908600,8.15490869140625,0.09339724562168121,-0.006314224648103117,0.0045576541712041944
1772643977945949400,8.164949462890625,0.0975847604393959,-0.00822137344367802,0.014066893734643236
1772643977955990500,8.174990478515625,0.09997954662144183,-0.0049506812099367374,-0.001175464387005195
1772643977966031600,8.185031494140626,0.09309738589227198,0.0017603242034092545,-0.01244680911898613
1772643977976071400,8.195071533203125,0.09339783014357089,-0.006330974853504449,-0.0077331332690082485
1772643977986112500,8.205112548828126,0.08337444877922534,-0.008180109851527959,-0.003882531388616189
1772643977996153600,8.215153564453125,0.08831365874707699,-0.0025358934194780886,0.00926721096849069
1772643978006194700,8.225194580078124,0.09280395590364933,-0.005124302477482706,0.009894202026724815
1772643978016235500,8.235235595703125,0.09654489599764346,0.004913874597195536,-0.003758631014311686
1772643978026275600,8.245275634765624,0.084274027967453,0.00828388075325638,-0.006874233151040971
1772643978036316700,8.255316650390625,0.09070727588534355,0.007448946032766252,0.0007208524873014539
1772643978046357500,8.265357421875,0.10282850631177425,0.00444444872085005,0.009376936686970294
1772643978056398600,8.275398681640626,0.09713935475945472,0.001844842415396124,0.015644363051280377
1772643978066439700,8.285439697265625,0.09249825095534324,0.006571761339437216,0.005133189036836848
1772643978076479700,8.295479736328126,0.09040215545892714,0.000612177081592381,-0.0014047704976983368
1772643978086520600,8.3055205078125,0.09564064063429832,-0.0018126754451543092,-0.0020175686337985097
1772643978096561700,8.315561767578124,0.08726210386753082,0.0011631254952400923,0.004374899749131873
1772643978106602800,8.325602783203125,0.08591361186802386,0.011093275618180631,-0.009832571499980985
1772643978116643600,8.3356435546875,0.08965338291823863,0.0015566731237806378,-0.005527649980830028
1772643978126683600,8.34568359375,0.09369476726353168,0.0022778270051814612,0.005849374482175335
1772643978136724700,8.355724853515625,0.0989309143513441,0.002786287983972579,-0.007672342992480844
1772643978146765800,8.365765869140626,0.08800503118932247,-0.0007279124157503247,-0.0032161855675280093
1772643978156806700,8.375806640625,0.09189736245274543,0.00042445422345772384,0.008906971954507752
1772643978166847700,8.38584765625,0.0989309143513441,-0.0018550532821565865,0.0036811909970827397
1772643978176887600,8.395887451171875,0.0886094268232584,-0.0028905338097363707,0.007792918898537755
1772643978186928400,8.405928466796874,0.08576748139560222,-0.006834211667906493,0.0001746441808529198
1772643978196969500,8.415969482421875,0.0832236421316862,-0.012080624421406536,0.004393449185974896
1772643978207010600,8.426010498046875,0.10387363145053385,-0.0005450849284417927,-0.0012993464950006453
1772643978217050600,8.436050537109375,0.08576923496127128,0.0019337628078646956,-0.004278800697205588
1772643978227091500,8.446091552734375,0.08442074296176433,0.00737332351328805,0.0064970612685661755
1772643978237132500,8.456132568359376,0.09848317058384418,-0.0032974341101944444,0.005010110646439716
1772643978247173600,8.466173583984375,0.09234978239536284,0.008936919568199664,0.008704024127777665
1772643978257214500,8.47621435546875,0.09474515309929847,-0.005119918563310057,-0.009031420318083837
1772643978267254500,8.486254638671875,0.09309797041416168,-0.004764693651162087,-0.012401700468780473
1772643978277295600,8.496295654296874,0.08411912966668605,0.008866649077273905,0.0013778824907727538
1772643978287336700,8.506336669921875,0.09833587106764316,-0.0003090659491717815,-0.010989787844242527
1772643978297377500,8.51637744140625,0.10177753595411777,-0.0072349562222138045,0.009446549590770155
1772643978307418600,8.526418701171876,0.09324702349603176,0.0073145973296836015,-0.007745618291245773
1772643978317458700,8.536458740234375,0.10147709170281886,0.008244480324629693,-0.007816628567688166
1772643978327499500,8.54649951171875,0.09414601816236973,0.0019000432013534009,0.0017895959636662153
1772643978337540600,8.55654052734375,0.09474456857740879,-0.00913611366841942,-0.0033657409728970375
1772643978347581700,8.566581787109374,0.08531856858432292,0.010583883057627827,0.0013998385942541062
1772643978357622500,8.57662255859375,0.10148118335604667,-0.0015841273862868546,0.0025607903987169265
1772643978367662600,8.58666259765625,0.09160743959546089,0.01092239429699257,0.005237334397900849
1772643978377703700,8.59670361328125,0.09744272162020205,-0.005674282776750624,-0.0014824388437904416
1772643978387744800,8.606744873046875,0.08891571629345417,0.0038173297984525558,-0.0032704182391054925
1772643978397785600,8.61678564453125,0.0920645357131958,0.01202549670068547,-0.00019024360878393054
1772643978407826700,8.62682666015625,0.09565408463776111,0.0018599486529827117,0.0009472359885461628
1772643978417866800,8.63686669921875,0.10268763653635977,0.0048337950983084734,-0.0006956175813451409
1772643978427907600,8.646907470703125,0.09251227948069572,0.0012398622595705092,0.00006882745251059532
1772643978437948700,8.65694873046875,0.08577800278961659,0.00393266327381134,-0.001668773462437093
1772643978447989800,8.66698974609375,0.08413140462636948,-0.00621938597150147,0.009062692239182069
1772643978458030600,8.677030517578125,0.08891805438101291,-0.0037589324084110554,0.002020957034127787
1772643978468070400,8.6870703125,0.09445289215445518,-0.002201382501795888,-0.0009604699294548481
1772643978478111500,8.697111572265625,0.09370411961376666,-0.002616886233817786,-0.0029596352568827568
1772643978488152600,8.707152587890626,0.08891513177156447,0.009673051823023707,0.007947598003596066
1772643978498193700,8.717193603515625,0.08068564808666706,-0.007583751393575221,0.008182228743378072
1772643978508233500,8.7272333984375,0.09370295056998729,-0.00740545395091176,-0.005280716881901026
1772643978518274600,8.737274658203125,0.09041150780916213,-0.003236315040104091,-0.012144519970472901
1772643978528315600,8.747315673828124,0.08801730614900588,0.014882256104983388,0.01011611028225161
1772643978538356500,8.7573564453125,0.0944517231106758,0.009505458437465131,0.0014280509085860102
1772643978548397600,8.7673974609375,0.08876374060213565,-0.0016451551248319446,-0.0029464835143648087
1772643978558437600,8.777437744140625,0.09430033194124698,0.0003014123656786978,0.000801087249815464
1772643978568478500,8.787478515625,0.09160977768301963,-0.001113349803071469,-0.006003916589915752
1772643978578519600,8.79751953125,0.09115911130607128,-0.0019474077407270669,-0.009450860439706592
1772643978588560600,8.807560546875,0.08921148436963558,0.0065041211970150465,-0.004985122335655614
1772643978598601500,8.8176015625,0.10551964509189128,0.01849567909548059,-0.010095122293150053
1772643978608641500,8.8276416015625,0.10133096123039721,-0.0008562332368455827,0.005351781957270577
1772643978618682600,8.8376826171875,0.1017804585635662,0.0000402406788431108,0.00981450612032786
1772643978628723700,8.8477236328125,0.09744213709831237,-0.004020396356191486,0.0007723726119846105
1772643978638764500,8.8577646484375,0.10193068068921565,-0.003109218061715364,0.007391589822340756
1772643978648805600,8.8678056640625,0.08262976789176464,0.00026707170465961095,0.0007927578128874302
1772643978658845700,8.877845703125,0.09220540548861027,-0.002531947896722704,-0.0002654825357720256
1772643978668886800,8.88788671875,0.09220423644483089,0.0036486221680417656,0.0038949433456175026
1772643978678927600,8.897927734375,0.09430091646313667,-0.006256411779951304,-0.0023271551727782934
1772643978688968700,8.90796875,0.08891279368400573,0.005467617756128311,0.006054925257945433
1772643978699008800,8.9180087890625,0.09968611663281916,-0.0037542927659116685,0.0028280630327761173
1772643978709049600,8.928049560546874,0.0990881507396698,-0.01484188756197691,0.01132449055816978
1772643978719090700,8.938090576171875,0.0919078838467598,-0.003499605618789792,-0.0058368894599378105
1772643978729131800,8.9481318359375,0.08831541231274605,0.00042861894192174077,0.003462826405512169
1772643978739172600,8.958172607421876,0.0987871219664812,-0.007746540739852935,-0.009928460489353164
1772643978749212400,8.96821240234375,0.0898076966971159,-0.004123948062211275,-0.00947538295960985
1772643978759253800,8.978253662109376,0.09280220233798027,-0.00865362738110125,-0.00038558351779356594
1772643978769294800,8.988294921875,0.0917588307648897,-0.0005122603710740805,-0.010506296909926459
1772643978779335700,8.998335693359374,0.0862216549038887,0.005463142510410398,-0.009704524673521519
1772643978789376800,9.008376708984375,0.08712006504833698,-0.0011187018316239118,-0.0024218020531348882
1772643978799416600,9.01841650390625,0.08846738800406455,-0.004863715312536806,0.0062432509042788294
1772643978809457700,9.028457763671875,0.0960989057958126,-0.010536609849799424,-0.0072470576519612214
1772643978819498500,9.03849853515625,0.08966273526847363,0.006250950153544545,0.010909160356083884
1772643978829539600,9.04853955078125,0.09310615372061729,-0.0035260552342981097,0.006997348074056208
1772643978839580400,9.058580322265625,0.10283201344311237,0.004582140158489346,-0.00485088323042728
1772643978849620500,9.068620361328126,0.08995674977898598,-0.0004775361175648868,-0.0035539935539942234
1772643978859661600,9.07866162109375,0.08112462402582168,0.0022974450211040672,-0.005588750784611329
1772643978869702700,9.08870263671875,0.08351941020786761,0.004659826770890504,0.0017647537833545355
1772643978879743500,9.098743408203125,0.09115034347772598,0.008871727111190556,0.0031016192771494387
1772643978889783600,9.108783447265624,0.10147475361526012,0.021008465634007007,0.013134426056966185
1772643978899824600,9.11882470703125,0.10371873314976691,-0.007849946315400301,0.006244356015976518
1772643978909865700,9.12886572265625,0.09414017294347286,-0.00688968644849956,0.004298738373536616
1772643978919906600,9.138906494140626,0.09518588260412215,-0.0038441082075238225,0.004915043640974909
1772643978929947600,9.14894775390625,0.08830255283117294,-0.005939747046213597,0.0008746639426797628
1772643978939987700,9.15898779296875,0.09054594784379005,0.005151683674752712,0.0033095355399418622
1772643978950028500,9.169028564453125,0.08440846800208092,0.001206964636966586,-0.005852269692160189
1772643978960069600,9.179069580078124,0.09488485383093356,0.00162345474967733,-0.00294760689237155
1772643978970110700,9.18911083984375,0.09099427613317966,-0.0025443872531875967,0.009003646395169198
1772643978980151300,9.1991513671875,0.08216565751135349,0.005355462618544697,0.0005187723102513701
1772643978990191000,9.209191162109375,0.09458616314530371,0.002956767446361482,-0.003079781904676929
1772643979000232200,9.219232177734375,0.09233750743567944,-0.0014248817039653658,0.0037218883336521684
1772643979010273300,9.229273193359376,0.09473229361772537,-0.00010912293028086423,-0.0038925504591315985
1772643979020314000,9.239314208984375,0.10116787962317467,0.009271046893391758,0.005387255129450932
1772643979030355200,9.249355224609374,0.09518354451656341,0.0010072225474752486,0.002381342178583145
1772643979040395000,9.25939501953125,0.08665361658036708,-0.015137509507685899,0.005996390870586037
1772643979050436000,9.26943603515625,0.09278700476884841,-0.005805434875749051,-0.0004372497729491442
1772643979060477000,9.279476806640625,0.08156301544308663,0.004535122678987682,-0.0008306056052446365
1772643979070518000,9.28951806640625,0.10295943921506404,-0.009060381551086903,0.0031409557736944405
1772643979080559000,9.29955908203125,0.09592354922890663,-0.0038834355709142982,0.001942832030309364
1772643979090599200,9.30959912109375,0.10295593208372593,-0.0055202795251272615,-0.0020817107780370862
1772643979103150000,9.322150146484375,0.10924480309486388,0.009066153704747558,0.005888190388912334
1772643979113191200,9.332191162109375,0.10774667349159717,0.0016204590749926864,-0.00453983538672328
1772643979123232000,9.34223193359375,0.09517653025388717,0.006725344465952366,0.0040029520310461515
1772643979133272000,9.35227197265625,0.10056289946734905,0.005507292179390787,0.006924785161344334
1772643979143313200,9.362313232421876,0.10101181227862835,-0.005724843920208513,0.009777051053615286
1772643979153354200,9.372354248046875,0.1014624786555767,0.012662753424607216,0.0014622911049053072
1772643979163395000,9.38239501953125,0.0861994430720806,0.005594696468207985,-0.007920755662443116
1772643979173436200,9.392436279296875,0.08919161062538623,0.0005786949370987713,0.0031975082665216177
1772643979183476200,9.402476318359374,0.0864963801920414,0.006840604876074939,-0.001309995753178373
1772643979193517300,9.412517333984376,0.10115969631671905,0.002892396973259747,0.009045631506526841
1772643979203558100,9.42255810546875,0.08694178587198256,0.003006561404839158,0.004748792829131708
1772643979213599200,9.43259912109375,0.07960486711263656,-0.008222213693894446,0.008640238176565616
1772643979223640300,9.442640380859375,0.09471826509237288,0.008406246757600455,0.009226011308422311
1772643979233680100,9.45268017578125,0.0876852977156639,0.00950240796385333,-0.000897031038114801
1772643979243721000,9.462720947265625,0.08409633331298827,-0.007268146105762571,-0.007248181029967963
1772643979253762000,9.472761962890624,0.09771160168945789,-0.00698912823498249,-0.002315236406121403
1772643979263803000,9.482802978515625,0.08050386177897453,-0.006206197696365416,0.0016278569301590323
1772643979273844000,9.492843994140625,0.10609072297811507,-0.0010930011347867548,-0.011226765804737806
