time,seconds_elapsed,z,y,x
1772643969844279000,0.063279052734375,0.00047984556294977665,0.0002686603111214936,-0.0009980392642319202
1772643969854320000,0.073320068359375,0.001293990178965032,-0.0007109622238203883,0.0007908468833193183
1772643969864360200,0.083360107421875,-0.00008952198550105095,-0.00032826606184244156,-0.0005593758542090654
1772643969874401000,0.093401123046875,-0.0006012092344462872,0.0008633175166323781,-0.002028191462159157
1772643969884442000,0.103442138671875,0.0009471526718698442,0.0010065955575555563,-0.0009602638892829418
1772643969894483200,0.113483154296875,-0.0007521428633481264,-0.0003520321333780885,-0.0013618015218526125
1772643969904524000,0.12352392578125,0.001009804429486394,0.000119347358122468,0.00041532586328685284
1772643969914563800,0.133563720703125,-0.0016027084784582257,0.00011374137829989195,0.0006504596676677465
1772643969924605000,0.14360498046875,0.0006085141794756055,0.00013531290460377932,0.0010925444075837731
1772643969934646000,0.15364599609375,0.00045244640205055475,-0.00045947544276714325,-0.0007960214279592037
1772643969944686800,0.163686767578125,0.0004465874517336488,-0.00008530134800821543,-0.0008623339235782623
1772643969954728000,0.17372802734375,-0.0012626574607566,0.00034130498534068465,-0.0002538152039051056
1772643969964768000,0.18376806640625,-0.0008013979531824589,0.00008058152161538601,0.00011183670721948147
1772643969974809300,0.193809326171875,0.0004972386523149908,-0.0002591707743704319,0.0004885729867964983
1772643969984850400,0.203850341796875,0.000861026463098824,-0.0006296164356172085,0.0006587489042431116
1772643969994891500,0.2138916015625,0.0023232316598296165,-0.001028441940434277,0.00005181599408388138
1772643970004932400,0.223932373046875,0.0015043097082525492,-0.0005488067399710417,-0.0008070534095168114
1772643970014972400,0.233972412109375,-0.000052269198931753635,0.00014256429858505726,-0.0003107227385044098
1772643970025013500,0.244013427734375,0.0006683821557089686,0.0006008942727930844,0.0007958207279443741
1772643970035054300,0.254054443359375,0.0004940549843013287,0.0008471922483295202,0.0004933909513056278
1772643970045095400,0.264095458984375,-0.00043379038106650114,-0.000783993978984654,0.00043293717317283154
1772643970055136500,0.274136474609375,0.0002808084827847779,0.00012927991338074207,-0.00003069732338190079
1772643970065176300,0.28417626953125,0.00029945059213787317,-0.00035861122887581587,0.00011843978427350521
1772643970075217200,0.294217041015625,0.0005556538235396147,0.00039477343671023846,0.00021275924518704414
1772643970085258200,0.30425830078125,-0.0005879075033590198,0.0009148888057097793,-0.0006786007434129715
1772643970095299300,0.31429931640625,-0.0000250150915235281,0.00061967340297997,0.0007714640814810991
1772643970105340200,0.324340087890625,0.0015230805147439241,0.0008769347332417965,0.000036697834730148315
1772643970115380200,0.334380126953125,0.0009074632544070482,0.00002111413050442934,0.0005242801271378994
1772643970125421300,0.34442138671875,-0.000294953933916986,0.0007036823080852628,0.00023719132877886295
1772643970135462400,0.35446240234375,-0.0013450353872030973,-0.00044657697435468435,-0.0009520219173282385
1772643970145503200,0.364503173828125,-0.000038754893466830254,-0.0011515156365931034,-0.000004202825948596001
1772643970155544300,0.37454443359375,0.0017141008283942938,0.00041832117130979896,-0.0002798105124384165
1772643970165584400,0.38458447265625,-0.000021747429855167866,0.0010678662220016122,-0.0008726301603019238
1772643970175625200,0.394625244140625,-0.001071039936505258,-0.00037951942067593336,-0.0005367102567106485
1772643970185666300,0.404666259765625,0.00008690252434462309,0.0009355494985356927,-0.0007502958178520203
1772643970195707400,0.414707275390625,-0.0003750500036403537,-0.00023551913909614086,-0.00005365069955587387
1772643970205748200,0.424748291015625,-0.001622474635951221,0.00032560888212174177,-0.0008355549070984125
1772643970215788300,0.434788330078125,0.0001278074341826141,-0.0011508220341056585,-0.0005043214187026024
1772643970225829400,0.444829345703125,-0.00027938990388065577,-0.0005143265007063746,-0.0009456072002649307
1772643970235870500,0.454870361328125,-0.00029856408946216106,0.0007652650820091367,0.001247610431164503
1772643970245911300,0.464911376953125,-0.001780346967279911,0.0002267739619128406,0.0013341631274670362
1772643970255952400,0.474952392578125,0.0009038624120876193,-0.00047844345681369305,-0.0008161801379173994
1772643970265992400,0.484992431640625,0.00008041301043704152,0.0007700464921072125,-0.00010671396739780903
1772643970276033300,0.495033203125,0.00008959887782111764,0.0006709943409077823,-0.0005243166815489531
1772643970286074400,0.505074462890625,0.00037482340121641755,0.0009335819631814957,0.0007236406672745943
1772643970296115500,0.515115478515625,-0.000047531560994684696,-0.00046664150431752205,-0.000020020874217152596
1772643970306156300,0.52515625,0.00006325589492917061,0.0002113993396051228,0.0004465649835765362
1772643970316197400,0.535197265625,-0.0004916002508252859,0.0010578205110505223,0.000706968829035759
1772643970326237400,0.545237548828125,0.0008423771359957755,0.0006231925799511373,0.001275287359021604
1772643970336278500,0.555278564453125,0.00022890698164701462,0.0008559274720028043,0.0007100371876731515
1772643970346319400,0.5653193359375,0.0006118695018813014,0.000295864709187299,0.0009467921918258071
1772643970356360400,0.5753603515625,0.0010443596402183175,0.0012873054947704077,-0.0005791911389678717
1772643970366401500,0.585401611328125,-0.0002920145634561777,-0.00003095925785601139,0.00040191737934947014
1772643970376441300,0.59544140625,-0.00009125215001404285,0.000055811600759625435,0.0021312511526048183
1772643970386482200,0.605482177734375,0.0009891922818496823,0.00045768258860334754,0.0003197689075022936
1772643970396523300,0.615523193359375,-0.0011936122318729758,0.0006454052054323256,0.00016547995619475842
1772643970406564400,0.625564453125,0.0009869839996099472,0.0007929443381726742,-0.0011911340989172459
1772643970416605200,0.635605224609375,-0.0013418655144050717,0.0007195952348411083,-0.0006985808722674847
1772643970426645200,0.645645263671875,-0.000023867003619670868,-0.00009692995809018612,0.0015872102230787277
1772643970436686300,0.655686279296875,-0.0017457014182582498,0.0014777268515899777,-0.00006109965033829212
1772643970446727200,0.66572705078125,-0.0009384973673149943,-0.000055721262469887733,0.0012893894454464316
1772643970456768300,0.675768310546875,0.0002500027767382562,0.0007524953689426184,0.0005434369668364525
1772643970466809300,0.685809326171875,-0.0012661347864195704,-0.0005199629813432693,-0.00038707139901816845
1772643970476849400,0.695849365234375,-0.001203051651827991,-0.00027811527252197266,-0.00013139075599610806
1772643970486890200,0.70589013671875,0.00012480036821216345,-0.0006253913743421435,-0.00030396366491913795
1772643970496931300,0.715931396484375,0.0009345685830339789,0.0005278048920445144,0.0005652130348607898
1772643970506972400,0.725972412109375,0.00032097630901262164,-0.0010282800067216158,-0.0007040495984256268
1772643970517013200,0.73601318359375,-0.00026556418742984533,0.0000904458574950695,-0.0008492725901305676
1772643970527053300,0.74605322265625,-0.0004003201611340046,0.00001214898657053709,-0.0005845543928444386
1772643970537094400,0.756094482421875,0.000391419162042439,-0.0011116028763353825,0.00033937604166567326
1772643970547135200,0.76613525390625,0.0018518967553973198,0.0016974994214251637,-0.0006763534620404243
1772643970557176300,0.77617626953125,0.0002467201557010412,0.0004438654868863523,0.0006736854556947947
1772643970567217400,0.786217529296875,0.0009335493668913841,0.000633216230198741,-0.0004341895692050457
1772643970577257500,0.796257568359375,-0.001597440685145557,0.00008610892109572887,-0.0004545520059764385
1772643970587298300,0.80629833984375,-0.00007011776324361563,0.00011327327229082584,-0.000735515495762229
1772643970597339400,0.81633935546875,0.000641490682028234,-0.0009932366665452719,-0.0003101855982095003
1772643970607380500,0.82638037109375,-0.0007444183574989438,0.0006880168220959604,-0.000928038964048028
1772643970617421300,0.83642138671875,0.0008410473819822073,0.0003129517426714301,-0.0014187069609761238
1772643970627461400,0.84646142578125,0.0009190780110657215,-0.0008433926850557327,-0.00011082855053246021
1772643970637502500,0.85650244140625,0.0003828529152087867,0.0011605949839577079,-0.0012559513561427593
1772643970647543600,0.86654345703125,-0.00005949812475591898,0.0003920066519640386,-0.0004862977657467127
1772643970657584400,0.87658447265625,-0.0004658430116251111,0.0001399763859808445,0.0016441484913229942
1772643970667625500,0.88662548828125,0.0006950289243832231,0.0013437251327559352,-0.0010184799320995808
1772643970677665300,0.896665283203125,-0.0006484480109065771,-0.0008198396535590291,-0.0003714186605066061
1772643970687706000,0.9067060546875,-0.001126485294662416,0.00028643751284107566,-0.0014697061851620674
1772643970697747200,0.916747314453125,0.0006191425491124392,0.00012547930236905813,-0.001332167536020279
1772643970707788300,0.926788330078125,-0.0023345693480223417,0.0008503918070346117,-0.0008384175598621368
1772643970717829000,0.9368291015625,0.00008499034447595477,-0.0005658030277118087,-0.0001521543599665165
1772643970727869200,0.946869140625,-0.0015664359088987112,0.00012075988342985511,-0.00035482109524309635
1772643970737910300,0.95691015625,0.0006575565785169601,0.000013203010894358158,-0.0018102489411830902
1772643970747951400,0.966951416015625,0.00030282349325716496,-0.00010903598740696907,0.0005426540737971663
1772643970757992200,0.9769921875,-0.001279907883144915,-0.00028830720111727715,0.0005877463845536113
1772643970768033300,0.987033203125,-0.000042869593016803265,0.00047309050569310784,-0.0005574128590524197
1772643970778073300,0.9970732421875,-0.00034655979834496975,0.000133513065520674,-0.0008103579748421907
1772643970788114400,1.007114501953125,-0.0004283188609406352,0.0008254023268818855,-0.00020608678460121155
1772643970798155300,1.0171552734375,-0.00018399616237729788,0.0001330770319327712,0.00038713542744517326
1772643970808196400,1.0271962890625,-0.0018058611312881112,0.0009442758746445179,-0.0005012950859963894
1772643970818237200,1.0372373046875,0.0006785721052438021,0.00028014450799673796,0.000021152431145310402
1772643970828277200,1.04727734375,-0.0007872317219153047,0.0004931974108330905,-0.0002504901494830847
1772643970838318300,1.057318359375,0.0002624723711051047,-0.0012142079649493098,-0.0010971787851303816
1772643970848359400,1.067359375,-0.000799063709564507,0.0006401512073352933,0.0004019145853817463
1772643970858400300,1.077400146484375,-0.000050502363592386246,-0.0003859141143038869,0.00025294069200754166
1772643970868441300,1.08744140625,-0.000020408653654158115,-0.0005595522234216332,0.00014268583618104458
1772643970878481400,1.0974814453125,-0.0006789081962779164,-0.0003444879548624158,0.000446358579210937
1772643970888522500,1.1075224609375,0.0013906342210248113,-0.0010004244977608323,-0.00019519682973623276
1772643970898563300,1.117563232421875,0.000442554650362581,0.0005815710173919797,-0.0006052972748875618
1772643970908604400,1.1276044921875,-0.0002959398552775383,0.0015632121358066797,-0.0005999710410833359
1772643970918645500,1.1376455078125,0.0014153328957036138,-0.0006007379852235317,0.0001513517927378416
1772643970928685300,1.147685302734375,-0.00031731976196169853,0.0001081954687833786,0.00041820062324404716
1772643970938726400,1.157726318359375,-0.0008024898124858737,-0.00024077785201370716,0.0006074036937206984
1772643970948767500,1.167767578125,-0.0005484243156388402,-0.00036621280014514923,0.00007849978283047676
1772643970958808300,1.177808349609375,-0.0007280141580849886,-0.000991443288512528,-0.0012027248740196228
1772643970968849400,1.187849365234375,-0.0008289479883387685,0.00045545215834863484,0.0009757408406585455
1772643970978889500,1.197889404296875,-0.0005230210954323411,0.00017684843624010682,0.0002795357722789049
1772643970988930600,1.2079306640625,-0.0002804071409627795,0.00036753073800355196,0.0009077755967155099
1772643970998971400,1.217971435546875,0.0003111492842435837,-0.0005271125119179487,0.0005659363232553005
1772643971009012700,1.2280126953125,0.000684258178807795,0.0005067266174592078,-0.000364039558917284
1772643971019053800,1.2380537109375,0.00006120535545051098,-0.0008042523404583335,-0.00044302595779299736
1772643971029093400,1.24809326171875,0.0016093009617179632,-0.00007348088547587395,0.0010922864312306046
1772643971039134500,1.258134521484375,0.00040772976353764534,-0.00048012437764555216,-0.00022847275249660015
1772643971049175600,1.268175537109375,-0.0016072179423645139,0.0004168282321188599,-0.0010175674688071012
1772643971059216400,1.27821630859375,-0.0009851165814325213,-0.0017402826342731714,-0.00006242259405553341
1772643971069257500,1.288257568359375,0.00030411971965804696,-0.0001517070340923965,-0.0004981157835572958
1772643971079297500,1.298297607421875,-0.00021837966050952673,-0.00037787004839628935,-0.0006470950320363045
1772643971089338600,1.308338623046875,-0.0016929719131439924,0.00043173087760806084,-0.0008052866905927658
1772643971099379500,1.31837939453125,-0.00037841429002583027,0.0004753462562803179,0.0005184455076232553
1772643971109420500,1.328420654296875,0.00034756335662677884,-0.0006730087916366756,0.0006867572665214539
1772643971119461600,1.338461669921875,0.000624540145508945,-0.0005132126971147954,-0.00004533608444035053
1772643971129501700,1.348501708984375,0.0004921811050735414,-0.00027512613451108336,0.00030913064256310463
1772643971139542500,1.35854248046875,0.001636928180232644,0.00034010864328593016,-0.0008083938155323267
1772643971149583600,1.36858349609375,0.0005130741628818214,0.0008210755186155438,-0.0014632651582360268
1772643971159624700,1.378624755859375,-0.0004425799706950784,-0.0004760264419019222,0.0007222318090498447
1772643971169665500,1.38866552734375,0.0008658310398459435,-0.0006406097672879696,-0.0006301214452832937
1772643971179705600,1.39870556640625,0.0010367525974288583,0.00040919912862591445,-0.0011206688359379768
1772643971189746700,1.40874658203125,-0.00027671840507537127,-0.0007122580427676439,0.0002942685969173908
1772643971199787500,1.41878759765625,0.00008729018736630678,-0.0016478926409035921,0.0012094432022422552
1772643971209828600,1.42882861328125,-0.00006584159564226866,-0.00010485714301466942,0.0017761638155207038
1772643971219869700,1.43886962890625,0.0004067476256750524,0.0007639985415153205,0.0006220327923074365
1772643971229909800,1.44890966796875,0.0013537677004933357,-0.0011252479162067175,-0.0010080880019813776
1772643971239950600,1.45895068359375,0.0015798464883118868,0.0018530862871557474,0.0007492753211408854
1772643971249991700,1.46899169921875,-0.0005195233970880508,0.0011718497844412923,-0.00015859631821513176
1772643971260032800,1.47903271484375,-0.0001741877058520913,-0.0005682367482222617,-0.0010287733748555183
1772643971270073600,1.489073486328125,0.0006439352873712778,0.0009974356507882476,0.0015334539348259568
1772643971280113700,1.49911376953125,-0.0008752545109018683,0.002481263829395175,0.00009227916598320007
1772643971290154800,1.50915478515625,0.0013974871253594756,0.0005185140180401504,-0.0003777686506509781
1772643971300195600,1.519195556640625,0.0009788803290575743,-0.0005522476276382804,0.0010043043876066804
1772643971310236700,1.529236572265625,-0.0006869270000606775,-0.0007985900156199932,-0.00048280484043061733
1772643971320277800,1.53927783203125,0.0013537509366869926,0.00046177959302440286,-0.0006459604483097792
1772643971330317600,1.549317626953125,-0.0005863618571311235,0.0009616549359634519,-0.0005426297429949045
1772643971340358400,1.5593583984375,-0.0007871773559600115,0.00005319708725437522,0.0006833432707935572
1772643971350399500,1.5693994140625,0.00040112517308443785,0.0011610720539465547,-0.0005283951759338379
1772643971360440600,1.579440673828125,-0.000020061037503182888,0.0006234465399757028,-0.0006661843508481979
1772643971370481400,1.5894814453125,-0.00029862765222787857,-0.00012117333244532347,0.0006859024288132787
1772643971380521500,1.599521484375,0.00000794045627117157,-0.0007888618856668472,0.0003288609441369772
1772643971390562600,1.6095625,0.0025635098572820425,0.00039917422691360116,0.00006281118839979172
1772643971400603600,1.619603759765625,-0.0006651541916653514,-0.00045930128544569016,0.0019374705152586102
1772643971410644500,1.62964453125,-0.0004723413148894906,0.0005508357426151633,-0.0009352813940495253
1772643971420685600,1.639685546875,0.00010091951116919518,-0.0010051627177745104,0.0013454848667606711
1772643971430725600,1.6497255859375,0.0004702999140135944,0.0004667664470616728,0.0009926160564646125
1772643971440766500,1.659766357421875,-0.0008009353186935186,-0.00015784107381477952,-0.0003020328003913164
1772643971450807600,1.6698076171875,-0.0003926727222278714,-0.00013813370605930686,0.000395715469494462
1772643971460848600,1.6798486328125,-0.0013389975065365434,0.0003413683152757585,0.0003784054424613714
1772643971470889500,1.689889404296875,-0.00007479498162865639,0.001568552921526134,-0.00022506690584123135
1772643971480929500,1.699929443359375,-0.0003146744566038251,0.0001467327820137143,-0.0012111114338040352
1772643971490970600,1.709970703125,0.0005180959706194699,-0.00012171390699222684,-0.0004374631680548191
1772643971501011700,1.72001171875,0.0003631032886914909,0.0008626828202977777,0.0008012419566512108
1772643971511052500,1.730052490234375,-0.0003735270584002137,0.0006363141001202166,0.00016847485676407814
1772643971521093600,1.74009375,-0.00038504181429743767,-0.0002643840853124857,0.0015106454957276583
1772643971531133700,1.7501337890625,-0.0007765265181660652,-0.00106892513576895,-0.000706968829035759
1772643971541174500,1.760174560546875,-0.00009094364941120148,-0.00030932354275137186,0.0001385570503771305
1772643971551215600,1.770215576171875,-0.0013309112982824445,-0.0004219752736389637,-0.0010665233712643385
1772643971561256700,1.780256591796875,-0.00007843517232686281,-0.00026488472940400243,0.00037901103496551514
1772643971571297500,1.790297607421875,-0.0010270531056448817,0.0002072937204502523,0.0007750231306999922
1772643971581337600,1.800337646484375,-0.0001765929628163576,-0.001021008938550949,0.00014897342771291733
1772643971591378700,1.810378662109375,-0.0009182833600789309,-0.00005827622953802347,-0.00026914291083812714
1772643971601419800,1.820419677734375,0.0006878359126858413,0.0009080169256776571,0.00015673460438847542
1772643971611460600,1.830460693359375,0.001198630197905004,0.0000310379546135664,-0.0007769698277115822
1772643971621501700,1.840501708984375,-0.0009138396708294749,0.0004981927340850234,-0.0003350921906530857
1772643971631541500,1.85054150390625,0.00173733732663095,-0.0014152884250506759,0.001119260094128549
1772643971641582600,1.86058251953125,0.0005847845459356904,-0.00018624367658048868,-0.0008095451630651951
1772643971651623400,1.87062353515625,0.0008644164772704244,0.001065441989339888,-0.0011078191455453634
1772643971661664500,1.88066455078125,0.0002036916557699442,0.0015821559354662895,0.0013992865569889545
1772643971671705600,1.89070556640625,0.0023736353032290936,-0.001174215693026781,-0.0005352336447685957
1772643971681745400,1.900745361328125,0.0011756818275898695,0.0006791124469600618,0.0008392262971028686
1772643971691786500,1.910786376953125,-0.0005330023122951388,0.0001840307959355414,-0.00010885903611779213
1772643971701827600,1.92082763671875,0.0011759469052776694,0.0003493645344860852,-0.0009170060511678457
1772643971711868400,1.930868408203125,0.00004223920404911041,-0.00045597535790875554,0.0011424162657931447
1772643971721909500,1.940909423828125,-0.0004635605728253722,0.0003354954533278942,-0.001119028776884079
1772643971731949600,1.950949462890625,-0.0008987211622297764,0.000021775078494101763,0.0003805970773100853
1772643971741990700,1.96099072265625,-0.0003323195269331336,-0.000720467243809253,0.0007076619658619165
1772643971752031500,1.971031494140625,-0.0010961140505969524,-0.000709015701431781,-0.0004090014845132828
1772643971762072600,1.981072509765625,0.000415214104577899,0.00020938378293067217,0.00008794385939836502
1772643971772113700,1.99111376953125,-0.0001808013767004013,0.0012043407186865807,0.000008048955351114273
1772643971782153700,2.00115380859375,0.0004021083586849272,0.0003129109973087907,0.0008848201250657439
1772643971792194600,2.011194580078125,0.0002865271526388824,-0.00007431261474266648,0.0008387474808841944
1772643971802235600,2.021235595703125,0.000986016821116209,-0.0004684042069129646,-0.0005566079635173082
1772643971812276500,2.0312763671875,0.0007098470814526081,-0.00032033241586759686,-0.00029215612448751926
1772643971822317600,2.041317626953125,0.00045197794679552317,-0.0005886646686121821,-0.0010299847926944494
1772643971832357600,2.051357666015625,0.0005963212461210787,0.0006606241222470999,-0.0006299780216068029
1772643971842398700,2.061398681640625,-0.000715019297786057,-0.00005576619878411293,0.0002645778004080057
1772643971852439600,2.071439453125,-0.00003305962309241295,-0.00028607796411961317,0.0002627507783472538
1772643971862480600,2.081480712890625,0.00013139465590938926,0.000060754246078431606,-0.00036097108386456966
1772643971872521700,2.091521728515625,0.0004264728631824255,-0.00004683749284595251,-0.000537272309884429
1772643971882561800,2.101561767578125,-0.0010826746001839638,0.0003018779680132866,0.0004142913967370987
1772643971892602600,2.1116025390625,-0.0012302137911319733,-0.0002853490295819938,0.0005865979474037886
1772643971902643700,2.121643798828125,0.0011159857967868447,0.0005956723471172154,-0.00005090143531560898
1772643971912684800,2.131684814453125,-0.001575671136379242,0.0000880738371051848,0.001305446494370699
1772643971922725600,2.1417255859375,-0.00010918255429714918,0.0005801094812341034,-0.00019864807836711407
1772643971932765400,2.151765380859375,0.0004010791308246553,-0.0007996743079274893,0.0004892463330179453
1772643971942806500,2.161806640625,-0.0012285190168768167,0.00090133206686005,-0.0006821970455348492
1772643971952847400,2.171847412109375,0.0001288940547965467,-0.0012534316629171371,0.0014392770826816559
1772643971962888400,2.181888427734375,0.00006814359221607447,0.00029391248244792223,0.0006610383279621601
1772643971972929300,2.19192919921875,-0.000686063664034009,-0.001322626369073987,-0.0012303385883569717
1772643971982969300,2.20196923828125,-0.00011633581016212702,0.00017723417840898037,-0.0010185998398810625
1772643971993010200,2.21201025390625,0.0008253579726442695,-0.0005546025349758565,-0.0001235113013535738
1772643972003051300,2.22205126953125,0.0008132950169965625,0.0008280036272481084,-0.001055882778018713
1772643972013092400,2.23209228515625,-0.0018163102213293314,-0.00042741053039208055,0.00007649348117411137
1772643972023133200,2.24213330078125,0.0007177335792221129,-0.0009140065521933138,-0.0015932426322251558
1772643972033173200,2.25217333984375,0.00006499281153082848,0.00017868843860924244,0.00013221940025687218
1772643972043214300,2.26221435546875,-0.0012730954913422465,0.0006021666340529919,0.00021810224279761314
1772643972053255400,2.27225537109375,0.0010744809405878186,0.00005035969661548734,-0.000026642344892024994
1772643972063296300,2.282296142578125,0.0005880729295313358,0.0003387969918549061,0.00010315096005797386
1772643972073337300,2.29233740234375,0.0003169631236232817,-0.0004961040103808045,-0.001100864028558135
1772643972083377400,2.30237744140625,0.000458679161965847,0.0001786385546438396,0.001259573269635439
1772643972093418200,2.312418212890625,-0.00015784264542162418,0.00028836081037297845,-0.0009388660546392202
1772643972103459300,2.322459228515625,0.0010188904125243425,-0.0005708560347557068,0.00008944072760641575
1772643972113500400,2.33250048828125,0.0006260741502046585,0.0011229143710806966,-0.0005060420371592045
1772643972123541200,2.342541259765625,0.003045111894607544,-0.0003755189245566726,0.0001753459218889475
1772643972133581000,2.3525810546875,0.0010469421977177262,0.0002015880891121924,-0.0017487879376858473
1772643972143622100,2.3626220703125,0.0017316224984824657,-0.0009036976844072342,-0.0005269329994916916
1772643972153663200,2.372663330078125,0.0008277456508949399,0.000030272873118519783,0.00028027105145156384
1772643972163704000,2.3827041015625,-0.0003807517932727933,0.000974286871496588,-0.0004899061750620604
1772643972173745200,2.3927451171875,0.0002701246994547546,-0.000023333239369094372,-0.0004864439833909273
1772643972183785200,2.40278515625,-0.00017167063197121024,0.0007512595620937645,-0.00024059531278908253
1772643972193826300,2.412826416015625,-0.000022267282474786043,0.0005331466672942042,-0.0005351409781724215
1772643972203867100,2.4228671875,-0.001122168730944395,-0.0001135215861722827,0.00003653368912637234
1772643972213908200,2.432908203125,0.000514077371917665,-0.000016049889381974936,0.0007531903684139252
1772643972223949300,2.44294921875,0.000016994948964565992,0.000455081753898412,-0.0003928516525775194
1772643972233989000,2.452989013671875,-0.00035717920400202274,0.0009871813235804439,0.001360040856525302
1772643972244030200,2.4630302734375,-0.00019566703122109175,0.0008453531772829592,0.0006159227341413498
1772643972254071300,2.4730712890625,0.0008938321843743324,-0.00041671888902783394,-0.0005326985847204924
1772643972264112000,2.483112060546875,-0.00014111603377386928,0.00040394836105406284,0.0006402344442903996
1772643972274153200,2.4931533203125,-0.0013888070825487375,-0.0007324224570766091,0.00029695313423871994
1772643972284193300,2.503193359375,-0.0009855444077402353,-0.0004960887599736452,-0.0010238750837743282
1772643972294234400,2.513234375,-0.000570623844396323,-0.000346685410477221,0.000035264063626527786
1772643972304275200,2.523275146484375,0.0008581363945268095,0.0013241779524832964,-0.0015119691379368305
1772643972314316300,2.53331640625,-0.00004520779475569725,-0.00012138590682297945,0.00036529311910271645
1772643972324357400,2.543357421875,-0.00037844228791072965,-0.0004808247904293239,0.0006580865010619164
1772643972334397400,2.5533974609375,-0.0005803099484182894,-0.00020864972611889243,-0.00015790597535669804
1772643972344438300,2.563438232421875,0.0004233038052916527,-0.0012046517804265022,-0.00033378018997609615
1772643972354479400,2.573479248046875,0.0005575271206907928,0.00020282866898924112,0.00025158259086310863
1772643972364520200,2.583520263671875,0.0006066550267860293,-0.00004568666918203235,-0.0005459117237478495
1772643972374561300,2.593561279296875,-0.0005488905590027571,-0.0005788514390587807,-0.0005080949049443007
1772643972384601300,2.603601318359375,-0.0013415785506367683,-0.00021753524197265506,0.001196463592350483
1772643972394642400,2.613642333984375,-0.0006656682235188782,-0.00005747930845245719,-0.0008453819900751114
1772643972404683300,2.623683349609375,-0.001478563528507948,0.000024233770091086626,-0.000006226124241948128
1772643972414724400,2.633724365234375,-0.000044717686250805855,-0.0001864222576841712,-0.00024191569536924362
1772643972424765400,2.643765380859375,0.0007760294829495251,-0.0002802064409479499,0.00028708623722195625
1772643972434805200,2.65380517578125,-0.00006260001100599766,-0.00030976743437349796,-0.0008338382467627525
1772643972444846000,2.66384619140625,0.00013866240624338388,0.00038087437860667706,-0.0010778263676911592
1772643972454887200,2.67388720703125,-0.0011247412767261267,0.0009113760315813124,0.0003501607570797205
1772643972464928300,2.68392822265625,0.0001477493206039071,0.00020851480076089501,0.00042036199010908604
1772643972474969000,2.693968994140625,0.001372803351841867,0.0013880288461223245,0.000056840479373931885
1772643972485009200,2.704009033203125,0.0006821377901360393,0.0010929277632385492,0.00039397645741701126
1772643972495050200,2.71405029296875,0.0008435253985226154,-0.00035316869616508484,-0.00043666339479386806
1772643972505091000,2.724091064453125,0.00048344675451517105,-0.0010710344649851322,-0.00043894024565815926
1772643972515132200,2.734132080078125,-0.0001679624547250569,-0.0008587805787101388,-0.00014013354666531086
1772643972525173200,2.74417333984375,-0.0019095874158665538,-0.00029082526452839375,0.00024914834648370743
1772643972535214000,2.754214111328125,-0.0008493829518556595,0.0016175960190594196,0.00045474444050341845
1772643972545254100,2.764254150390625,-0.00019723386503756046,-0.000991354463621974,0.000531872152350843
1772643972555295200,2.774295166015625,0.00006455491529777646,-0.0002467346494086087,0.000582472188398242
1772643972565336300,2.78433642578125,0.00020300905453041196,-0.0002133580856025219,0.0008611151715740561
1772643972575377200,2.794377197265625,-0.00011284177890047431,0.0006886545452289283,-0.0006401087157428265
1772643972585417200,2.804417236328125,0.0000264314585365355,-0.0009531077812425792,0.0009574138093739748
1772643972595458300,2.814458251953125,0.0007462838548235595,0.0005007118452340364,0.00020027696155011654
1772643972605499400,2.82449951171875,-0.000946430373005569,-0.00026212818920612335,-0.000880545936524868
1772643972615540200,2.834540283203125,0.0005872840993106365,0.0011525430018082261,-0.000728745711967349
1772643972625581300,2.844581298828125,0.0006856646505184472,-0.0009860097197815776,0.0004208118189126253
1772643972635622100,2.8546220703125,-0.000900514074601233,-0.001034745597280562,0.001559046795591712
1772643972645662200,2.864662109375,0.0006507632788270712,-0.00031298305839300156,0.0004576698411256075
1772643972655703300,2.874703369140625,0.00022359227295964956,0.0005064716096967459,0.00012903590686619282
1772643972665744400,2.884744384765625,-0.000012570526450872421,0.0008867005817592144,-0.00036001461558043957
1772643972675785200,2.89478515625,0.0003006171900779009,0.0003561988705769181,-0.0005592191591858864
1772643972685826300,2.904826416015625,-0.00032062147511169314,-0.00037146254908293486,0.0004302185261622071
1772643972695866400,2.914866455078125,0.00011666951468214393,0.0005870091263204813,0.00013008015230298042
1772643972705907500,2.924907470703125,0.00010415236465632915,0.00003607093822211027,-0.000012987526133656502
1772643972715948300,2.9349482421875,-0.0008133066003210843,0.00008613837417215109,0.0003611864522099495
1772643972725989400,2.9449892578125,0.0002465922152623534,-0.0005296412855386734,-0.0002718146424740553
1772643972736030500,2.955030517578125,0.00005644251359626651,-0.000763200456276536,0.0004206072771921754
1772643972746070300,2.9650703125,-0.0013105819234624505,-0.0004925846005789936,-0.0008196602575480938
1772643972756111000,2.975111083984375,0.000634058378636837,0.0007500463398173451,-0.0003938209265470505
1772643972766152200,2.985152099609375,-0.00039953726809471846,-0.000055601412896066904,-0.0005203564651310444
1772643972776193000,2.995193115234375,0.00092272215988487,-0.0002888943417929113,-0.0017840263899415731
1772643972786234000,3.005234130859375,0.00081727682845667,0.0002871058532036841,0.0011964843142777681
1772643972796274200,3.015274169921875,-0.0006748923333361745,0.0008335864986293018,-0.0009556161239743233
1772643972806315300,3.025315185546875,-0.00010377884609624743,-0.000010222429409623146,0.0011159601854160428
1772643972816356000,3.035356201171875,-0.0006965984939597547,-0.0005468493909575045,0.00038598780520260334
1772643972826397200,3.045397216796875,0.0011616547126322985,0.000119771808385849,0.00012034270912408829
1772643972836438300,3.055438232421875,-0.0010772647801786661,0.0014297807356342673,0.0005507095484063029
1772643972846478300,3.065478271484375,0.0019521956564858556,0.00011901045218110085,0.00024112267419695854
1772643972856519200,3.075519287109375,-0.002895290032029152,-0.000886066525708884,0.000796391861513257
1772643972866560300,3.085560302734375,0.0005703679053112864,0.0005506841116584837,0.0005622042808681726
1772643972876601300,3.095601318359375,-0.0006858451524749398,-0.00030712009174749255,-0.0006902804598212242
1772643972886642200,3.10564208984375,0.0004887874238193035,-0.0010485106613487005,-0.0002671030815690756
1772643972896682200,3.11568212890625,-0.0008800774230621755,-0.00022532761795446277,-0.000991482986137271
1772643972906723300,3.125723388671875,0.0019827750511467457,0.00017689535161480308,-0.0006063058972358704
1772643972916764200,3.13576416015625,-0.0009245977271348238,-0.0012321830727159977,0.0005313965957611799
1772643972926805200,3.14580517578125,0.00045177253196015954,-0.0003286137362010777,0.001589171588420868
1772643972936846300,3.155846435546875,0.00031994603341445327,0.00006819720147177577,-0.0008811766747385263
1772643972946886400,3.165886474609375,-0.0004160854732617736,-0.00045691203558817506,0.00017597340047359467
1772643972956927200,3.17592724609375,-0.0008754807058721781,-0.0012292289175093174,0.0014931729529052973
1772643972966968300,3.18596826171875,-0.0008062059641815722,0.000011062482371926308,0.00048322940710932016
1772643972977009400,3.196009521484375,0.0007797064026817679,-0.00040385802276432514,-0.0015695351175963879
1772643972987050500,3.206050537109375,-0.00021189928520470858,-0.00018043129239231348,0.0007203462300822139
1772643972997090600,3.216090576171875,-0.002848428674042225,-0.00011571648065000772,0.0009839992271736264
1772643973007131600,3.226131591796875,-0.00100992014631629,0.000038103258702903986,-0.000528865959495306
1772643973017172500,3.23617236328125,0.000977597082965076,-0.0011853529140353203,0.00005756202153861523
1772643973027213600,3.246213623046875,-0.0018611714476719499,-0.0003481963649392128,-0.0003720747772604227
1772643973037254700,3.256254638671875,-0.00033171800896525383,0.0008784555830061436,0.0007248811889439821
1772643973047294700,3.266294677734375,-0.00018061255104839802,0.0002685782965272665,0.000399275217205286
1772643973057335600,3.27633544921875,-0.0006064519984647632,-0.0008134641102515161,0.00032364134676754475
1772643973067376600,3.286376708984375,-0.00047242455184459686,-0.00039044220466166735,-0.0003524869680404663
1772643973077417700,3.296417724609375,0.0005659419111907482,-0.0006330561591312289,0.00003367150202393532
1772643973087458600,3.30645849609375,-0.000438471557572484,0.00024347734870389104,-0.0001972957979887724
1772643973097498600,3.31649853515625,0.0009711396414786577,0.00020885624689981341,0.00023147324100136757
1772643973107539700,3.326539794921875,0.0003132428973913193,-0.0005090897320769727,-0.000020415987819433212
1772643973117580500,3.33658056640625,-0.0008843806572258472,-0.00034850119845941663,-0.0009237602353096008
1772643973127621600,3.34662158203125,-0.0005047731101512909,-0.00004374899435788393,-0.00045911455526947975
1772643973137662700,3.356662841796875,-0.00001128931762650609,0.0011117965914309025,0.00026526511646807194
1772643973147702800,3.366702880859375,-0.0003057519788853824,0.0006503883050754666,0.00019481382332742214
1772643973157743600,3.37674365234375,0.0017763073556125164,0.00048766916734166443,0.0023495773784816265
1772643973167784700,3.38678466796875,-0.0005644955672323704,0.00015962921315804124,0.0005253833951428533
1772643973177825800,3.39682568359375,0.001448055263608694,-0.0003240008372813463,0.0007027499377727509
1772643973187866600,3.40686669921875,0.0007221472333185375,-0.00021332257892936468,-0.0014096677768975496
1772643973197906700,3.41690673828125,-0.0007433902937918901,0.0002764327800832689,-0.0007140501402318478
1772643973207947800,3.42694775390625,-0.00012941670138388872,0.00026429793797433376,0.00022920453920960426
1772643973217988600,3.436988525390625,0.000031438248697668314,-0.000526128220371902,-0.0011500467080622911
1772643973228029700,3.44702978515625,-0.000073487579356879,-0.0011098862159997225,-0.0008493517525494099
1772643973238070800,3.45707080078125,-0.00040585006354376674,-0.0007378426380455494,-0.00006238766945898533
1772643973248110600,3.467110595703125,0.0007993453182280064,0.0004987264983355999,-0.00010679429396986961
1772643973258151400,3.4771513671875,-0.0013876424636691809,0.00017994613153859973,-0.0004564675036817789
1772643973268192500,3.487192626953125,0.00109752151183784,-0.00022825319319963455,0.0005292044952511787
1772643973278233600,3.497233642578125,-0.0007001122576184571,0.0008303532958962023,-0.00018052803352475166
1772643973288274400,3.5072744140625,-0.0008041395340114832,0.0005229184171184897,0.00009341584518551826
1772643973298314500,3.517314453125,-0.0000973365968093276,0.00004541361704468727,-0.0004456080496311188
1772643973308355600,3.52735546875,0.0006468906649388373,0.0007481807842850685,0.00031718541868031025
1772643973318396700,3.537396728515625,-0.001472186530008912,-0.00042973534436896443,-0.00009720236994326115
1772643973328437500,3.5474375,-0.0012311693280935287,-0.0017171151703223586,-0.000505850650370121
1772643973338478600,3.557478515625,-0.0007587244617752731,-0.0006718244403600693,0.000285374466329813
1772643973348518700,3.5675185546875,-0.00008996558608487248,0.000028666167054325342,0.0011721162591129541
1772643973358559500,3.5775595703125,-0.0004345786292105913,0.00046755513176321983,-0.0016588238067924976
1772643973368600600,3.5876005859375,0.00009560456965118647,-0.00010213849600404501,0.001497530727647245
1772643973378641700,3.5976416015625,0.0005352924345061183,-0.00008935527876019478,0.000227735610678792
1772643973388682500,3.6076826171875,0.00011528533650562167,-0.001025031553581357,0.0009738556109368801
1772643973398722600,3.61772265625,-0.0004120205412618816,-0.00009345769649371505,-0.0004671807400882244
1772643973408763600,3.627763671875,0.000625523563940078,-0.0009965123608708382,-0.0007354884874075651
1772643973418804700,3.6378046875,-0.0009958089794963598,-0.0012175546726211905,-0.0016510833520442247
1772643973428845600,3.647845458984375,-0.0005275183939374983,-0.0008887549629434943,-0.0009837234392762184
1772643973438886700,3.65788671875,0.000901533814612776,0.0010265904711559415,0.001305263489484787
1772643973448926700,3.6679267578125,0.0007514288299717009,-0.0006283043185248971,-0.0006933677941560745
1772643973458967800,3.6779677734375,0.0006550223915837705,0.0013275211676955223,-0.0012696757912635803
1772643973469008600,3.688008544921875,0.000004585541319102049,0.00040228088619187474,0.0008777334587648511
1772643973479049700,3.6980498046875,0.0002746300888247788,0.0006097411387600005,-0.0003728868905454874
1772643973489090600,3.708090576171875,0.0014035393251106143,-0.00040263915434479713,0.0006709712324663997
1772643973499130600,3.718130615234375,-0.0008731971029192209,-0.0000782661372795701,-0.0003998859319835901
1772643973509171700,3.728171630859375,-0.0012672038283199072,0.00008185137994587421,0.0003026870544999838
1772643973519212800,3.738212890625,0.0007549342117272317,0.00010368932271376252,0.0020092406775802374
1772643973529253600,3.748253662109375,-0.0005838593933731318,-0.0006571258418262005,-0.0003555384464561939
1772643973539294700,3.758294677734375,-0.0000070187379606068134,0.0007599421660415828,-0.00043836282566189766
1772643973549334500,3.76833447265625,-0.0003030872903764248,0.000670113367959857,0.00012526079080998898
1772643973559375600,3.778375732421875,0.0003973240382038057,-0.0005243143532425165,0.001374815939925611
1772643973569416400,3.78841650390625,0.000056230463087558746,-0.0005256551085039973,0.0012564215576276183
1772643973579457500,3.79845751953125,-0.00018611719133332372,0.0005457346560433507,-0.0011771749705076218
1772643973589498600,3.80849853515625,-0.0012470303336158395,0.0008292206912301481,-0.0002920175902545452
1772643973599538700,3.81853857421875,0.00013674813089892268,0.0007607774459756911,-0.0003756408113986254
1772643973609579500,3.82857958984375,-0.00015839177649468184,0.000024908920750021935,-0.0002971622161567211
1772643973619620600,3.83862060546875,-0.001277452101930976,-0.0013852347619831562,-0.0010870560072362423
1772643973629661400,3.848661376953125,0.00029179902048781514,-0.000662561971694231,0.000707184080965817
1772643973639702500,3.85870263671875,-0.00004482455551624298,0.0003307971637696028,-0.00008856854401528835
1772643973649742600,3.86874267578125,-0.0000795070081949234,0.0002442042459733784,-0.0007250003982335329
1772643973659783700,3.87878369140625,0.00014286692021414638,0.0012170569971203804,-0.000820341520011425
1772643973669824500,3.888824462890625,0.0012504142941907048,0.00011703773634508252,-0.0005100921262055635
1772643973679865600,3.898865478515625,0.00035852158907800913,-0.00040121341589838266,0.00026755104772746563
1772643973689906700,3.90890673828125,0.0011904332786798477,0.0001876532332971692,0.000844030873849988
1772643973699946800,3.91894677734375,-0.0001842905767261982,-0.001916244043968618,-0.00041351374238729477
1772643973709987600,3.928987548828125,-0.0005235924036242068,-0.0006785496370866895,-0.000553998863324523
1772643973720028700,3.939028564453125,-0.000043690844904631376,0.00009376701200380921,-0.0006128547247499228
1772643973730069800,3.94906982421875,0.00014939141692593694,-0.0003493343247100711,0.00023597711697220802
1772643973740110600,3.959110595703125,-0.00032039021607488394,0.00012311042519286275,0.0004461004864424467
1772643973750150700,3.969150634765625,-0.0002473341883160174,-0.0008956443052738905,0.00009260629303753376
1772643973760191700,3.979191650390625,0.0020339295733720064,0.0003310077008791268,0.0011046073632314801
1772643973770232600,3.989232666015625,0.0007482587825506926,0.00028148601995781064,0.00018140231259167194
1772643973780273700,3.999273681640625,-0.00038065516855567694,0.00007802050095051527,0.00018140231259167194
1772643973790314800,4.009314697265625,-0.0002958491095341742,-0.00042866833973675966,0.0002321670763194561
1772643973800354800,4.019354736328125,-0.00026655435794964433,-0.00008272379636764526,0.001038305927067995
1772643973810395600,4.029395751953125,0.0005605056649073958,0.0011753393337130547,0.00007148855365812778
1772643973820436700,4.039436767578125,-0.0010499078780412674,0.00007119280053302646,-0.0012851255014538765
1772643973830477800,4.049477783203125,0.001213259412907064,-0.00008084322325885296,-0.0008510393090546131
1772643973840518700,4.0595185546875,-0.00016466015949845314,-0.0007208008319139481,-0.0014113683719187975
1772643973850558500,4.069558349609375,-0.00035904895048588514,-0.00031786749605089426,-0.0010818794835358858
1772643973860599600,4.079599609375,-0.0006141797639429569,0.0013777671847492456,0.0003351885825395584
1772643973870640600,4.089640625,-0.00035033910535275936,-0.0005530720809474587,0.0008112165378406644
1772643973880681500,4.099681396484375,0.0007799065206199884,-0.00020925793796777725,-0.00027162465266883373
1772643973890722600,4.10972265625,0.0006672341260127723,-0.0006337298545986414,0.0005838435608893633
1772643973900762600,4.1197626953125,0.00039559172000736,-0.0005836624186486006,-0.0008023318368941545
1772643973910803500,4.129803466796875,0.0020255439449101686,0.0008015678613446653,0.0002486053854227066
1772643973920844500,4.139844482421875,-0.000037873280234634876,-0.0012298915535211563,0.00001211673952639103
1772643973930885600,4.1498857421875,0.000682807294651866,-0.00025064958026632667,-0.0006945240311324596
1772643973940926500,4.159926513671875,0.0010479267220944166,-0.00004212412750348449,-0.0001616254448890686
1772643973950966500,4.169966552734375,0.001204648637212813,0.000041128601878881454,0.00005011400207877159
1772643973961007600,4.180007568359375,0.001151651726104319,-0.0006188027327880263,-0.0001600093673914671
1772643973971048700,4.190048583984375,0.00010400696191936731,-0.00023727602092549205,-0.0007593964692205191
1772643973981089800,4.20008984375,0.0005452927434816957,0.0009805875597521663,-0.0008515417575836182
1772643973991131000,4.210130859375,0.0005139303975738585,0.0008770705317147076,-0.0003885081969201565
1772643974001171000,4.2201708984375,0.000854282348882407,0.0008517705136910081,-0.0004263250157237053
1772643974011211800,4.230211669921875,0.0012570277322083712,-0.0006539960158988833,-0.0015847014728933573
1772643974021252900,4.2402529296875,-0.0005691017722710967,-0.0012904915492981672,-0.0016566067934036255
1772643974031294000,4.2502939453125,-0.0009700923692435026,-0.001022334210574627,0.0005689737154170871
1772643974041334800,4.260334716796875,0.0002661470789462328,0.00016969669377431273,0.00023501331452280283
1772643974051374800,4.270374755859375,-0.00032294809352606535,0.0012847778853029013,0.0006120888283476233
1772643974061416000,4.280416015625,-0.001845211023464799,0.00033615995198488235,-0.0002752766013145447
1772643974071457000,4.29045703125,0.001232470734976232,0.0005279849283397198,0.000017810147255659103
1772643974081497900,4.300497802734375,-0.0017606558976694942,0.00008803076343610883,0.0005104949232190847
1772643974091539000,4.3105390625,-0.0007058890769258142,-0.00041059195064008236,-0.0006791739724576473
1772643974101578800,4.320578857421875,0.00106777623295784,-0.0006649239221587777,0.00014773744624108076
1772643974111619600,4.33061962890625,0.0007979224901646376,-0.0005602043820545077,0.00011452264152467251
1772643974121661000,4.340660888671875,0.00006075948476791382,0.000646740198135376,0.0003888282226398587
1772643974131702000,4.350701904296875,0.0002027948503382504,0.00005800509825348854,-0.00003083888441324234
1772643974141742800,4.360742919921875,-0.00021878350526094437,0.0009634798625484109,-0.00035467930138111115
1772643974151784000,4.370783935546875,0.0008100768318399787,-0.00028373999521136284,-0.000010951422154903412
1772643974161823700,4.38082373046875,-3.2316893339157104e-7,-0.0008960007689893246,0.000659632496535778
1772643974171864800,4.39086474609375,-0.000011141295544803143,-0.0004808272933587432,-0.0014923829585313797
1772643974181905700,4.40090576171875,0.00023120635887607932,-0.000403063022531569,-0.00019595609046518803
1772643974191946800,4.41094677734375,-0.0010582312243059278,0.00032032490707933903,-0.00009954511187970638
1772643974201986800,4.42098681640625,-0.0008912509074434638,-0.00044586649164557457,0.0007177791558206081
1772643974212028000,4.43102783203125,0.00019826454808935523,-0.0014284751377999783,0.0003223108360543847
1772643974222068700,4.44106884765625,0.0007564631523564458,-0.000666544830892235,-0.001289434265345335
1772643974232109800,4.45110986328125,0.00012540922034531832,-0.000752009975258261,0.0006328783929347992
1772643974242150700,4.461150634765625,-0.0016740887658670545,0.0005641242023557425,0.00005923351272940636
1772643974252191700,4.471191650390625,0.0003281664103269577,0.0014110845513641834,0.00034312542993575335
1772643974262231800,4.481231689453125,0.0003654506872408092,0.0006717910291627049,-0.00044783344492316246
1772643974272273000,4.49127294921875,-0.00022128468845039606,-0.0006352944765239954,-0.0019694280344992876
1772643974282313700,4.501313720703125,0.00041148235322907567,0.00010053685400635004,-0.0016759475693106651
1772643974292354800,4.511354736328125,0.0005374658503569663,-0.0007904692320153117,-0.00034423358738422394
1772643974302396000,4.52139599609375,0.000911640003323555,-0.0010405400535091758,0.0007535215700045228
1772643974312436000,4.53143603515625,-0.0011968081817030907,0.0007769929943606257,0.0004327434580773115
1772643974322476800,4.541476806640625,0.00018750305753201246,-0.0002810809528455138,-0.000016265548765659332
1772643974332518000,4.551517822265625,-0.0003775694640353322,0.0001568291336297989,-0.0005736916791647673
1772643974342559000,4.56155908203125,-0.00039221683982759714,0.0005211496027186513,-0.00044772401452064514
1772643974352599800,4.571599853515625,-0.000056835589930415154,0.0014837300404906273,-0.0004211519844830036
1772643974362640000,4.581639892578125,0.0010254731168970466,0.00133113085757941,0.0000390420900657773
1772643974372681000,4.591680908203125,-0.00011349527630954981,0.0003738446393981576,-0.0012386413291096687
1772643974382721800,4.6017216796875,-0.0009673046879470348,-0.0012328404700383544,-0.0017116186209022999
1772643974392763000,4.611762939453125,-0.0003421725705265999,-0.0008420248632319272,-0.0006996153388172388
1772643974402804000,4.621803955078125,-0.0009280680678784847,-0.00031365378526970744,-0.00199950416572392
1772643974412844000,4.631843994140625,-0.0003537670709192753,-0.00021501537412405014,0.0005835606716573238
1772643974422884900,4.641884765625,0.00033652427373453975,-0.0001319247530773282,-0.00046758889220654964
1772643974432926000,4.651926025390625,-0.00034834828693419695,0.0001548751606605947,-0.000250483863055706
1772643974442967000,4.661967041015625,0.0009254416800104082,0.00045474708895199,-1.4668330550193787e-7
1772643974453008000,4.6720078125,0.0005641317693516612,0.0005979427369311452,-0.0008783049415796995
1772643974463047700,4.682047607421875,-0.00026970391627401114,0.0014536164235323668,0.0002351626753807068
1772643974473088800,4.6920888671875,-0.0002408043947070837,-0.000030336668714880943,-0.0008513405919075012
1772643974483129900,4.7021298828125,0.00011446129065006971,0.00010814768029376864,-0.0020990315824747086
1772643974493170700,4.712170654296875,-0.00006435613613575697,0.0008296120213344693,-0.000597408739849925
1772643974503211800,4.722211669921875,0.00012472830712795258,-0.00021674390882253647,-0.001427782466635108
1772643974513251800,4.732251953125,0.0001183908898383379,-0.0010452247224748135,-0.00030087283812463284
1772643974523292700,4.742292724609375,-0.001029697828926146,-0.0009408287587575614,-0.00041032861918210983
1772643974533333800,4.752333740234375,0.00005553348455578089,-0.0010409783571958542,-0.0005181271117180586
1772643974543374800,4.762374755859375,0.0011423694668337703,-0.0010953068267554045,-0.001888057217001915
1772643974553415700,4.772415771484375,0.000608486239798367,-0.00045403873082250357,-0.00022009806707501411
1772643974563455700,4.782455810546875,0.000032178242690861225,-0.0009350056061521173,-0.0010182475671172142
1772643974573496800,4.792496826171875,-0.0011819147039204836,-0.0009674918837845325,-0.0010117280762642622
1772643974583538000,4.802537841796875,0.0006857601692900062,0.0004935181932523847,-0.0019049523398280144
1772643974593578800,4.812578857421875,0.00004407379310578108,-0.0010774991242215037,-0.0012423458974808455
1772643974603619800,4.822619873046875,-0.0010813780827447772,-0.0014522060519084334,-0.0005709631368517876
1772643974613660000,4.832659912109375,0.0007610830944031477,0.0005051280022598803,0.00015054631512612104
1772643974623700700,4.84270068359375,0.00004123058170080185,-0.0006666628760285676,-0.0004124459810554981
1772643974633741800,4.852741943359375,0.0017374837771058083,0.00010454643052071333,-0.0011691316030919552
1772643974643783000,4.862782958984375,-0.0009661574149504304,-0.0012395509984344244,-0.001456752885133028
1772643974653823700,4.87282373046875,-0.001371036283671856,-0.0013901804341003299,-0.001259183743968606
1772643974663863800,4.88286376953125,-0.000830414704978466,0.000013039098121225834,-0.0008024515118449926
1772643974673905000,4.89290478515625,0.0004325277986936271,-0.0006175620947033167,-0.000007522525265812874
1772643974683946000,4.902946044921875,0.000004824134521186352,0.0007254700176417828,-0.0015976959839463234
1772643974693986800,4.91298681640625,0.0007068752311170101,-0.0006547860684804618,0.0003784662112593651
1772643974704028000,4.92302783203125,-0.0017171339131891727,-0.0002526487805880606,-0.0006867982447147369
1772643974714068000,4.93306787109375,-0.0003201565705239773,-0.0007380758761428297,-0.0005495611112564802
1772643974724109000,4.943109130859375,-0.0017601277213543653,-0.00013566884445026517,-0.00046141049824655056
1772643974734150000,4.95314990234375,0.00037173269083723426,0.0003382892464287579,0.0003510926617309451
1772643974744191000,4.96319091796875,-0.0016714443918317556,0.0005047368467785418,-0.0006840780843049288
1772643974754231800,4.973231689453125,0.0012137142475694418,0.0007768801879137754,0.00033342628739774227
1772643974764271600,4.983271728515625,-0.0005772615550085902,-0.0004790665698237717,-0.0008213203400373459
1772643974774312700,4.993312744140625,-0.00028698681853711605,0.00042223179480060935,-0.0007448673713952303
1772643974784353800,5.003353759765625,-0.0013224238064140081,-0.0008310517878271639,0.0008287944365292788
1772643974794394600,5.01339453125,-0.0018189777620136738,-0.0006052769022062421,-0.00029212329536676407
1772643974804435700,5.023435791015625,-0.0005409268196672201,-0.00031525862868875265,-0.0002521758433431387
1772643974814475800,5.033475830078125,0.0003734133788384497,0.00038798816967755556,-0.0003841184079647064
1772643974824516900,5.043516845703125,0.0006168263498693705,0.00015016784891486168,-0.0006174114532768726
1772643974834557700,5.0535576171875,0.00025585771072655916,-0.00018170836847275496,-0.00004016398452222347
1772643974844598800,5.063598876953125,0.0004790305974893272,0.0005804883548989892,0.0006389421178027987
1772643974854639900,5.073639892578125,-0.0003038509748876095,0.00032494007609784603,-0.00005356571637094021
1772643974864680000,5.083679931640625,0.0021806121803820133,-0.000133389956317842,-0.0008573075756430626
1772643974874720800,5.093720703125,0.00019268086180090904,0.000781043607275933,0.0007068089907988906
1772643974884761900,5.103761962890625,-0.00009866897016763687,0.0006601361092180014,-0.0005834926851093769
1772643974894802700,5.113802734375,0.0008951330091804266,-0.0008336198516190052,-0.00032619922421872616
1772643974904843800,5.12384375,0.00010950048454105854,0.00025055307196453214,0.0001457131002098322
1772643974914883800,5.1338837890625,0.0002468389575369656,-0.001080542104318738,0.000739195616915822
1772643974924925000,5.143925048828125,0.0010407272493466735,-0.00007386715151369572,0.0003727446310222149
1772643974934965800,5.1539658203125,0.0003267911961302161,0.0003216241020709276,0.00016613793559372425
1772643974945006800,5.1640068359375,0.00044050818542018533,-0.0006195370224304497,-0.0002692888956516981
1772643974955048000,5.1740478515625,-0.0012810648186132312,0.00035374367143958807,0.000683591584675014
1772643974965088000,5.184087890625,-0.0003034183755517006,-0.00012482638703659177,0.00020475522615015507
1772643974975127800,5.1941279296875,0.0011657023569568992,-0.0008570994832552969,0.0012097125872969627
1772643974985169000,5.2041689453125,-0.0009658918133936822,-0.00050289899809286,-0.00016474490985274315
1772643974995210000,5.2142099609375,-0.001091517275199294,-0.00021139963064342737,-0.0015430483035743237
1772643975005250800,5.224250732421875,0.00046829599887132645,0.00015531759709119797,0.0003406053874641657
1772643975015291000,5.234290771484375,0.002329413779079914,-0.00015014316886663437,-0.0000991548877209425
1772643975025332000,5.24433203125,0.0006444317987188697,0.00036411319160833955,-0.0003548183012753725
1772643975035373000,5.254373046875,0.0003086305223405361,0.0002863853587768972,-0.0005380597431212664
1772643975045414000,5.264413818359375,0.000903314386960119,0.0003108864766545594,-0.0008951895870268345
1772643975055455000,5.274455078125,-0.0008609117940068245,0.001583983190357685,-0.00018549268133938313
1772643975065495000,5.2844951171875,0.00008371146395802498,0.0005014081834815443,-0.00006724824197590351
1772643975075536100,5.2945361328125,-0.0008581506554037333,-0.0010701097780838609,0.0004768643993884325
1772643975085577000,5.304576904296875,-0.0007497600745409727,-0.00013400870375335217,-0.0007593750488013029
1772643975095618000,5.3146181640625,0.00019661354599520564,6.89411535859108e-7,0.0012317551299929619
1772643975114444000,5.333444091796875,0.001018049195408821,0.0013780766166746616,-0.0010728826746344566
1772643975124485000,5.343485107421875,-0.0013287283945828676,0.00003025081241503358,-0.0006273358594626188
1772643975134526000,5.35352587890625,0.0015688755083829165,0.0014870797749608755,-0.00013554398901760578
1772643975144566000,5.36356591796875,0.0018053642706945539,-0.000367811881005764,-0.0014191875234246254
1772643975154607000,5.373607177734375,-0.000806651427410543,0.000552952173165977,-0.0009261923842132092
1772643975164648000,5.38364794921875,0.0011161508737131953,-0.00017462344840168953,-0.0008510912302881479
1772643975174689000,5.39368896484375,-0.0015707735437899828,0.00045233406126499176,-0.000033210963010787964
1772643975184730000,5.403730224609375,-0.00047488289419561625,0.00047736777924001217,-0.0010430817492306232
1772643975194770000,5.41377001953125,0.00003594439476728439,0.0010979397920891643,0.00012649968266487122
1772643975204810800,5.423810791015625,-0.0012032244121655822,0.00033947156043723226,-0.0005097293760627508
1772643975214851800,5.433851806640625,-0.000305209425278008,0.0005537348333746195,0.000021182699128985405
1772643975224893000,5.443892822265625,-0.0000503448536619544,-0.0005432211910374463,-0.001169516472145915
1772643975234933800,5.453933837890625,-0.0024481036234647036,-0.00037905946373939514,-0.00010780594311654568
1772643975244973800,5.463973876953125,-0.00005125871393829584,-0.0013801418244838715,0.0009952753316611052
1772643975255015000,5.474014892578125,-0.0003729641903191805,0.0010151849128305912,-0.0004846847150474787
1772643975265056000,5.484055908203125,-0.00015911227092146873,0.00001516798511147499,0.00042824691627174616
1772643975275096800,5.494096923828125,-0.00023894465994089842,0.0005765835521742702,0.0004894088488072157
1772643975285138000,5.504137939453125,0.0007661323761567473,-0.0003206354449503124,-0.0010051571298390627
1772643975295178000,5.514177978515625,-0.00004937232006341219,-0.0006304584676399827,-0.0002897721715271473
1772643975305218800,5.52421875,-0.0009649671847000718,-0.0005875815404579043,0.00021516333799809217
1772643975315260000,5.534260009765625,-0.00046059780288487673,-0.00003258738433942199,-0.0008688573725521564
1772643975325301000,5.544301025390625,-0.0006512801628559828,-0.00016281596617773175,-0.0001082585658878088
1772643975335341800,5.554341796875,-0.0005435342900454998,-0.00021167652448639274,0.0006696981145069003
1772643975345382000,5.5643818359375,0.00031213939655572176,0.0007089782739058137,-0.0007870509289205074
1772643975355423000,5.574423095703125,0.0003096910659223795,-0.0002567179617471993,0.0005047960439696908
1772643975365464000,5.584464111328125,0.0003054299741052091,-0.00021304207621142268,0.0003649800783023238
1772643975375505000,5.5945048828125,-0.0010365555062890053,0.00014460139209404588,-0.00024375319480895996
1772643975385546000,5.6045458984375,0.0009994310094043612,0.000299597333651036,-0.001032315194606781
1772643975395586000,5.6145859375,-0.0013282886939123273,0.0006914027035236359,-0.0003410414792597294
1772643975405627100,5.624627197265625,0.000100763572845608,-0.00038771016988903284,0.0011782918591052294
1772643975415668000,5.63466796875,0.00014547898899763823,-0.00022786727640777826,-0.0003906511701643467
1772643975425709000,5.644708984375,-0.0017549528274685144,-0.0006864635506644845,0.0012868739431723952
1772643975435750000,5.65475,-0.0015292976750060916,-0.00027176219737157226,-0.00014084670692682266
1772643975445791000,5.664791015625,0.0008992389193736017,0.00034928700188174844,-0.0015781547408550978
1772643975455831000,5.6748310546875,0.00016022927593439817,0.0005646500503644347,0.00013308064080774784
1772643975465872100,5.6848720703125,0.00019245350267738104,-0.0006643987726420164,-0.00002697552554309368
1772643975475913000,5.694912841796875,-0.00031564407981932163,0.000808052544016391,0.00047883333172649145
1772643975485954000,5.7049541015625,-0.000024027889594435692,0.0003960615140385926,-0.00017683696933090687
1772643975495995100,5.7149951171875,0.0012016879627481103,-0.000450693944003433,-0.0007290453650057316
1772643975506035000,5.725034912109375,-0.0003916812129318714,-0.0002735937596298754,-0.0014377126935869455
1772643975516075800,5.73507568359375,-0.00006502284668385983,0.00023046170827001333,0.00010896660387516022
1772643975526116900,5.745116943359375,0.0001331163803115487,-0.0009636996546760201,0.000003505498170852661
1772643975536158000,5.755157958984375,-0.0013637092197313905,0.0006089560920372605,-0.00007221288979053497
1772643975546198800,5.76519873046875,0.001323952921666205,0.0008979091071523726,-0.0008703623898327351
1772643975556238800,5.77523876953125,0.00006623461376875639,-0.0004133730544708669,0.000919327256269753
1772643975566280000,5.785280029296875,0.0008278986788354814,-0.0006895427941344678,0.00037843931932002306
1772643975576320800,5.79532080078125,0.0002952795475721359,0.00033045606687664986,-0.000716677401214838
1772643975586361900,5.80536181640625,0.0008529454935342073,0.00006999890320003033,0.00010757101699709892
1772643975596403000,5.81540283203125,0.0005926845478825271,-0.0012865690514445305,0.000417560338973999
1772643975606443000,5.825443115234375,0.0012922969181090593,-0.001582978991791606,0.001199997030198574
1772643975616483800,5.83548388671875,0.0001698569394648075,0.00030783453257754445,-0.0003309235908091068
1772643975626525000,5.84552490234375,0.000203945382963866,-0.0006961772451177239,0.0011087812017649412
1772643975636566000,5.85556591796875,-0.00034914130810648203,-0.0015575244324281812,-0.00005771638825535774
1772643975646606800,5.86560693359375,0.00026098889065906405,-0.000075475312769413,0.0011686692014336586
1772643975656647000,5.87564697265625,-0.00025311450008302927,0.0006989400135353208,0.000012662261724472046
1772643975666688000,5.88568798828125,0.0005759275518357754,-0.0005639309529215097,0.0012848543701693416
1772643975676729000,5.89572900390625,0.0014126284513622522,-0.0015342748956754804,0.0003017608541995287
1772643975686770000,5.90577001953125,0.0008001014357432723,0.0010396703146398067,0.0011174870887771249
1772643975696811000,5.91581103515625,0.0012097829021513462,0.0004443552461452782,-0.00055840821005404
1772643975706851000,5.92585107421875,-0.000536984414793551,-0.00028029090026393533,-0.0011200690641999245
1772643975716892000,5.935891845703125,-0.001712798373773694,0.0006644183304160833,0.0006157380994409323
1772643975726933000,5.94593310546875,-0.00047176540829241276,0.00011713866842910647,-0.00015524704940617085
1772643975736974000,5.95597412109375,0.0002920444239862263,-0.00022423325572162867,0.0016070911660790443
1772643975747015000,5.966014892578125,0.0007948492420837283,0.0021230769343674183,-0.00001770351082086563
1772643975757055000,5.976054931640625,-0.0004770035156980157,-0.0003144448855891824,-0.0014135499950498343
1772643975767096000,5.986095947265625,-0.00022906321100890636,0.0002051378833130002,0.0012964827474206686
1772643975777137200,5.99613720703125,0.0003829691559076309,0.0005606070626527071,0.00032550515606999397
1772643975787178000,6.006177978515625,0.0000727109145373106,-0.0007251671049743891,0.000784101546742022
1772643975797219000,6.016218994140625,-0.0018150110263377428,0.0005704786162823439,-0.00036053452640771866
1772643975807259000,6.0262587890625,0.0008180563454516232,-2.367887645959854e-7,-0.0006249863654375076
1772643975817300000,6.036300048828125,0.0005285880179144442,-0.0003068411606363952,-0.0011587149929255247
1772643975827340800,6.0463408203125,-0.000022153719328343868,-0.00039978540735319257,0.0009579653851687908
1772643975837382000,6.0563818359375,-0.0019169347360730171,-0.0018516101408749819,-0.0009464309550821781
1772643975847422700,6.066422607421875,-0.00013128516729921103,0.001482933759689331,0.0006653140299022198
1772643975857462800,6.076462890625,-0.00005896599031984806,-0.00031729601323604584,-0.00110383122228086
1772643975867503900,6.08650390625,-0.00038147473242133856,-0.0011189075885340571,-0.0002564133610576391
1772643975877545000,6.096544921875,0.00025589915458112955,-0.0007821713807061315,0.0011041685938835144
1772643975887585800,6.106585693359375,-0.0012458573328331113,0.0005805680993944407,-0.00015603937208652496
1772643975897627000,6.116626953125,0.0006196490139700472,-0.00045456900261342525,0.00007004500366747379
1772643975907667000,6.1266669921875,0.0007338986033573747,0.000694585032761097,-0.0012551438994705677
1772643975917708000,6.1367080078125,0.001122490270063281,0.0016893298598006368,-0.0006142985075712204
1772643975927748900,6.146748779296875,-0.00029937142971903086,0.00014443008694797754,-0.0006896660197526217
1772643975937790000,6.1567900390625,0.0009356554364785552,0.0006203218945302069,0.0005076590459793806
1772643975947831000,6.1668310546875,-0.00017701322212815285,0.0004179216339252889,0.00044640619307756424
1772643975957870800,6.176870849609375,-0.000019149156287312508,0.000023612286895513535,-0.00013599381782114506
1772643975967912000,6.186911865234375,0.00035529123852029443,0.00030111370142549276,0.0008155535906553268
1772643975977953800,6.196953857421875,0.00039064191514626145,0.000702640216331929,0.0004212514031678438
1772643975987994600,6.20699462890625,0.0004660093691200018,0.00028532289434224367,0.00014241854660212994
1772643975998035700,6.21703564453125,0.0004104464896954596,-0.0004674374358728528,0.0003903943579643965
1772643976008075500,6.227075439453125,0.0008373511955142021,-0.00036384048871695995,0.00006708665750920773
1772643976018116400,6.237116455078125,0.0007517308695241809,0.002100129146128893,0.0013516817707568407
1772643976028157400,6.247157470703125,0.0003016566624864936,0.000024727836716920137,-0.000197479035705328
1772643976038198500,6.257198486328125,0.001308506354689598,-0.0006321454420685768,0.00030165864154696465
1772643976048239400,6.2672392578125,-0.000009492039680480957,0.0009420490241609514,0.000323230167850852
1772643976058279400,6.277279541015625,0.002542126690968871,-0.0003827455220744014,0.00012575648725032806
1772643976068320500,6.287320556640625,0.0014702044427394867,-0.000607249909080565,0.0006144464714452624
1772643976078361600,6.297361572265625,0.0001718753483146429,-0.00024377834051847458,0.00021219695918262005
1772643976088402400,6.30740234375,0.0010421962942928076,-0.0006451166700571775,0.0007850429974496365
1772643976098443500,6.317443603515625,0.00024545000633224845,-0.00003096053842455149,0.0007214958313852549
1772643976108483600,6.327483642578125,-0.00012632727157324553,0.00011817645281553268,-0.000494503416121006
1772643976118524700,6.337524658203125,0.0007132861064746976,0.0006030763033777475,-0.00048209773376584053
1772643976128565500,6.3475654296875,0.0007074271561577916,-0.0013506185496225953,-0.0001172446645796299
1772643976138606600,6.357606689453125,0.0013149071019142866,-0.00022601010277867317,-0.0007273848168551922
1772643976148647400,6.3676474609375,-0.0001224009320139885,-0.0007525170221924782,0.0014971536584198475
1772643976158687500,6.3776875,0.0001963743707165122,0.00009750062599778175,-0.00037356046959757805
1772643976168728600,6.387728515625,-0.00010509544517844915,-0.0007477867184206843,-0.00008487398736178875
1772643976178769700,6.397769775390625,-0.00000738631933927536,0.0011094850488007069,0.0002894229255616665
1772643976188810500,6.407810546875,0.00013908755499869585,0.0001976187340915203,-0.0006061980966478586
1772643976198851600,6.4178515625,0.00025073852157220244,-0.0006419562851078808,0.000013962620869278908
1772643976208891600,6.4278916015625,0.0003945492208003998,-0.00013329245848581195,0.0005330126732587814
1772643976218932700,6.4379326171875,0.00007443362846970558,-0.000472549581900239,-0.00020745769143104553
1772643976228973600,6.4479736328125,0.0011330401757732034,-0.00035670201759785414,-0.000016242731362581253
1772643976239014700,6.4580146484375,-0.00038034410681575537,-0.0005406313575804234,0.0002357021439820528
1772643976249055700,6.4680556640625,0.000718742492608726,-0.0006865726318210363,0.0011971031781286001
1772643976259095600,6.478095458984375,0.0006920115556567907,0.0014915125211700797,-0.00011695176362991333
1772643976269136600,6.48813671875,0.0007774990517646074,0.0005546124884858727,-0.001024024561047554
1772643976279177700,6.498177734375,0.0017305118963122368,0.00013625057181343436,0.0002332350704818964
1772643976289218600,6.508218505859375,0.000051388866268098354,-0.00006801390554755926,-0.0017217914573848248
1772643976299259600,6.518259765625,0.0002064850996248424,-0.0006198268383741379,0.00011826911941170692
1772643976309299500,6.528299560546875,0.0008855912019498646,0.0010497089242562652,0.0005334559828042984
1772643976319340500,6.538340576171875,-0.0007036334136500955,0.0005159192369319499,-0.0001476006582379341
1772643976329381400,6.54838134765625,0.00019252020865678787,0.0014759888872504234,0.0008899668464437127
1772643976339422500,6.55842236328125,-0.00011011678725481033,0.0015083577018231153,0.0008923399727791548
1772643976349463600,6.568463623046875,0.000038221245631575584,-0.0008916830411180854,-0.00037505850195884705
1772643976359503600,6.578503662109375,0.0007614496280439198,-0.00022183044347912073,0.0009326648432761431
1772643976369544400,6.58854443359375,0.000017096055671572685,-0.001430372940376401,0.00009350269101560116
1772643976379585500,6.59858544921875,0.0005515647935681045,0.0004789339145645499,-0.00027253967709839344
1772643976389626600,6.608626708984375,0.0005289278924465179,-0.0005085661541670561,-0.0015311494935303926
1772643976399667500,6.61866748046875,-0.0008687156951054931,-0.002024320885539055,-0.00045254966244101524
1772643976409707500,6.62870751953125,-0.0010551369050517678,0.00048357772175222635,0.0012952828546985984
1772643976419748600,6.63874853515625,-0.0012998415622860193,0.00026695040287449956,0.00034537771716713905
1772643976429789400,6.64878955078125,0.00005490850890055299,-0.00019430904649198055,-0.000863164896145463
1772643976439830500,6.65883056640625,-0.0013704048469662666,0.0007993428152985871,-0.00019221240654587746
1772643976449871600,6.66887158203125,-0.00024282257072627544,-0.0004222491988912225,-0.0004715779796242714
1772643976459911700,6.67891162109375,-0.001238000812008977,-0.0006720852106809616,-0.0009921560995280743
1772643976469952500,6.688952392578125,-0.0004598253290168941,-0.00023026671260595322,0.0013839161256328225
1772643976479993600,6.69899365234375,0.0022419262677431107,0.0008812702726572752,-0.00023173773661255836
1772643976490034700,6.70903466796875,-0.0009032670641317964,0.000012014410458505154,-0.0017462775576859713
1772643976500075500,6.719075439453125,0.0008770761778578162,0.0015588669339194894,-0.0013662530109286308
1772643976510115600,6.729115478515625,-0.0005381276714615524,-0.00031493324786424637,0.001468415604904294
1772643976520156700,6.73915673828125,-0.0006145031074993312,-0.0004234196385368705,-0.00010382686741650105
1772643976530197500,6.749197509765625,0.0001333125401288271,-0.000880151754245162,0.0005499791586771607
1772643976540238600,6.759238525390625,-0.0005376931512728333,0.0005002396064810455,0.00004458380863070488
1772643976550278700,6.769278564453125,-0.0012269193539395928,0.0008539074333384633,0.00006695440970361233
1772643976560319700,6.77931982421875,-0.0003430430660955608,-0.0012906478950753808,-0.001327137229964137
1772643976570360600,6.789360595703125,0.0008764183730818331,0.0005690373945981264,-0.0008759975899010897
1772643976580401700,6.799401611328125,0.0003295292262919247,-0.0007116092601791024,0.00025634770281612873
1772643976590442800,6.80944287109375,0.0014571116771548986,-0.0007092123851180077,0.0013112257001921535
1772643976600482600,6.819482666015625,-0.0004958841018378735,0.0002570165670476854,-0.0005876307841390371
1772643976610523400,6.8295234375,-0.00043942511547356844,0.0001997585641220212,0.00013621640391647816
1772643976620564500,6.839564453125,-0.0006800714181736112,-0.0003743274137377739,-0.0007829738315194845
1772643976630605800,6.849605712890625,0.0013412678381428123,-0.0004861801862716675,0.0007059995550662279
1772643976640646700,6.859646728515625,0.0002838029759004712,0.0011859199730679393,-0.0005979265552014112
1772643976650686500,6.8696865234375,0.0007589109009131789,-0.00019919010810554028,-0.00011509540490806103
1772643976660727600,6.8797275390625,0.00006152153946459293,0.0008021552348509431,-0.00034766108728945255
1772643976670768400,6.889768310546875,0.0003102608025074005,-0.0014647275675088167,-0.0005804211832582951
1772643976680809500,6.8998095703125,0.00009158527245745063,-0.0011931279441341758,-0.0009858945850282907
1772643976690850600,6.9098505859375,0.00010596628999337554,-0.0007827348308637738,-0.0007304975297302008
1772643976700890600,6.919890625,-0.0011742659844458103,-0.0020942273549735546,-0.00007524527609348297
1772643976710931500,6.929931396484375,-0.00043097761226817966,-0.0004630410112440586,-0.0005428965669125319
1772643976720972500,6.93997265625,0.00017070543253794312,0.0007011471316218376,-0.00043549248948693275
1772643976731013600,6.950013671875,-0.0016844526398926973,-0.00041658151894807816,-0.0010469541884958744
1772643976741054500,6.960054443359375,0.00012712355237454176,-0.0009612971916794777,-0.00011115986853837967
1772643976751094500,6.970094482421875,-0.00014531787019222975,0.0002419190132059157,0.000023595988750457764
1772643976761135600,6.980135498046875,-0.001608710503205657,-0.0005627768114209175,-0.000798018416389823
1772643976771176700,6.9901767578125,0.0003694854094646871,0.0007211330812424421,0.0010765806073322892
1772643976781217500,7.000217529296875,-0.0006712178001180291,-0.0009594433940947056,-0.0002647151704877615
1772643976791258600,7.010258544921875,0.0009485167684033513,0.00006640632636845112,0.00006791367195546627
1772643976801298700,7.020298583984375,0.0006781236734241247,0.0002030282048508525,0.0008064565481618047
1772643976811339500,7.030339599609375,0.000378518074285239,0.00019317452097311616,0.00008820206858217716
1772643976821380600,7.040380615234375,-0.000810532714240253,-0.0011311626294627786,-0.0005949828773736954
1772643976831421700,7.050421630859375,0.0006757774972356856,0.0000720535172149539,-0.0007672891952097416
1772643976841462500,7.060462646484375,-0.0005860684905201197,-0.0005354891764000058,-0.0007642540149390697
1772643976851502600,7.070502685546875,0.0009127585799433291,-0.0003932764520868659,-0.0006047305651009083
1772643976861543700,7.080543701171875,-0.0009516404243186116,-0.0006807898171246052,-0.0008599087595939636
1772643976871584800,7.090584716796875,0.0009349428582936525,0.00025397975696250796,0.00005355547182261944
1772643976881625600,7.10062548828125,-0.00027116137789562345,0.0007245797896757722,-0.000007667811587452888
1772643976891666700,7.110666748046875,-0.0003063150797970593,0.0002513360232114792,-0.0007275203242897987
1772643976901706800,7.120706787109375,0.0009980417089536786,-0.0005454192869365215,0.000547742354683578
1772643976911747600,7.13074755859375,-0.0012174418661743402,-0.0019678138196468353,-0.0009143331553786993
1772643976921788700,7.14078857421875,0.0007944190292619169,0.00025768677005544305,0.000078210374340415
1772643976931829800,7.150829833984375,0.001475921948440373,-0.0009037177078425884,-0.0006413757801055908
1772643976941870600,7.16087060546875,0.0002894395147450268,0.0000489094527438283,-0.000647194217890501
1772643976951910400,7.170910400390625,-0.0006280194502323866,-0.0006523007759824395,0.0004976986674591899
1772643976961951500,7.180951416015625,0.0013030145782977343,0.001604208373464644,0.0009171926649287343
1772643976971992600,7.19099267578125,0.00007556367199867964,0.0002582467859610915,0.00007669907063245773
1772643976982033400,7.201033447265625,0.00044622327550314367,0.0005436309147626162,-0.00032044667750597
1772643976992074500,7.211074462890625,-0.0006190412095747888,0.0002717221505008638,0.001179179409518838
1772643977002114600,7.221114501953125,-0.00022571405861526728,-0.0005728332325816154,0.0011778940679505467
1772643977012155600,7.23115576171875,-0.00012664450332522392,0.0012093542609363794,0.0010026581585407257
1772643977022196500,7.241196533203125,0.0008039959357120097,0.000968201900832355,0.0007805946515873075
1772643977032237600,7.251237548828125,-0.001137448474764824,0.00018017255933955312,0.000047426437959074974
1772643977042278700,7.261278564453125,0.0005741054192185402,0.0002927962923422456,-0.0015470962971448898
1772643977052318500,7.271318359375,-0.00020193972159177065,-0.00007338833529502153,-0.0003018022980540991
1772643977062359600,7.281359619140625,-0.0005345930112525821,0.0015785815194249153,0.0012773532653227448
1772643977072400600,7.291400634765625,0.00022201106185093522,0.0015008172485977411,-0.0010571738239377737
1772643977082441500,7.30144140625,0.0006680693477392197,0.0005444369162432849,-0.0006460330914705992
1772643977092481300,7.311481201171875,0.001034786575473845,-0.0002640987513586879,-0.0002497546374797821
1772643977102522400,7.3215224609375,-0.0002270389231853187,-0.000045470776967704296,0.00041957409121096134
1772643977112563500,7.3315634765625,0.0001764299813657999,0.000818192376755178,-0.0011676698923110962
1772643977122604300,7.341604248046875,0.00014814618043601513,-0.0000425257021561265,0.0009686832781881094
1772643977132645400,7.351645263671875,0.0009380397386848927,0.0010006343945860863,0.0006483050528913736
1772643977142685400,7.361685546875,0.0002510135527700186,-0.0001838885946199298,0.0008762726793065667
1772643977152726500,7.3717265625,0.0002590030198916793,0.0009173285216093063,-0.0009272200986742973
1772643977162767400,7.381767333984375,0.0005988884950056672,-0.00033231056295335293,0.00005947635509073734
1772643977172808400,7.391808349609375,-0.000995812239125371,-0.0006827824981883168,-0.0007615762297064066
1772643977182849300,7.401849365234375,-0.0015536060091108084,0.0001809439272619784,0.0001899534836411476
1772643977192889300,7.411889404296875,-0.0002393361064605415,0.0001921292277984321,0.00014494615606963634
1772643977202930400,7.421930419921875,0.00029874721076339483,-0.0010190010070800781,-0.0005479073151946068
1772643977212971500,7.431971435546875,0.0006931613315828145,0.0018827792955562472,-0.00016760802827775478
1772643977223012400,7.442012451171875,0.00038641487481072545,0.0010400766041129827,0.0008429483277723193
1772643977233053400,7.452053466796875,-0.0007081443327479064,0.0007388730882667005,0.0008581283036619425
1772643977243094500,7.462094482421875,0.00043433852260932326,0.0011793532175943255,-0.001157191814854741
1772643977253134600,7.472134521484375,-0.001134263351559639,-0.0002821895759552717,-0.00026876130141317844
1772643977263175400,7.482175537109375,0.0002599219442345202,0.0011563989100977778,-0.0008951392956078053
1772643977273216500,7.492216552734375,0.0004684474552050233,0.000478624424431473,-0.00015744357369840145
1772643977283257600,7.502257568359375,-0.001412491430528462,-0.0002515967935323715,0.00040467153303325176
1772643977293297400,7.51229736328125,0.0008179058786481619,0.0018632194260135293,-0.0009037395939230919
1772643977303338500,7.52233837890625,-0.0003378902329131961,-0.000806161668151617,-0.0007698244880884886
1772643977313379600,7.532379638671875,-0.0011086090235039592,0.0014806947438046336,0.000918619567528367
1772643977323420400,7.54242041015625,-0.0002896208316087723,0.001049245591275394,-0.0011554218363016844
1772643977333461500,7.55246142578125,-0.001056611305102706,0.0001933056628331542,0.001208932721056044
1772643977343501600,7.56250146484375,0.0021328229922801256,-0.0009815350640565157,0.0011749084806069732
1772643977353542700,7.572542724609375,0.00011973950313404202,0.00042674457654356956,0.0013299045385792851
1772643977363583500,7.58258349609375,0.0009614740265533328,-0.00018055958207696676,0.0012552934931591153
1772643977373624600,7.59262451171875,0.0003928891383111477,0.00023729034001007676,-0.0008288964163511992
1772643977383665700,7.602665771484375,-0.0012333274353295565,-0.00011960556730628014,-0.0009151417762041092
1772643977393705500,7.61270556640625,0.00010118255158886313,-0.0010908604599535465,0.00013520894572138786
1772643977403746300,7.622746337890625,0.0003410852514207363,0.00004886690294370055,-0.0010709096677601337
1772643977413787400,7.632787353515625,-0.00021125434432178736,-0.00045233999844640493,-0.0008517315145581961
1772643977423828500,7.642828369140625,-0.0008131925715133548,0.0007148970616981387,-0.0009404015727341175
1772643977433869300,7.652869384765625,-0.0002483361167833209,-0.0010672904318198562,-0.0006075063720345497
1772643977443909400,7.662909423828125,0.0008883217815309763,0.0006595731829293072,-0.0002790815196931362
1772643977453950500,7.672950439453125,-0.0004320734879001975,0.0009783535497263074,0.002078082412481308
1772643977463991300,7.6829912109375,-0.00011962407734245062,-0.00018915825057774782,-0.0006222159136086702
1772643977474032400,7.693032470703125,-0.0001630336046218872,-0.0006581409834325314,-0.0010576427448540926
1772643977484073500,7.703073486328125,0.0003097653388977051,-0.00007719453424215317,0.00033123884350061417
1772643977494113500,7.713113525390625,-0.0013608355075120926,-0.00021354842465370893,-0.0002866145223379135
1772643977504154400,7.723154296875,-0.0014434746699407697,-0.000039410311728715897,-0.0006292613688856363
1772643977514195500,7.733195556640625,-0.0001236120006069541,-0.0007960144430398941,0.0008698321180418134
1772643977524236500,7.743236572265625,-0.0002261826884932816,0.00006093730917200446,-0.0007449181284755468
1772643977534277400,7.75327734375,-0.0010395122226327658,-0.0002791483420878649,-0.0003896523267030716
1772643977544317400,7.7633173828125,0.00036074878880754113,0.00046793418005108833,0.001463474938645959
1772643977554358500,7.773358642578125,-0.00015137705486267805,-0.0016804379411041737,-0.0001946091651916504
1772643977564399400,7.7833994140625,0.00045622827019542456,-0.000014593126252293587,-0.0003853130619972944
1772643977574440400,7.7934404296875,0.0013137661153450608,-0.00045374827459454536,-0.0019009183160960674
1772643977584481500,7.8034814453125,-0.00036181998439133167,0.00007831654511392117,-0.0005431182216852903
1772643977594521600,7.813521484375,-0.0007892573485150933,-0.00034699030220508575,-0.0001689440105110407
1772643977604562400,7.8235625,0.0014777072938159108,0.00037765601882711053,-0.0004766348283737898
1772643977614603500,7.833603515625,-0.00089277233928442,-0.0004351407987996936,-0.0007485435344278812
1772643977624644600,7.84364453125,-0.00025228405138477683,-0.0010050085838884115,0.0004348801448941231
1772643977634685400,7.853685546875,0.0010188426822423935,0.0006381619023159146,-0.0015787358861416578
1772643977644725500,7.8637255859375,-0.0010379881132394075,0.0001819540048018098,0.0008394670439884067
1772643977654766600,7.8737666015625,0.0010054553858935833,-0.001263876212760806,-0.001178676262497902
1772643977664807700,7.8838076171875,-0.0007063564844429493,-0.000016442383639514446,0.0005100703565403819
1772643977674848500,7.8938486328125,0.00006968859815970063,0.0011966275051236153,-0.000011642929166555405
1772643977684888300,7.903888427734375,-0.00008404633263126016,0.0004403754137456417,-0.00017152843065559864
1772643977694929400,7.913929443359375,0.00031622673850506544,0.0011421183589845896,0.0006471272790804505
1772643977704970200,7.92397021484375,0.00047692429507151246,0.00007217674283310771,0.0004697882104665041
1772643977715011300,7.93401123046875,-0.0004021851345896721,-0.0011129300110042095,0.0001627258025109768
1772643977725052400,7.944052490234375,-0.0003711878089234233,-0.00012063642498105764,0.0005071504274383187
1772643977735092500,7.954092529296875,-0.0006367049645632505,-0.0004878862528130412,-0.0003173642326146364
1772643977745133300,7.96413330078125,-0.0009471842786297202,0.0013165444834157825,0.0007183392299339175
1772643977755174400,7.97417431640625,0.0008240841561928391,-0.0018627371173352003,-0.0003527842927724123
1772643977765215500,7.984215576171875,-0.00017906265566125512,-0.0012053655227646232,-0.0008623206522315741
1772643977775256300,7.99425634765625,-0.0016272896900773048,0.00038001418579369783,0.000019185710698366165
1772643977785296400,8.00429638671875,-0.0011126280296593904,-0.0013658308889716864,-0.00003198976628482342
1772643977795337500,8.01433740234375,0.00009884388418868184,-0.0004470404237508774,0.0007642953423783183
1772643977805378600,8.024378662109376,0.00039060681592673063,-0.000060669961385428905,-0.00030862074345350266
1772643977815419400,8.03441943359375,-0.00007571268361061811,0.0009814249351620674,0.0006730204913765192
1772643977825460500,8.04446044921875,0.0006496537243947387,-0.000017534242942929268,-0.0008980762213468552
1772643977835500500,8.05450048828125,-0.0004917770274914801,0.0007784846238791943,-0.00033348589204251766
1772643977845541400,8.064541259765624,0.0007057369221001863,0.0002654719864949584,-0.00007885647937655449
1772643977855582500,8.07458251953125,0.00044288288336247206,-0.0010730328503996134,0.00025057652965188026
1772643977865623600,8.08462353515625,-0.0012356314109638333,0.0007540858932770789,-0.0010887435637414455
1772643977875664400,8.094664306640626,-0.00006011221557855606,0.0011841864325106144,0.0007387174991890788
1772643977885704400,8.104704345703125,0.0004927722038701177,-0.00035192049108445644,-0.00042648310773074627
1772643977895745500,8.11474560546875,0.0000791832571849227,-0.0005370101425796747,0.00021027866750955582
1772643977905786600,8.12478662109375,0.00048417114885523915,0.0004884580848738551,0.0007171682082116604
1772643977915827500,8.134827392578124,-0.0005342216463759542,-0.00002286885865032673,-0.00006500235758721828
1772643977925868500,8.14486865234375,-0.0005252251867204905,0.0008211018284782767,0.0006128738168627024
1772643977935908600,8.15490869140625,0.000021255516912788153,-0.00040368596091866493,0.001060551148839295
1772643977945949400,8.164949462890625,0.0004327187780290842,-0.0013187769800424576,-0.0011788345873355865
1772643977955990500,8.174990478515625,-0.0007912699948064983,0.0004684704472310841,0.00018044281750917435
1772643977966031600,8.185031494140626,0.00041907577542588115,0.00042858708184212446,-0.0005936287343502045
1772643977976071400,8.195071533203125,0.00011014909250661731,0.0006975663127377629,0.00029586697928607464
1772643977986112500,8.205112548828126,-0.0001069446443580091,0.0006383418804034591,-0.0005483927670866251
1772643977996153600,8.215153564453125,-0.000794040213804692,-0.0001536821946501732,-0.0014988749753683805
1772643978006194700,8.225194580078124,-0.0006047647329978645,-0.0006943594198673964,0.0006082311738282442
1772643978016235500,8.235235595703125,-0.001063893549144268,0.0012481502490118146,0.00029397825710475445
1772643978026275600,8.245275634765624,0.0005055088549852371,0.0008784543024376035,0.00044767989311367273
1772643978036316700,8.255316650390625,0.0009052493260242045,0.00012744287960231304,0.00015073735266923904
1772643978046357500,8.265357421875,0.0007315182592719793,-0.0007586743449792266,0.00027878815308213234
1772643978056398600,8.275398681640626,-0.00042056525126099586,0.0013244502479210496,0.0020644376054406166
1772643978066439700,8.285439697265625,0.0013640056131407619,-0.0007885214872658253,-0.0005640792660415173
1772643978076479700,8.295479736328126,-0.0010245834710076451,-0.0015991878462955356,-0.00000774487853050232
1772643978086520600,8.3055205078125,0.00027332588797435164,0.00026044092373922467,-0.0008300186600536108
1772643978096561700,8.315561767578124,-0.0008563869632780552,0.0007659089169465005,0.0005529610207304358
1772643978106602800,8.325602783203125,0.00046683853724971414,0.0005811945884488523,0.0005020523676648736
1772643978116643600,8.3356435546875,-0.0007046859827823937,0.0011204846668988466,-0.0007722701411694288
1772643978126683600,8.34568359375,0.0008140633581206203,0.0007972110761329532,0.0003234535688534379
1772643978136724700,8.355724853515625,0.0002888879971578717,0.0006246381672099233,0.0012800609692931175
1772643978146765800,8.365765869140626,-0.0010397627484053373,-0.000868289265781641,0.00037964980583637953
1772643978156806700,8.375806640625,0.0006462844321504235,0.0006206841790117323,-0.0006629778072237968
1772643978166847700,8.38584765625,-0.0008483933052048087,-0.0003775465302169323,-0.00195652456022799
1772643978176887600,8.395887451171875,0.0005955726373940706,-0.001402863534167409,-0.0003381215501576662
1772643978186928400,8.405928466796874,-0.0007889544940553606,0.000737290654797107,-0.0004614097997546196
1772643978196969500,8.415969482421875,0.0015591545961797237,-0.00008189771324396133,-0.00007605040445923805
1772643978207010600,8.426010498046875,0.000039116537664085627,-0.000033961026929318905,-0.00032244552858173847
1772643978217050600,8.436050537109375,0.00033233058638870716,0.0006400850834324956,-0.000701679615303874
1772643978227091500,8.446091552734375,0.0007882711361162364,0.0008287309319712222,0.00001062755472958088
1772643978237132500,8.456132568359376,-0.0002322521759197116,0.00017306068912148476,0.0009184993105009198
1772643978247173600,8.466173583984375,0.0008582478621974587,0.0012122932821512222,0.0005981771973893046
1772643978257214500,8.47621435546875,-0.0013029072433710098,0.0010533025488257408,-0.00044977664947509766
1772643978267254500,8.486254638671875,-0.0007806407520547509,0.0005366112454794347,0.00030950549989938736
1772643978277295600,8.496295654296874,-0.0007145943818613887,-0.00030574656557291746,-0.00018903822638094425
1772643978287336700,8.506336669921875,0.00041254900861531496,-0.0007983362302184105,-0.000520587433129549
1772643978297377500,8.51637744140625,-0.0013091845903545618,-0.0004542558453977108,0.0007801003521308303
1772643978307418600,8.526418701171876,0.0007984298863448203,0.0015033482341095805,0.0014758164761587977
1772643978317458700,8.536458740234375,0.0005038842791691422,-0.0001600621035322547,-0.00023846025578677654
1772643978327499500,8.54649951171875,-0.00005440681707113981,0.0006192584987729788,-0.00038269604556262493
1772643978337540600,8.55654052734375,-0.0006842444417998195,0.0008128703339025378,0.0002775017637759447
1772643978347581700,8.566581787109374,-0.00012335088104009628,-0.0006940359016880393,-0.0002589602954685688
1772643978357622500,8.57662255859375,-0.000333740608766675,0.00143409613519907,-0.0009423275478184223
1772643978367662600,8.58666259765625,0.0005122763104736805,-0.0005055619403719902,-0.0006204377859830856
1772643978377703700,8.59670361328125,-0.0007540567312389612,-0.0002267289673909545,0.0004360382445156574
1772643978387744800,8.606744873046875,-0.0003511471441015601,0.0004503577947616577,-0.0015969718806445599
1772643978397785600,8.61678564453125,0.0000011890660971403122,-0.0012138516176491976,0.0003921431489288807
1772643978407826700,8.62682666015625,0.0012274339096620679,-0.00013001798652112484,0.000032400013878941536
1772643978417866800,8.63686669921875,0.0014258393784984946,0.0004574753111228347,0.0006734229391440749
1772643978427907600,8.646907470703125,0.00021721672965213656,0.0007259468547999859,0.0001841522753238678
1772643978437948700,8.65694873046875,-0.0006885243346914649,0.0002998410491272807,0.00004699942655861378
1772643978447989800,8.66698974609375,0.0010203581769019365,-0.00001310836523771286,0.000871288008056581
1772643978458030600,8.677030517578125,-0.00042174349073320627,0.0000534706050530076,0.0016396099235862494
1772643978468070400,8.6870703125,0.0007256340468302369,0.00110565812792629,0.0007886789971962571
1772643978478111500,8.697111572265625,-0.00014868169091641903,0.00006622634828090668,-0.0006299868691712618
1772643978488152600,8.707152587890626,0.0006042878376320004,0.0003442307934165001,0.0000019832514226436615
1772643978498193700,8.717193603515625,-0.0007920075440779328,-0.0007452684221789241,-0.0008166723418980837
1772643978508233500,8.7272333984375,-0.00015324191190302372,-0.00037139805499464273,-0.00017817574553191662
1772643978518274600,8.737274658203125,-0.00007840711623430252,0.0005910682957619429,-0.001051160041242838
1772643978528315600,8.747315673828124,0.000262941000983119,-0.000007235445082187653,0.0005421002861112356
1772643978538356500,8.7573564453125,-0.00044625881128013134,-0.00012707768473774195,0.0006393056828528643
1772643978548397600,8.7673974609375,0.0007934622699394822,0.00032502575777471066,0.0011545253219082952
1772643978558437600,8.777437744140625,0.000020612962543964386,0.00039826269494369626,-0.0003911734092980623
1772643978568478500,8.787478515625,0.0014225732302293181,0.0014760192716494203,0.00010446691885590553
1772643978578519600,8.79751953125,0.0003298782976344228,-0.000988470041193068,0.0000035329721868038177
1772643978588560600,8.807560546875,0.00178510881960392,-0.00017441576346755028,0.00039131054654717445
1772643978598601500,8.8176015625,0.0009741762769408524,-0.0010045230155810714,0.0002608157228678465
1772643978608641500,8.8276416015625,0.000043289619497954845,0.000537359737791121,-0.0009473096579313278
1772643978618682600,8.8376826171875,-0.0003591140266507864,0.00031871418468654156,0.00015657045878469944
1772643978628723700,8.8477236328125,0.0007421309128403664,-0.0004250790225341916,-0.00029327720403671265
1772643978638764500,8.8577646484375,-0.0014448568690568209,0.00007532897870987654,0.0004097972996532917
1772643978648805600,8.8678056640625,0.0011711081024259329,-0.00006932287942618132,-0.0005072227213531733
1772643978658845700,8.877845703125,-0.0002222578041255474,0.0002622407046146691,0.0005761513020843267
1772643978668886800,8.88788671875,0.00009727006545290351,-0.00008853862527757883,-0.00010128016583621502
1772643978678927600,8.897927734375,-0.00028489355463534594,0.00033170817187055945,0.0007109841099008918
1772643978688968700,8.90796875,-0.0009644812671467662,0.000010361778549849987,-0.00017516128718852997
1772643978699008800,8.9180087890625,-0.0009554264834150672,0.0009192986181005836,0.0000876926351338625
1772643978709049600,8.928049560546874,-0.00040088489186018705,0.00135764479637146,0.0007915234891697764
1772643978719090700,8.938090576171875,0.0006835542735643685,0.0009227506816387177,-0.00022607040591537952
1772643978729131800,8.9481318359375,-0.003329499391838908,-0.0009421841241419315,0.0019817997235804796
1772643978739172600,8.958172607421876,0.0013922849902883172,-0.000553895253688097,0.0005032126791775227
1772643978749212400,8.96821240234375,0.0014285724610090256,-0.00023868621792644262,-0.0004978403449058533
1772643978759253800,8.978253662109376,0.0003563838545233011,0.0004587956937029958,-0.0007412533741444349
1772643978769294800,8.988294921875,0.00005289464024826884,0.0015491850208491087,-0.0003205128014087677
1772643978779335700,8.998335693359374,-0.00009198137558996677,-0.0008165009785443544,-0.0011093411594629288
1772643978789376800,9.008376708984375,0.0012650344287976623,0.00044477125629782677,-0.0011188136413693428
1772643978799416600,9.01841650390625,0.0003614238230511546,0.00027938897255808115,0.000731018022634089
1772643978809457700,9.028457763671875,0.0020121268462389708,0.0014264269266277552,-0.00029991078190505505
1772643978819498500,9.03849853515625,-0.0001642083516344428,0.0009784833528101444,-0.0011904719285666943
1772643978829539600,9.04853955078125,-0.0006812161300331354,0.0006806220626458526,-0.0007367252837866545
1772643978839580400,9.058580322265625,-0.00036243582144379616,-0.0008211345411837101,0.0013285560999065638
1772643978849620500,9.068620361328126,0.0010361571330577135,-0.0006746550207026303,0.0004260523710399866
1772643978859661600,9.07866162109375,0.0007301599252969027,-0.0006128696841187775,-0.00003946828655898571
1772643978869702700,9.08870263671875,-0.00025005167117342353,0.0006838883855380118,-0.0007701364811509848
1772643978879743500,9.098743408203125,0.00028204789850860834,-0.00003489881055429578,-0.00025801057927310467
1772643978889783600,9.108783447265624,0.0007803721236996353,-0.0000671103480271995,0.0006168000400066376
1772643978899824600,9.11882470703125,0.0003028673818334937,-0.00008335564052686095,0.0004381020553410053
1772643978909865700,9.12886572265625,0.0006029424839653075,-0.0008363425149582326,0.001412812271155417
1772643978919906600,9.138906494140626,-0.0013960262294858694,0.0000438322895206511,-0.000029555754736065865
1772643978929947600,9.14894775390625,-0.0014135781675577164,-0.0008261749753728509,-0.00016764807514846325
1772643978939987700,9.15898779296875,-0.0005184896872378886,-0.00020539213437587023,0.000437155831605196
1772643978950028500,9.169028564453125,0.0005633786786347628,0.0014667531941086054,-0.00001923227682709694
1772643978960069600,9.179069580078124,0.0010115887271240354,-0.0003628383856266737,0.0001650585327297449
1772643978970110700,9.18911083984375,0.0018661748617887497,-0.0007662728894501925,0.00028306664898991585
1772643978980151300,9.1991513671875,-0.000011353695299476385,-0.0006144726648926735,-0.0005805962719023228
1772643978990191000,9.209191162109375,0.00018427829490974545,0.00001082295784726739,0.0008445148123428226
1772643979000232200,9.219232177734375,0.0010047982214018703,-0.0006275367923080921,0.0014226870844140649
1772643979010273300,9.229273193359376,0.0006570302648469806,-0.0008583898888900876,-0.0007364437915384769
1772643979020314000,9.239314208984375,0.00031561299692839384,0.000345358916092664,-0.000326317036524415
1772643979030355200,9.249355224609374,0.0004468789556995034,-0.0003004723694175482,-0.000743835000321269
1772643979040395000,9.25939501953125,0.000293747172690928,-0.0005393578903749585,-0.0005494242068380117
1772643979050436000,9.26943603515625,0.0006659281207248569,0.00006998522439971566,0.000365312909707427
1772643979060477000,9.279476806640625,0.0012899066787213087,-0.0014916924992576241,-0.0002749110572040081
1772643979070518000,9.28951806640625,-0.0015498274005949497,-0.0006779007380828261,0.0001118355430662632
1772643979080559000,9.29955908203125,-0.0007841685437597334,-0.00013727904297411442,0.0012649843702092767
1772643979090599200,9.30959912109375,0.0013636295916512609,0.0004655232187360525,-0.0012285055126994848
1772643979103150000,9.322150146484375,-0.0005778148770332336,-0.00013688381295651197,-0.0003552548587322235
1772643979113191200,9.332191162109375,-0.0006598458858206868,-0.000925773405469954,-0.00012518186122179031
1772643979123232000,9.34223193359375,0.00037079741014167666,-0.0010770410299301147,-0.00023570307530462742
1772643979133272000,9.35227197265625,-0.0015141041949391365,-0.0009461127920076251,-0.0015467202756553888
1772643979143313200,9.362313232421876,0.0001873895525932312,-0.0008126884931698442,0.00003999099135398865
1772643979153354200,9.372354248046875,0.001116704079322517,0.0014462240505963564,0.00012762169353663921
1772643979163395000,9.38239501953125,-0.0003032934619113803,0.0023863199166953564,0.001548684318549931
1772643979173436200,9.392436279296875,0.0010129789588972926,0.0014316542074084282,-0.000142933102324605
1772643979183476200,9.402476318359374,-0.0006296587525866926,0.0006098027806729078,-0.00023294799029827118
1772643979193517300,9.412517333984376,-0.0012684110552072525,0.0005090208142064512,0.0012033447856083512
1772643979203558100,9.42255810546875,-0.00006333057535812259,0.0019210288301110268,0.0030158921144902706
1772643979213599200,9.43259912109375,0.00011632509995251894,0.00015642709331586957,0.0012146207736805081
1772643979223640300,9.442640380859375,-0.00043468293733894825,-0.0020979386754333973,-0.0003790147602558136
1772643979233680100,9.45268017578125,0.0013053023722022772,-0.0024637426249682903,-0.0012500605080276728
1772643979243721000,9.462720947265625,0.0015836026286706328,-0.001993162091821432,-0.0020988101605325937
1772643979253762000,9.472761962890624,-0.00030499801505357027,0.0015315755736082792,0.0004701451398432255
1772643979263803000,9.482802978515625,0.0008510801708325744,0.00014300347538664937,0.0003305955324321985
1772643979273844000,9.492843994140625,0.0002801342052407563,-0.0012086491333320737,-0.000049052294343709946
