time,seconds_elapsed,z,y,x
1772651344414803000,0.199802978515625,-0.0003994738217443228,0.003728422336280346,-0.0011984214652329683
1772651344424806000,0.209805908203125,-0.0014647373463958502,0.001597895286977291,0.0014647373463958502
1772651344434808800,0.219808837890625,0.0006657897029072046,0.0005326317623257637,0.0009321055840700865
1772651344444811800,0.229811767578125,0.0006657897029072046,-0.001597895286977291,-0.0006657897029072046
1772651344454814500,0.239814453125,0.00013315794058144093,0.002130527049303055,0.0014647373463958502
1772651344464817400,0.2498173828125,0.00013315794058144093,0.0010652635246515274,-0.00013315794058144093
1772651344474820400,0.2598203125,0.001731053227558732,0,-0.00013315794058144093
1772651344484823300,0.2698232421875,-0.0014647373463958502,-0.001597895286977291,0.0003994738217443228
1772651344494826200,0.279826171875,-0.0014647373463958502,0.0010652635246515274,-0.001731053227558732
1772651344504829000,0.289828857421875,0.00013315794058144093,0.001597895286977291,-0.00013315794058144093
1772651344514832000,0.299831787109375,0.0006657897029072046,0.0010652635246515274,0.0003994738217443228
1772651344524834800,0.309834716796875,-0.0014647373463958502,0,0.0003994738217443228
1772651344534837800,0.319837646484375,0.0006657897029072046,0.002130527049303055,0.0003994738217443228
1772651344544840700,0.3298408203125,-0.0009321055840700865,-0.0005326317623257637,0.0014647373463958502
1772651344554843600,0.33984375,-0.0014647373463958502,0.002130527049303055,-0.00013315794058144093
1772651344564846300,0.349846435546875,0.0006657897029072046,-0.0005326317623257637,0.0009321055840700865
1772651344574849300,0.359849365234375,-0.0003994738217443228,-0.0005326317623257637,-0.00013315794058144093
1772651344584852200,0.369852294921875,0.0006657897029072046,0,-0.00013315794058144093
1772651344594855200,0.379855224609375,-0.0003994738217443228,-0.0005326317623257637,-0.00013315794058144093
1772651344604858000,0.389858154296875,-0.0009321055840700865,-0.0005326317623257637,0.0003994738217443228
1772651344614860800,0.39986083984375,-0.0009321055840700865,0.002130527049303055,0.0003994738217443228
1772651344624863700,0.40986376953125,0.0011984214652329683,0.002130527049303055,0.0003994738217443228
1772651344634866700,0.41986669921875,0.0006657897029072046,-0.0010652635246515274,-0.0006657897029072046
1772651344644869600,0.42986962890625,0.0006657897029072046,0,0.0014647373463958502
1772651344654872600,0.43987255859375,-0.0014647373463958502,-0.0005326317623257637,0.0014647373463958502
1772651344664875300,0.449875244140625,-0.0014647373463958502,-0.001597895286977291,0.0009321055840700865
1772651344674878200,0.459878173828125,-0.0009321055840700865,-0.002130527049303055,0.0014647373463958502
1772651344684881200,0.469881103515625,0.0011984214652329683,0.0005326317623257637,0.0009321055840700865
1772651344694884000,0.479884033203125,-0.0014647373463958502,-0.002130527049303055,0.0003994738217443228
1772651344704886800,0.48988671875,-0.0009321055840700865,0.0005326317623257637,0.0014647373463958502
1772651344714889700,0.4998896484375,-0.0014647373463958502,0,0.0009321055840700865
1772651344724892700,0.509892578125,0.0006657897029072046,0,-0.00013315794058144093
1772651344734895600,0.5198955078125,0.00013315794058144093,0.001597895286977291,0.0003994738217443228
1772651344744898600,0.529898681640625,-0.0003994738217443228,0.001597895286977291,0.0009321055840700865
1772651344754901500,0.539901611328125,0.00013315794058144093,-0.001597895286977291,-0.0011984214652329683
1772651344764904400,0.549904541015625,0.0011984214652329683,0,0.001997369108721614
1772651344774907400,0.559907470703125,0.00013315794058144093,0.0005326317623257637,0.001997369108721614
1772651344784910600,0.56991064453125,0.00013315794058144093,0,0.0009321055840700865
1772651344794913500,0.57991357421875,0.00013315794058144093,0,0.0003994738217443228
1772651344804916700,0.589916748046875,0.00013315794058144093,0,-0.0011984214652329683
1772651344814919700,0.599919677734375,-0.0003994738217443228,0.0010652635246515274,0.0014647373463958502
1772651344824922600,0.609922607421875,0.0006657897029072046,0.0005326317623257637,0.0003994738217443228
1772651344834925800,0.61992578125,-0.0003994738217443228,0.0005326317623257637,0.0003994738217443228
1772651344844928800,0.6299287109375,0.0011984214652329683,-0.001597895286977291,0.0003994738217443228
1772651344854932000,0.639931884765625,-0.0009321055840700865,-0.0010652635246515274,0.0009321055840700865
1772651344864935000,0.649934814453125,-0.0003994738217443228,-0.0010652635246515274,-0.0006657897029072046
1772651344874938000,0.659938232421875,0.0006657897029072046,-0.0005326317623257637,-0.0006657897029072046
1772651344884941000,0.669941162109375,0.0006657897029072046,-0.0005326317623257637,0.0003994738217443228
1772651344894944000,0.679944091796875,-0.0003994738217443228,0,0.0025300008710473776
1772651344904947200,0.689947265625,-0.0009321055840700865,-0.0010652635246515274,-0.00013315794058144093
1772651344914950100,0.6999501953125,-0.0003994738217443228,0.0005326317623257637,0.0003994738217443228
1772651344924953300,0.709953369140625,-0.0009321055840700865,-0.0010652635246515274,0.0009321055840700865
1772651344934956300,0.719956298828125,0.001731053227558732,0,0.0009321055840700865
1772651344944959200,0.729959228515625,-0.0009321055840700865,-0.0005326317623257637,0.0009321055840700865
1772651344964965400,0.74996533203125,0.0006657897029072046,0.0005326317623257637,0.0014647373463958502
1772651344974968600,0.759968505859375,0.00013315794058144093,0.002130527049303055,0.0009321055840700865
1772651344984971500,0.769971435546875,-0.001997369108721614,0.0026631588116288185,-0.00013315794058144093
1772651344994974500,0.779974365234375,-0.0009321055840700865,0.0005326317623257637,-0.00013315794058144093
1772651345004977700,0.789977783203125,-0.0003994738217443228,0.0005326317623257637,0.0009321055840700865
1772651345014980600,0.799980712890625,0.0011984214652329683,0.0005326317623257637,-0.00013315794058144093
1772651345024983800,0.80998388671875,0.0011984214652329683,-0.0010652635246515274,0.0009321055840700865
1772651345034986800,0.81998681640625,-0.0009321055840700865,-0.001597895286977291,0.0014647373463958502
1772651345044990000,0.829989990234375,0.00013315794058144093,-0.0005326317623257637,-0.00013315794058144093
1772651345054993000,0.839992919921875,-0.0014647373463958502,0.0010652635246515274,0.0014647373463958502
1772651345064995800,0.849995849609375,-0.0003994738217443228,0.0005326317623257637,0.001997369108721614
1772651345074999000,0.8599990234375,0.0006657897029072046,0,-0.001731053227558732
1772651345085002000,0.870001953125,0.00013315794058144093,0.0005326317623257637,-0.00013315794058144093
1772651345095005200,0.880005126953125,-0.0009321055840700865,-0.0005326317623257637,0.0003994738217443228
1772651345105008000,0.890008056640625,0.00013315794058144093,0.0010652635246515274,0.0003994738217443228
1772651345115011000,0.900010986328125,0.0006657897029072046,-0.001597895286977291,-0.00013315794058144093
1772651345125014300,0.91001416015625,0.00013315794058144093,0.0010652635246515274,0.0009321055840700865
1772651345135017200,0.920017333984375,0.00013315794058144093,0.0005326317623257637,-0.00013315794058144093
1772651345145020400,0.9300205078125,-0.0014647373463958502,0.0005326317623257637,-0.0011984214652329683
1772651345155023400,0.9400234375,0.0011984214652329683,0.0005326317623257637,0.0003994738217443228
1772651345165026600,0.950026611328125,0.00013315794058144093,0.001597895286977291,0.0003994738217443228
1772651345175029500,0.960029541015625,0.00013315794058144093,0,-0.0006657897029072046
1772651345185032400,0.970032470703125,0.00013315794058144093,0,-0.0011984214652329683
1772651345195035600,0.98003564453125,-0.0009321055840700865,-0.001597895286977291,-0.0006657897029072046
1772651345205038600,0.99003857421875,-0.0009321055840700865,0.0005326317623257637,0.0003994738217443228
1772651345215041500,1.00004150390625,-0.0003994738217443228,-0.0005326317623257637,0.0009321055840700865
1772651345225044700,1.010044677734375,0.00013315794058144093,0.0010652635246515274,-0.0006657897029072046
1772651345235047700,1.020047607421875,0.00013315794058144093,-0.0010652635246515274,-0.0006657897029072046
1772651345245051000,1.03005078125,-0.0003994738217443228,0,0.0003994738217443228
1772651345255054000,1.04005419921875,0.0006657897029072046,0.0005326317623257637,-0.0006657897029072046
1772651345265057500,1.0500576171875,-0.0003994738217443228,0.0010652635246515274,-0.0011984214652329683
1772651345275061000,1.06006103515625,-0.0003994738217443228,0.0010652635246515274,-0.0006657897029072046
1772651345285064200,1.070064208984375,0.0006657897029072046,0.0005326317623257637,-0.0011984214652329683
1772651345295067600,1.080067626953125,-0.0003994738217443228,-0.0010652635246515274,0.0003994738217443228
1772651345305071000,1.090071044921875,0.001731053227558732,0.0005326317623257637,0.001997369108721614
1772651345315074600,1.100074462890625,0.0011984214652329683,-0.0005326317623257637,-0.00013315794058144093
1772651345325078000,1.110078125,-0.0009321055840700865,0.0005326317623257637,0.0009321055840700865
1772651345335081500,1.12008154296875,0.0006657897029072046,0.0010652635246515274,-0.001731053227558732
1772651345345085000,1.1300849609375,-0.0009321055840700865,0.001597895286977291,-0.0006657897029072046
1772651345355088400,1.14008837890625,-0.0003994738217443228,-0.001597895286977291,0.0003994738217443228
1772651345365091800,1.150091796875,0.0011984214652329683,0.001597895286977291,-0.00013315794058144093
1772651345375095300,1.16009521484375,0.00013315794058144093,-0.0005326317623257637,-0.00013315794058144093
1772651345385098800,1.1700986328125,-0.0009321055840700865,-0.0005326317623257637,0.0003994738217443228
1772651345395102000,1.18010205078125,-0.0003994738217443228,0,-0.0006657897029072046
1772651345405105400,1.19010546875,0.0006657897029072046,-0.0010652635246515274,-0.0006657897029072046
1772651345415108900,1.20010888671875,0.001731053227558732,0.0010652635246515274,-0.00013315794058144093
1772651345425112300,1.2101123046875,-0.0003994738217443228,0.0005326317623257637,-0.00013315794058144093
1772651345435115800,1.22011572265625,0.001731053227558732,0.0005326317623257637,0.0003994738217443228
1772651345445119200,1.230119140625,-0.0009321055840700865,0,-0.00013315794058144093
1772651345455122700,1.240122802734375,-0.0003994738217443228,-0.0005326317623257637,-0.00013315794058144093
1772651345465126100,1.250126220703125,-0.0003994738217443228,-0.0005326317623257637,-0.00013315794058144093
1772651345475129600,1.260129638671875,0.0006657897029072046,0.0010652635246515274,0.0009321055840700865
1772651345485133000,1.270133056640625,0.00013315794058144093,-0.0010652635246515274,-0.0011984214652329683
1772651345495136500,1.280136474609375,0.00013315794058144093,-0.0005326317623257637,-0.0006657897029072046
1772651345505139700,1.2901396484375,-0.0003994738217443228,0.0010652635246515274,-0.0006657897029072046
1772651345515143200,1.30014306640625,0.0006657897029072046,-0.0005326317623257637,0.0003994738217443228
1772651345525146600,1.310146728515625,0.00013315794058144093,0.0005326317623257637,-0.00013315794058144093
1772651345535150000,1.320150146484375,0.0006657897029072046,-0.0005326317623257637,-0.00013315794058144093
1772651345545153500,1.330153564453125,0.00013315794058144093,-0.0005326317623257637,0.0003994738217443228
1772651345555157000,1.340156982421875,0.0006657897029072046,0.0010652635246515274,0.0014647373463958502
1772651345565160400,1.350160400390625,-0.0003994738217443228,0,0.0003994738217443228
1772651345575164000,1.360163818359375,0.0006657897029072046,0.0005326317623257637,-0.0011984214652329683
1772651345585167400,1.37016748046875,0.00013315794058144093,0,-0.0011984214652329683
1772651345595170800,1.3801708984375,-0.0003994738217443228,0.0005326317623257637,-0.0011984214652329683
1772651345605174300,1.39017431640625,0.0011984214652329683,0,0.0009321055840700865
1772651345615177500,1.400177490234375,0.00013315794058144093,-0.0005326317623257637,-0.0006657897029072046
1772651345625181000,1.410180908203125,0.0011984214652329683,0.001597895286977291,0.0009321055840700865
1772651345635184400,1.420184326171875,0.00013315794058144093,0,0.0003994738217443228
1772651345645187800,1.430187744140625,-0.0003994738217443228,0.0005326317623257637,-0.00013315794058144093
1772651345655191300,1.44019140625,0.0011984214652329683,-0.0005326317623257637,-0.00013315794058144093
1772651345665194800,1.45019482421875,0.00013315794058144093,0.0010652635246515274,0.0009321055840700865
1772651345675198200,1.4601982421875,-0.0003994738217443228,0.0005326317623257637,0.0009321055840700865
1772651345685201700,1.47020166015625,0.00013315794058144093,0.0005326317623257637,-0.00013315794058144093
1772651345695205000,1.480205078125,0.0006657897029072046,0.001597895286977291,-0.0006657897029072046
1772651345705208600,1.49020849609375,0.0006657897029072046,0.0010652635246515274,0.001997369108721614
1772651345715212000,1.5002119140625,0.0006657897029072046,-0.0010652635246515274,-0.0006657897029072046
1772651345725215200,1.51021533203125,-0.0014647373463958502,0,-0.00013315794058144093
1772651345735218700,1.52021875,0.00013315794058144093,0.0005326317623257637,0.0009321055840700865
1772651345745222100,1.53022216796875,-0.0003994738217443228,0,0.0003994738217443228
1772651345755225900,1.540225830078125,-0.0003994738217443228,0.0010652635246515274,-0.0006657897029072046
1772651345765229600,1.5502294921875,-0.0003994738217443228,0.0010652635246515274,0.0009321055840700865
1772651345775233500,1.560233642578125,0.0006657897029072046,-0.0010652635246515274,0.0003994738217443228
1772651345785237200,1.5702373046875,0.0011984214652329683,-0.0005326317623257637,0.0003994738217443228
1772651345795241200,1.5802412109375,-0.0003994738217443228,-0.0005326317623257637,0.0014647373463958502
1772651345805245200,1.5902451171875,0.0006657897029072046,-0.0010652635246515274,-0.00013315794058144093
1772651345815249000,1.600248779296875,0.00013315794058144093,-0.001597895286977291,0.0014647373463958502
1772651345825252900,1.6102529296875,0.0006657897029072046,0.0005326317623257637,-0.00013315794058144093
1772651345835256600,1.620256591796875,-0.0009321055840700865,0.0010652635246515274,0.0003994738217443228
1772651345845260500,1.630260498046875,-0.0003994738217443228,0.001597895286977291,0.0003994738217443228
1772651345855264300,1.64026416015625,-0.0003994738217443228,0.0010652635246515274,-0.00013315794058144093
1772651345865268200,1.650268310546875,-0.0009321055840700865,0.001597895286977291,0.0014647373463958502
1772651345875272200,1.660272216796875,0.00013315794058144093,0.0005326317623257637,-0.0006657897029072046
1772651345885276000,1.67027587890625,-0.0003994738217443228,0.0005326317623257637,-0.0006657897029072046
1772651345895279900,1.68027978515625,-0.0009321055840700865,0.0005326317623257637,-0.0011984214652329683
1772651345905283600,1.69028369140625,0.0011984214652329683,0.0010652635246515274,-0.00013315794058144093
1772651345915287600,1.70028759765625,-0.0009321055840700865,0.0005326317623257637,-0.00013315794058144093
1772651345925291500,1.71029150390625,-0.0003994738217443228,-0.001597895286977291,0.0003994738217443228
1772651345935295200,1.720295166015625,-0.0014647373463958502,-0.003195790573954582,0.0009321055840700865
1772651345945299200,1.73029931640625,0.0011984214652329683,-0.001597895286977291,-0.00013315794058144093
1772651345965307000,1.750306884765625,0.00013315794058144093,0.001597895286977291,-0.00013315794058144093
1772651345975310600,1.760310546875,0.001731053227558732,-0.0005326317623257637,-0.0011984214652329683
1772651345985314600,1.770314453125,0.0011984214652329683,-0.002130527049303055,-0.0006657897029072046
1772651345995318500,1.780318603515625,0.0006657897029072046,0,-0.00013315794058144093
1772651346005322200,1.790322265625,0.00013315794058144093,-0.0005326317623257637,-0.0006657897029072046
1772651346015326200,1.800326171875,0.00013315794058144093,-0.0005326317623257637,0.0003994738217443228
1772651346025330000,1.810329833984375,0.0011984214652329683,-0.0010652635246515274,-0.00013315794058144093
1772651346035334000,1.820333984375,-0.0003994738217443228,-0.0005326317623257637,-0.0006657897029072046
1772651346045337900,1.830337890625,0.00013315794058144093,-0.0005326317623257637,0.0014647373463958502
1772651346055341600,1.840341552734375,0.0006657897029072046,0.0005326317623257637,-0.00013315794058144093
1772651346065345500,1.850345458984375,-0.0009321055840700865,0.001597895286977291,0.0003994738217443228
1772651346075349200,1.860349365234375,-0.0003994738217443228,-0.0005326317623257637,0.0003994738217443228
1772651346085353200,1.870353271484375,-0.0014647373463958502,0.001597895286977291,0.0014647373463958502
1772651346095357200,1.880357177734375,-0.0003994738217443228,0,0.0003994738217443228
1772651346105361000,1.89036083984375,0.0006657897029072046,0.0010652635246515274,0.0009321055840700865
1772651346115364900,1.90036474609375,0.0006657897029072046,-0.0005326317623257637,0.0003994738217443228
1772651346125368600,1.91036865234375,-0.0003994738217443228,0,-0.0006657897029072046
1772651346135372500,1.92037255859375,-0.0003994738217443228,0.001597895286977291,-0.00013315794058144093
1772651346145376500,1.93037646484375,-0.0003994738217443228,0.0010652635246515274,0.0003994738217443228
1772651346155380200,1.940380126953125,-0.0003994738217443228,-0.0006657897029072046,-0.0009321055840700865
1772651346165384200,1.95038427734375,0.0006657897029072046,0.0003994738217443228,0.00013315794058144093
1772651346175388000,1.960387939453125,-0.0009321055840700865,-0.001731053227558732,0.00013315794058144093
1772651346185391900,1.970391845703125,-0.0003994738217443228,0.0009321055840700865,-0.0014647373463958502
1772651346195395600,1.9803955078125,-0.0009321055840700865,0.0014647373463958502,-0.0009321055840700865
1772651346205399600,1.990399658203125,-0.0003994738217443228,0.0003994738217443228,0.0006657897029072046
1772651346215403500,2.000403564453125,0.00013315794058144093,0.0014647373463958502,0.00013315794058144093
1772651346225407200,2.0104072265625,-0.0003994738217443228,0.001997369108721614,-0.0009321055840700865
1772651346235411200,2.0204111328125,-0.0003994738217443228,-0.0006657897029072046,-0.0009321055840700865
1772651346245415000,2.030414794921875,-0.0014647373463958502,-0.0006657897029072046,-0.0003994738217443228
1772651346255418600,2.040418701171875,0.0011984214652329683,-0.00013315794058144093,0.0006657897029072046
1772651346265421600,2.050421630859375,-0.0014647373463958502,0.0014647373463958502,0.00013315794058144093
1772651346275424500,2.060424560546875,-0.0003994738217443228,-0.001731053227558732,-0.0009321055840700865
1772651346285427500,2.070427490234375,0.0011984214652329683,-0.0006657897029072046,0.0006657897029072046
1772651346295430400,2.080430419921875,0.001731053227558732,0.0003994738217443228,-0.0014647373463958502
1772651346305433300,2.090433349609375,-0.0003994738217443228,0.0003994738217443228,-0.0009321055840700865
1772651346315436300,2.100436279296875,-0.0003994738217443228,0.0003994738217443228,-0.0014647373463958502
1772651346325439200,2.110439208984375,0.00013315794058144093,-0.0011984214652329683,0.0006657897029072046
1772651346335442200,2.120442138671875,-0.0003994738217443228,-0.001731053227558732,0.00013315794058144093
1772651346345445000,2.130445068359375,0.0006657897029072046,-0.0006657897029072046,0.00013315794058144093
1772651346355448000,2.140447998046875,-0.0003994738217443228,-0.0006657897029072046,0.0006657897029072046
1772651346365451000,2.150450927734375,0.0011984214652329683,-0.0006657897029072046,-0.0003994738217443228
1772651346375454200,2.1604541015625,-0.0009321055840700865,0.0003994738217443228,0.0006657897029072046
1772651346385457200,2.17045703125,0.0011984214652329683,0.001997369108721614,0.0006657897029072046
1772651346395460000,2.180460205078125,0.00013315794058144093,0.001997369108721614,0.0011984214652329683
1772651346405463000,2.190463134765625,-0.0014647373463958502,-0.00013315794058144093,0.00013315794058144093
1772651346415466000,2.200466064453125,-0.0009321055840700865,-0.0027963167522102594,-0.0014647373463958502
1772651346425469000,2.210468994140625,-0.0009321055840700865,0.0003994738217443228,0.0011984214652329683
1772651346435472000,2.220471923828125,-0.0014647373463958502,0.0014647373463958502,-0.001997369108721614
1772651346445474800,2.230474853515625,0.0006657897029072046,-0.00013315794058144093,-0.0003994738217443228
1772651346455477800,2.240477783203125,0.0006657897029072046,-0.0006657897029072046,-0.0014647373463958502
1772651346465480700,2.250480712890625,0.001731053227558732,-0.0011984214652329683,0.0011984214652329683
1772651346475483600,2.260483642578125,0.00013315794058144093,0.0003994738217443228,-0.0014647373463958502
1772651346485486600,2.270486572265625,0.00013315794058144093,-0.0006657897029072046,-0.0009321055840700865
1772651346495489800,2.28048974609375,0.00013315794058144093,0.0009321055840700865,0.0011984214652329683
1772651346505492700,2.29049267578125,0.001731053227558732,-0.00013315794058144093,-0.0003994738217443228
1772651346515495700,2.30049560546875,0.001731053227558732,0.0003994738217443228,0.00013315794058144093
1772651346525498600,2.31049853515625,-0.001997369108721614,0.0003994738217443228,-0.0009321055840700865
1772651346535501600,2.32050146484375,-0.0009321055840700865,0.0009321055840700865,-0.0009321055840700865
1772651346545504500,2.33050439453125,-0.0003994738217443228,-0.0011984214652329683,-0.0003994738217443228
1772651346555507500,2.340507568359375,0.00013315794058144093,0.0009321055840700865,0.00013315794058144093
1772651346565510400,2.350510498046875,-0.001997369108721614,0.0009321055840700865,0.00013315794058144093
1772651346575513300,2.360513427734375,0.00013315794058144093,-0.00013315794058144093,0.0011984214652329683
1772651346585516300,2.370516357421875,-0.0014647373463958502,-0.00013315794058144093,-0.0009321055840700865
1772651346595519200,2.380519287109375,-0.0003994738217443228,0.0003994738217443228,-0.0003994738217443228
1772651346605522200,2.390522216796875,-0.0003994738217443228,0.0003994738217443228,0.00013315794058144093
1772651346615525000,2.400525146484375,0.0011984214652329683,0.0009321055840700865,-0.0003994738217443228
1772651346625528300,2.4105283203125,-0.0003994738217443228,0.0003994738217443228,-0.0003994738217443228
1772651346635531300,2.42053125,-0.0014647373463958502,-0.0006657897029072046,-0.0009321055840700865
1772651346645534200,2.4305341796875,0.0006657897029072046,-0.0006657897029072046,0.00013315794058144093
1772651346655537200,2.440537109375,0.0006657897029072046,0.0003994738217443228,-0.0003994738217443228
1772651346665540000,2.4505400390625,0.00013315794058144093,0.0009321055840700865,0.0006657897029072046
1772651346675543000,2.46054296875,0.0006657897029072046,0.0014647373463958502,-0.0003994738217443228
1772651346685546000,2.4705458984375,-0.0009321055840700865,-0.00013315794058144093,0.0006657897029072046
1772651346695549000,2.480548828125,0.0006657897029072046,-0.00013315794058144093,-0.0009321055840700865
1772651346705552000,2.4905517578125,0.00013315794058144093,0.0009321055840700865,-0.0003994738217443228
1772651346715554800,2.500554931640625,-0.0009321055840700865,0.0009321055840700865,-0.0009321055840700865
1772651346725557800,2.510557861328125,0.0011984214652329683,-0.0011984214652329683,0.001731053227558732
1772651346735560700,2.520560791015625,-0.0009321055840700865,-0.00013315794058144093,-0.0009321055840700865
1772651346745564000,2.53056396484375,-0.0003994738217443228,0.0014647373463958502,-0.0003994738217443228
1772651346755566800,2.54056689453125,-0.0009321055840700865,-0.00013315794058144093,-0.0003994738217443228
1772651346765570600,2.550570556640625,0.001731053227558732,0.0003994738217443228,0.0011984214652329683
1772651346775574000,2.560573974609375,-0.0014647373463958502,0.0003994738217443228,0.00013315794058144093
1772651346785577500,2.570577392578125,-0.0003994738217443228,0.0009321055840700865,-0.0009321055840700865
1772651346795581200,2.580581298828125,0.00013315794058144093,-0.00013315794058144093,-0.0003994738217443228
1772651346805584600,2.590584716796875,-0.0009321055840700865,0.0003994738217443228,-0.001997369108721614
1772651346815588000,2.600588134765625,-0.0003994738217443228,-0.00013315794058144093,-0.0009321055840700865
1772651346825591800,2.610591796875,-0.0003994738217443228,0.0009321055840700865,-0.0003994738217443228
1772651346835595300,2.62059521484375,0.0006657897029072046,-0.00013315794058144093,0.00013315794058144093
1772651346845598700,2.6305986328125,0.00013315794058144093,-0.0006657897029072046,0.00013315794058144093
1772651346855602400,2.6406025390625,-0.0009321055840700865,0.0003994738217443228,-0.0003994738217443228
1772651346865606000,2.65060595703125,0.00013315794058144093,0.0009321055840700865,-0.0009321055840700865
1772651346875609300,2.660609375,0.00013315794058144093,-0.0006657897029072046,0.0006657897029072046
1772651346885613000,2.670613037109375,-0.0009321055840700865,-0.00013315794058144093,0.00013315794058144093
1772651346895616500,2.680616455078125,0.0006657897029072046,0.0014647373463958502,-0.0003994738217443228
1772651346905620000,2.690619873046875,0.0006657897029072046,0.0003994738217443228,0.00013315794058144093
1772651346915623700,2.700623779296875,0.0022636849898844957,0.0003994738217443228,0.00013315794058144093
1772651346925627100,2.710627197265625,0.0011984214652329683,-0.0011984214652329683,-0.0003994738217443228
1772651346935630600,2.720630615234375,0.0006657897029072046,0.0009321055840700865,0.00013315794058144093
1772651346945634300,2.73063427734375,0.0006657897029072046,0.0009321055840700865,0.001731053227558732
1772651346955637800,2.7406376953125,-0.0009321055840700865,-0.0006657897029072046,-0.0025300008710473776
1772651346965641200,2.75064111328125,-0.0014647373463958502,-0.0011984214652329683,0.00013315794058144093
1772651346975645000,2.76064501953125,0.00013315794058144093,-0.00013315794058144093,0.00013315794058144093
1772651346985648400,2.7706484375,0.00013315794058144093,0.0014647373463958502,-0.0009321055840700865
1772651346995651800,2.78065185546875,0.0006657897029072046,0.0003994738217443228,0.00013315794058144093
1772651347005655600,2.790655517578125,-0.0003994738217443228,0.0003994738217443228,0.00013315794058144093
1772651347015659000,2.800658935546875,-0.001997369108721614,-0.0006657897029072046,0.00013315794058144093
1772651347025662500,2.810662353515625,0.00013315794058144093,0.001997369108721614,0.00013315794058144093
1772651347035666000,2.820666015625,-0.001997369108721614,0.0009321055840700865,0.00013315794058144093
1772651347045669600,2.830669677734375,0.0011984214652329683,0.0014647373463958502,-0.0003994738217443228
1772651347055673000,2.840673095703125,0.0006657897029072046,-0.00013315794058144093,-0.0014647373463958502
1772651347065676500,2.850676513671875,-0.0009321055840700865,0.0003994738217443228,0.0027963167522102594
1772651347075680300,2.86068017578125,0.0006657897029072046,0.0009321055840700865,-0.001997369108721614
1772651347085683700,2.87068359375,0.00013315794058144093,-0.0006657897029072046,-0.001997369108721614
1772651347095687200,2.880687255859375,-0.0003994738217443228,-0.0011984214652329683,0.0006657897029072046
1772651347105691000,2.89069091796875,0.0006657897029072046,-0.0022636849898844957,0.00013315794058144093
1772651347115694300,2.9006943359375,0.00013315794058144093,0.0003994738217443228,0.0006657897029072046
1772651347125697800,2.91069775390625,-0.0003994738217443228,0.0003994738217443228,0.0006657897029072046
1772651347135701500,2.920701416015625,0.0006657897029072046,-0.0006657897029072046,0.0011984214652329683
1772651347145705000,2.930705078125,0.001731053227558732,0.0003994738217443228,0.00013315794058144093
1772651347155708400,2.94070849609375,0.00013315794058144093,-0.00013315794058144093,0.00013315794058144093
1772651347165712100,2.950712158203125,0.001731053227558732,-0.0006657897029072046,0.0006657897029072046
1772651347175715600,2.960715576171875,-0.0009321055840700865,0.0009321055840700865,-0.0003994738217443228
1772651347185719000,2.970718994140625,0.0006657897029072046,-0.00013315794058144093,-0.0003994738217443228
1772651347195722800,2.98072265625,0.00013315794058144093,-0.0006657897029072046,-0.0009321055840700865
1772651347205726200,2.990726318359375,0.0011984214652329683,-0.00013315794058144093,0.0006657897029072046
1772651347215729700,3.000729736328125,0.0011984214652329683,0.0003994738217443228,0.00013315794058144093
1772651347225733400,3.0107333984375,0.0022636849898844957,0.0003994738217443228,0.0006657897029072046
1772651347235736800,3.02073681640625,-0.0003994738217443228,0.0003994738217443228,0.00013315794058144093
1772651347245740300,3.030740234375,0.0006657897029072046,0.0009321055840700865,0.0006657897029072046
1772651347255743700,3.04074365234375,0.001731053227558732,-0.00013315794058144093,0.00013315794058144093
1772651347265746400,3.050746337890625,0.0006657897029072046,-0.0006657897029072046,0.00013315794058144093
1772651347275749400,3.060749267578125,0.0011984214652329683,0.0003994738217443228,0.00013315794058144093
1772651347285752000,3.070751953125,0.0011984214652329683,0.0014647373463958502,0.0006657897029072046
1772651347295755000,3.080755126953125,0.0006657897029072046,-0.0006657897029072046,-0.0003994738217443228
1772651347305757700,3.0907578125,-0.0003994738217443228,-0.0011984214652329683,-0.0003994738217443228
1772651347315760600,3.1007607421875,0.0011984214652329683,0.0009321055840700865,0.0006657897029072046
1772651347325763300,3.110763427734375,0.001731053227558732,0.0009321055840700865,-0.0003994738217443228
1772651347335766300,3.120766357421875,-0.0014647373463958502,-0.0006657897029072046,-0.0003994738217443228
1772651347345769200,3.130769287109375,0.0006657897029072046,-0.0011984214652329683,0.0022636849898844957
1772651347355772000,3.14077197265625,0.00013315794058144093,-0.0006657897029072046,-0.0014647373463958502
1772651347365774800,3.15077490234375,0.0006657897029072046,-0.0011984214652329683,0.0006657897029072046
1772651347375777500,3.160777587890625,0.00013315794058144093,0.0014647373463958502,-0.0009321055840700865
1772651347385780500,3.170780517578125,0.00013315794058144093,0.0014647373463958502,0.001731053227558732
1772651347395783200,3.180783203125,0.00013315794058144093,-0.00013315794058144093,-0.0003994738217443228
1772651347405786000,3.1907861328125,-0.0014647373463958502,-0.0011984214652329683,-0.0003994738217443228
1772651347415788800,3.200788818359375,0.0006657897029072046,-0.00013315794058144093,-0.0014647373463958502
1772651347425791700,3.210791748046875,-0.001997369108721614,0.0009321055840700865,0.0006657897029072046
1772651347435794400,3.22079443359375,0.0006657897029072046,-0.0011984214652329683,0.00013315794058144093
1772651347445797400,3.23079736328125,0.0006657897029072046,-0.00013315794058144093,0.0006657897029072046
1772651347455800300,3.24080029296875,-0.0003994738217443228,-0.0006657897029072046,-0.0003994738217443228
1772651347465803000,3.250802978515625,0.0006657897029072046,0.0003994738217443228,-0.0009321055840700865
1772651347475805700,3.2608056640625,0.0011984214652329683,-0.0011984214652329683,0.00013315794058144093
1772651347485808600,3.27080859375,-0.0014647373463958502,-0.001731053227558732,-0.0003994738217443228
1772651347495811600,3.2808115234375,0.0006657897029072046,-0.00013315794058144093,-0.0003994738217443228
1772651347505814300,3.290814208984375,-0.0009321055840700865,0.0009321055840700865,0.00013315794058144093
1772651347515817200,3.300817138671875,-0.0003994738217443228,-0.0006657897029072046,-0.0003994738217443228
1772651347525820000,3.31081982421875,-0.0003994738217443228,-0.00013315794058144093,-0.0003994738217443228
1772651347535822800,3.32082275390625,0.0006657897029072046,-0.00013315794058144093,0.0011984214652329683
1772651347545825500,3.330825439453125,0.0006657897029072046,0.001997369108721614,0.0006657897029072046
1772651347555828500,3.340828369140625,0.00013315794058144093,-0.0006657897029072046,-0.001997369108721614
1772651347565831200,3.3508310546875,-0.0009321055840700865,0.0009321055840700865,-0.0003994738217443228
1772651347575834000,3.360834228515625,0.0006657897029072046,0.0003994738217443228,-0.0003994738217443228
1772651347585837000,3.370837158203125,0.0022636849898844957,0.0014647373463958502,-0.0003994738217443228
1772651347595839700,3.38083984375,0.0011984214652329683,0.0003994738217443228,-0.0009321055840700865
1772651347605842700,3.3908427734375,0.0011984214652329683,0.0025300008710473776,0.0006657897029072046
1772651347615845400,3.400845458984375,0.00013315794058144093,-0.0006657897029072046,-0.0014647373463958502
1772651347625848300,3.410848388671875,0.001731053227558732,-0.001731053227558732,-0.0009321055840700865
1772651347635851000,3.42085107421875,0.001731053227558732,-0.0011984214652329683,-0.0003994738217443228
1772651347645854000,3.43085400390625,0.00013315794058144093,-0.001731053227558732,-0.0003994738217443228
1772651347655856600,3.440856689453125,-0.0003994738217443228,-0.0006657897029072046,-0.0014647373463958502
1772651347665859600,3.450859619140625,-0.0003994738217443228,-0.0022636849898844957,0.00013315794058144093
1772651347675862300,3.4608623046875,-0.0003994738217443228,-0.00013315794058144093,-0.0009321055840700865
1772651347685865200,3.470865234375,-0.0009321055840700865,-0.0011984214652329683,0.0011984214652329683
1772651347695868200,3.4808681640625,0.0011984214652329683,-0.0022636849898844957,0.00013315794058144093
1772651347705870800,3.490870849609375,0.00013315794058144093,0.0003994738217443228,-0.001997369108721614
1772651347715873800,3.500873779296875,-0.0009321055840700865,-0.00013315794058144093,-0.0003994738217443228
1772651347725876500,3.51087646484375,0.0011984214652329683,0.0009321055840700865,0.0006657897029072046
1772651347735879400,3.52087939453125,0.00013315794058144093,0.0003994738217443228,-0.0003994738217443228
1772651347745882000,3.530882080078125,0.0006657897029072046,-0.0011984214652329683,0.00013315794058144093
1772651347755885000,3.540885009765625,0.0006657897029072046,-0.0006657897029072046,0.0006657897029072046
1772651347765888000,3.550887939453125,0.00013315794058144093,-0.0006657897029072046,0.00013315794058144093
1772651347775890700,3.560890625,-0.0003994738217443228,-0.003328948514536023,-0.001997369108721614
1772651347785893600,3.5708935546875,-0.0003994738217443228,0.001997369108721614,-0.0014647373463958502
1772651347795896600,3.580896484375,0.0006657897029072046,0.0014647373463958502,0.00013315794058144093
1772651347805899500,3.5908994140625,0.001731053227558732,0.0009321055840700865,0.00013315794058144093
1772651347815902200,3.600902099609375,-0.0009321055840700865,0.0009321055840700865,-0.0009321055840700865
1772651347825905200,3.6109052734375,-0.0003994738217443228,-0.0006657897029072046,-0.0009321055840700865
1772651347835908000,3.620908203125,0.0011984214652329683,-0.0006657897029072046,0.0006657897029072046
1772651347845911000,3.6309111328125,-0.0003994738217443228,-0.00013315794058144093,0.00013315794058144093
1772651347855914000,3.6409140625,-0.0009321055840700865,-0.00013315794058144093,0.0006657897029072046
1772651347865917000,3.6509169921875,0.0011984214652329683,0.0003994738217443228,-0.0009321055840700865
1772651347875919600,3.660919677734375,0.0011984214652329683,-0.0006657897029072046,0.00013315794058144093
1772651347885922600,3.670922607421875,0.0006657897029072046,0.0003994738217443228,-0.0014647373463958502
1772651347895925500,3.680925537109375,0.0006657897029072046,-0.0006657897029072046,-0.0009321055840700865
1772651347905928400,3.690928466796875,0.00013315794058144093,-0.00013315794058144093,-0.0014647373463958502
1772651347915931100,3.70093115234375,-0.0005326317623257637,-0.0006657897029072046,-0.00026631588116288185
1772651347925934000,3.71093408203125,0,0.0009321055840700865,0.001864211168140173
1772651347935937000,3.72093701171875,0.0005326317623257637,0.0003994738217443228,0.00026631588116288185
1772651347945940000,3.73093994140625,-0.0010652635246515274,0.0009321055840700865,-0.00026631588116288185
1772651347955943000,3.74094287109375,0.0005326317623257637,-0.0011984214652329683,-0.0007989476434886456
1772651347965945600,3.750945556640625,0.0010652635246515274,-0.0011984214652329683,-0.00026631588116288185
1772651347975948500,3.760948486328125,0.0005326317623257637,-0.001731053227558732,0.00026631588116288185
1772651347985951500,3.770951416015625,0.0005326317623257637,0.0003994738217443228,-0.00026631588116288185
1772651347995954400,3.780954345703125,0.0005326317623257637,-0.00013315794058144093,0.00026631588116288185
1772651348005957400,3.790957275390625,0,0.0003994738217443228,-0.00026631588116288185
1772651348015960000,3.8009599609375,0.0010652635246515274,0.0014647373463958502,-0.00026631588116288185
1772651348025963000,3.810962890625,0.0010652635246515274,0.0003994738217443228,0.00026631588116288185
1772651348035966000,3.820966064453125,0,0.0025300008710473776,0.00026631588116288185
1772651348045969000,3.830968994140625,-0.0005326317623257637,0.0003994738217443228,-0.0013315794058144093
1772651348055971600,3.8409716796875,0,0.0009321055840700865,-0.00026631588116288185
1772651348065974500,3.850974609375,-0.0010652635246515274,-0.0011984214652329683,0.0013315794058144093
1772651348075977500,3.8609775390625,0.0005326317623257637,-0.0006657897029072046,0.00026631588116288185
1772651348085980400,3.87098046875,-0.0005326317623257637,-0.00013315794058144093,-0.0013315794058144093
1772651348095983400,3.8809833984375,-0.0010652635246515274,-0.0006657897029072046,-0.0007989476434886456
1772651348105986000,3.890986083984375,-0.0005326317623257637,0.0009321055840700865,0.0007989476434886456
1772651348115989000,3.900989013671875,-0.0005326317623257637,-0.0006657897029072046,-0.00026631588116288185
1772651348125992000,3.910991943359375,0.001597895286977291,0.0014647373463958502,0.0023968429304659367
1772651348135995000,3.920994873046875,0,-0.001731053227558732,-0.0013315794058144093
1772651348145997600,3.93099755859375,0.0010652635246515274,-0.0011984214652329683,0.00026631588116288185
1772651348156000500,3.94100048828125,0,0.0003994738217443228,-0.00026631588116288185
1772651348166003500,3.95100341796875,0.0010652635246515274,0.0025300008710473776,-0.00026631588116288185
1772651348176006400,3.96100634765625,0.0010652635246515274,-0.0011984214652329683,-0.00026631588116288185
1772651348186009300,3.97100927734375,0.0005326317623257637,-0.0011984214652329683,-0.0007989476434886456
1772651348196012300,3.98101220703125,0.0005326317623257637,0.0009321055840700865,-0.00026631588116288185
1772651348206015000,3.991014892578125,-0.0005326317623257637,-0.0006657897029072046,-0.00026631588116288185
1772651348216018000,4.001017822265625,0.0010652635246515274,-0.0011984214652329683,0.00026631588116288185
1772651348226020900,4.011020751953125,-0.0005326317623257637,0.0003994738217443228,0.00026631588116288185
1772651348236023800,4.02102392578125,0,-0.00013315794058144093,0.00026631588116288185
1772651348246026500,4.031026611328125,-0.0005326317623257637,0.0003994738217443228,0.0007989476434886456
1772651348256029700,4.04102978515625,0,-0.00013315794058144093,0.0007989476434886456
1772651348266033000,4.051032958984375,0.0010652635246515274,0.0003994738217443228,-0.00026631588116288185
1772651348276036400,4.061036376953125,0,0.0003994738217443228,-0.00026631588116288185
1772651348286039800,4.071039794921875,0,0.0025300008710473776,0.00026631588116288185
1772651348296043000,4.08104296875,-0.001597895286977291,-0.00013315794058144093,-0.0013315794058144093
1772651348306046500,4.09104638671875,0.0010652635246515274,-0.00013315794058144093,0.00026631588116288185
1772651348316049700,4.101049560546875,-0.0005326317623257637,-0.00013315794058144093,0.0007989476434886456
1772651348326053000,4.11105322265625,0,0.0003994738217443228,0.0007989476434886456
1772651348336056600,4.121056640625,-0.0005326317623257637,0.0003994738217443228,0.00026631588116288185
1772651348346059800,4.131059814453125,-0.0010652635246515274,-0.0011984214652329683,-0.001864211168140173
1772651348356063200,4.141063232421875,0,-0.0006657897029072046,-0.0007989476434886456
1772651348366066400,4.15106640625,-0.0005326317623257637,-0.00013315794058144093,0.0007989476434886456
1772651348376070000,4.16106982421875,-0.0005326317623257637,0.0003994738217443228,-0.0007989476434886456
1772651348386073300,4.1710732421875,-0.0005326317623257637,-0.0022636849898844957,-0.0013315794058144093
1772651348396076500,4.18107666015625,0.0005326317623257637,0.0009321055840700865,-0.00026631588116288185
1772651348406080000,4.191080078125,-0.0010652635246515274,0.0014647373463958502,-0.00026631588116288185
1772651348416083200,4.201083251953125,0,-0.0006657897029072046,-0.0007989476434886456
1772651348426086700,4.211086669921875,-0.0005326317623257637,-0.0006657897029072046,0.00026631588116288185
1772651348436090000,4.221090087890625,0,-0.00013315794058144093,0.0007989476434886456
1772651348446093300,4.23109326171875,0,-0.0006657897029072046,-0.00026631588116288185
1772651348456096800,4.2410966796875,-0.0005326317623257637,0.0003994738217443228,-0.00026631588116288185
1772651348466100200,4.251100341796875,-0.0010652635246515274,0.0003994738217443228,0.0007989476434886456
1772651348476103400,4.261103515625,0,0.0009321055840700865,0.0013315794058144093
1772651348486107000,4.27110693359375,-0.001597895286977291,-0.00013315794058144093,-0.0007989476434886456
1772651348496110000,4.281110107421875,0,0.0014647373463958502,-0.0007989476434886456
1772651348506113500,4.291113525390625,-0.0005326317623257637,0.0009321055840700865,0.001864211168140173
1772651348516117000,4.301116943359375,0,0.0014647373463958502,0.0007989476434886456
1772651348526120200,4.3111201171875,-0.0005326317623257637,0.0003994738217443228,0.0007989476434886456
1772651348536123600,4.32112353515625,-0.002130527049303055,0.0009321055840700865,0.0013315794058144093
1772651348546126800,4.331126953125,0.0005326317623257637,-0.00013315794058144093,0.00026631588116288185
1772651348556130300,4.34113037109375,-0.0005326317623257637,-0.0006657897029072046,0.0013315794058144093
1772651348566133800,4.3511337890625,-0.0010652635246515274,-0.0011984214652329683,0.0007989476434886456
1772651348576137000,4.361136962890625,0,-0.00013315794058144093,-0.00026631588116288185
1772651348586140400,4.371140380859375,-0.0010652635246515274,-0.0006657897029072046,-0.0007989476434886456
1772651348596143600,4.3811435546875,-0.0010652635246515274,-0.0011984214652329683,0.00026631588116288185
1772651348606147000,4.39114697265625,-0.001597895286977291,0.001997369108721614,0.0007989476434886456
1772651348616150500,4.401150634765625,-0.002130527049303055,0.0009321055840700865,0.0013315794058144093
1772651348626153700,4.41115380859375,0.0005326317623257637,-0.00013315794058144093,-0.0007989476434886456
1772651348636157200,4.4211572265625,-0.0005326317623257637,0.0003994738217443228,-0.0013315794058144093
1772651348646160600,4.43116064453125,-0.002130527049303055,0.0014647373463958502,0.0007989476434886456
1772651348656163800,4.441163818359375,-0.0010652635246515274,0.0009321055840700865,0.0013315794058144093
1772651348666167300,4.451167236328125,0,-0.0011984214652329683,0.0007989476434886456
1772651348676170500,4.46117041015625,0,0.0003994738217443228,0.001864211168140173
1772651348686174000,4.471174072265625,0.001597895286977291,-0.00013315794058144093,-0.0013315794058144093
1772651348696177400,4.481177490234375,-0.0005326317623257637,-0.001731053227558732,-0.0007989476434886456
1772651348706180600,4.4911806640625,-0.0005326317623257637,-0.00013315794058144093,-0.00026631588116288185
1772651348716184000,4.50118408203125,-0.0005326317623257637,-0.001731053227558732,-0.0007989476434886456
1772651348726187300,4.511187255859375,-0.001597895286977291,-0.0006657897029072046,-0.00026631588116288185
1772651348736190700,4.521190673828125,0.0005326317623257637,-0.0006657897029072046,-0.0013315794058144093
1772651348746194200,4.531194091796875,-0.0010652635246515274,-0.0006657897029072046,-0.00026631588116288185
1772651348756197600,4.54119775390625,0.0005326317623257637,-0.00013315794058144093,-0.00026631588116288185
1772651348766201600,4.55120166015625,0.0005326317623257637,0.0003994738217443228,-0.0007989476434886456
1772651348776205800,4.561205810546875,0.0010652635246515274,0.001997369108721614,-0.0007989476434886456
1772651348786209800,4.571209716796875,0.0005326317623257637,0.0003994738217443228,0.0007989476434886456
1772651348796213800,4.5812138671875,0.0005326317623257637,-0.00013315794058144093,0.0007989476434886456
1772651348806218000,4.591218017578125,-0.0005326317623257637,-0.0006657897029072046,-0.0013315794058144093
1772651348816222000,4.601221923828125,-0.001597895286977291,0.0003994738217443228,0.00026631588116288185
1772651348826226000,4.611225830078125,0.0010652635246515274,-0.0006657897029072046,0.0007989476434886456
1772651348836230100,4.621230224609375,0.0005326317623257637,-0.00013315794058144093,-0.00026631588116288185
1772651348846234000,4.631234130859375,0.0005326317623257637,0.0003994738217443228,0.0007989476434886456
1772651348856238000,4.641238037109375,0,-0.00013315794058144093,-0.0007989476434886456
1772651348866242000,4.651241943359375,0.0005326317623257637,-0.001731053227558732,0.0013315794058144093
1772651348876246300,4.661246337890625,-0.0010652635246515274,0.0009321055840700865,0.0013315794058144093
1772651348886250200,4.671250244140625,0,-0.00013315794058144093,-0.0007989476434886456
1772651348896254200,4.681254150390625,0.0005326317623257637,-0.0022636849898844957,-0.0007989476434886456
1772651348906258400,4.691258544921875,0.0005326317623257637,-0.00013315794058144093,0.001864211168140173
1772651348916262400,4.701262451171875,-0.0005326317623257637,0.0014647373463958502,-0.00026631588116288185
1772651348926266400,4.711266357421875,0.0005326317623257637,-0.00013315794058144093,0.00026631588116288185
1772651348936270600,4.7212705078125,-0.001597895286977291,-0.0006657897029072046,0.0013315794058144093
1772651348946274600,4.731274658203125,0.0010652635246515274,-0.00013315794058144093,0.0007989476434886456
1772651348956278500,4.741278564453125,0.0005326317623257637,-0.0011984214652329683,0.0013315794058144093
1772651348966282800,4.75128271484375,0,0.0003994738217443228,-0.00026631588116288185
1772651348976286700,4.76128662109375,0.0005326317623257637,-0.00013315794058144093,-0.00026631588116288185
1772651348986290700,4.771290771484375,0,-0.00013315794058144093,-0.00026631588116288185
1772651348996294700,4.781294677734375,0,-0.001731053227558732,0.0013315794058144093
1772651349006299000,4.791298828125,-0.0010652635246515274,0.0009321055840700865,0.0013315794058144093
1772651349016302800,4.801302734375,0.0005326317623257637,0.0009321055840700865,-0.0007989476434886456
1772651349026306800,4.811306884765625,-0.0010652635246515274,-0.00013315794058144093,0.0007989476434886456
1772651349036311000,4.82131103515625,0.0005326317623257637,0.0009321055840700865,0.0007989476434886456
1772651349046315000,4.83131494140625,0.0010652635246515274,-0.00013315794058144093,-0.0007989476434886456
1772651349056319000,4.841319091796875,-0.001597895286977291,0.0003994738217443228,0.00026631588116288185
1772651349066323000,4.851322998046875,0.0010652635246515274,-0.00013315794058144093,-0.0013315794058144093
1772651349076327200,4.8613271484375,-0.0010652635246515274,-0.00013315794058144093,0.00026631588116288185
1772651349086331100,4.8713310546875,-0.0010652635246515274,0.0003994738217443228,-0.0007989476434886456
1772651349096335000,4.881335205078125,0.0005326317623257637,0.0009321055840700865,-0.00026631588116288185
1772651349106339300,4.89133935546875,0.0005326317623257637,-0.00013315794058144093,0.0013315794058144093
1772651349116343300,4.90134326171875,-0.0010652635246515274,0.0003994738217443228,0.0007989476434886456
1772651349126347300,4.91134716796875,-0.001597895286977291,-0.0011984214652329683,0.0007989476434886456
1772651349136351500,4.9213515625,0,0.0003994738217443228,-0.00026631588116288185
1772651349146355500,4.93135546875,0,0.0009321055840700865,0.00026631588116288185
1772651349156359400,4.941359375,0,0.0003994738217443228,0.0013315794058144093
1772651349166363600,4.95136376953125,-0.0005326317623257637,-0.0006657897029072046,-0.0007989476434886456
1772651349176367600,4.96136767578125,0.0005326317623257637,0.0009321055840700865,-0.0007989476434886456
1772651349186371600,4.97137158203125,0.0005326317623257637,-0.0006657897029072046,0.0007989476434886456
1772651349196375600,4.98137548828125,-0.0005326317623257637,-0.0006657897029072046,-0.00026631588116288185
1772651349206379800,4.9913798828125,-0.0005326317623257637,0.0003994738217443228,-0.0007989476434886456
1772651349216383700,5.0013837890625,-0.0005326317623257637,-0.0006657897029072046,-0.0007989476434886456
1772651349226387700,5.0113876953125,-0.0010652635246515274,-0.0006657897029072046,-0.0007989476434886456
1772651349236391700,5.0213916015625,0.0005326317623257637,-0.00013315794058144093,0.00026631588116288185
1772651349256399400,5.0413994140625,0,-0.00013315794058144093,0.0007989476434886456
1772651349266402600,5.051402587890625,-0.0005326317623257637,0.0003994738217443228,0.00026631588116288185
1772651349276405800,5.06140576171875,-0.0005326317623257637,0.0003994738217443228,-0.00026631588116288185
1772651349286409000,5.071408935546875,-0.0010652635246515274,-0.001731053227558732,-0.001864211168140173
1772651349296412200,5.081412109375,-0.0005326317623257637,-0.0011984214652329683,-0.0023968429304659367
1772651349306415400,5.091415283203125,-0.0005326317623257637,-0.0006657897029072046,0.00026631588116288185
1772651349316418300,5.101418212890625,-0.0005326317623257637,-0.0006657897029072046,0.0007989476434886456
1772651349326421500,5.11142138671875,0.0005326317623257637,-0.0006657897029072046,-0.0013315794058144093
1772651349336424700,5.1214248046875,0,-0.0011984214652329683,-0.0029294746927917004
1772651349346428000,5.131427978515625,0,-0.00013315794058144093,-0.00026631588116288185
1772651349356431000,5.14143115234375,0.0005326317623257637,0.0003994738217443228,0.0007989476434886456
1772651349366434300,5.151434326171875,-0.0005326317623257637,-0.00013315794058144093,0.00026631588116288185
1772651349376437500,5.1614375,0,-0.001731053227558732,-0.0013315794058144093
1772651349386440400,5.1714404296875,0.0005326317623257637,-0.0006657897029072046,-0.00026631588116288185
1772651349396443600,5.181443603515625,0,0.0003994738217443228,-0.00026631588116288185
1772651349406446800,5.19144677734375,-0.0010652635246515274,0.0009321055840700865,0.00026631588116288185
1772651349416450000,5.201449951171875,-0.001597895286977291,0.001997369108721614,0.00026631588116288185
1772651349436456400,5.22145654296875,0.002130527049303055,0.0003994738217443228,-0.0007989476434886456
1772651349456462600,5.241462646484375,-0.0005326317623257637,0.0009321055840700865,0.0013315794058144093
1772651349466465800,5.2514658203125,-0.001597895286977291,-0.00013315794058144093,0.0007989476434886456
1772651349476469000,5.261468994140625,0,0.0003994738217443228,-0.00026631588116288185
1772651349486472200,5.27147216796875,-0.0010652635246515274,-0.0011984214652329683,0.00026631588116288185
1772651349496475400,5.281475341796875,0,0.0003994738217443228,0.00026631588116288185
1772651349506478300,5.291478271484375,0.0010652635246515274,0.0025300008710473776,-0.00026631588116288185
1772651349516481500,5.3014814453125,0.0010652635246515274,-0.0006657897029072046,-0.00026631588116288185
1772651349526484700,5.311484619140625,-0.0005326317623257637,0.0009321055840700865,0.0013315794058144093
1772651349536488000,5.321488037109375,-0.0005326317623257637,-0.00013315794058144093,0.0013315794058144093
1772651349546491100,5.3314912109375,0.0010652635246515274,-0.0006657897029072046,0.0007989476434886456
1772651349556494300,5.341494384765625,-0.0010652635246515274,-0.001731053227558732,-0.00026631588116288185
1772651349566497300,5.351497314453125,-0.0010652635246515274,0.0009321055840700865,-0.00026631588116288185
1772651349576500500,5.36150048828125,0.0010652635246515274,-0.00013315794058144093,-0.00026631588116288185
1772651349586503700,5.371503662109375,0.0005326317623257637,0.0003994738217443228,0.00026631588116288185
1772651349596507000,5.3815068359375,-0.0010652635246515274,-0.0011984214652329683,-0.00026631588116288185
1772651349606510000,5.391510009765625,0.0005326317623257637,-0.0011984214652329683,-0.0007989476434886456
1772651349616513300,5.40151318359375,0.0010652635246515274,0.0009321055840700865,-0.0013315794058144093
1772651349626516200,5.41151611328125,-0.0005326317623257637,0.0014647373463958502,0.00026631588116288185
1772651349636519400,5.42151953125,0,0.0003994738217443228,-0.00026631588116288185
1772651349646522600,5.431522705078125,0,-0.00013315794058144093,0.00026631588116288185
1772651349656525800,5.44152587890625,0.0010652635246515274,-0.0011984214652329683,0.0007989476434886456
1772651349666529000,5.451529052734375,0.00013315794058144093,-0.00013315794058144093,-0.00026631588116288185
1772651349676532200,5.4615322265625,-0.0003994738217443228,-0.0011984214652329683,0.00026631588116288185
1772651349686535200,5.47153515625,0.0006657897029072046,-0.00013315794058144093,-0.0007989476434886456
1772651349696538400,5.481538330078125,-0.0003994738217443228,0.0009321055840700865,-0.0007989476434886456
1772651349706541600,5.49154150390625,0.00013315794058144093,0.001997369108721614,0.001864211168140173
1772651349716544800,5.501544677734375,0.0022636849898844957,0.0009321055840700865,0.00026631588116288185
1772651349726548000,5.5115478515625,-0.0003994738217443228,-0.00013315794058144093,-0.0013315794058144093
1772651349736551200,5.52155126953125,-0.0003994738217443228,0.0014647373463958502,-0.0013315794058144093
1772651349746554400,5.531554443359375,-0.0014647373463958502,-0.0027963167522102594,0.00026631588116288185
1772651349756557600,5.5415576171875,-0.0003994738217443228,-0.001731053227558732,0.00026631588116288185
1772651349776564000,5.56156396484375,-0.0003994738217443228,0.0003994738217443228,-0.0007989476434886456
1772651349786567400,5.5715673828125,0.00013315794058144093,-0.00013315794058144093,-0.00026631588116288185
1772651349796570600,5.581570556640625,-0.0003994738217443228,0.0009321055840700865,0.0013315794058144093
1772651349806573800,5.59157373046875,0.00013315794058144093,0.0003994738217443228,-0.00026631588116288185
1772651349816577300,5.601577392578125,0.0011984214652329683,0.0003994738217443228,-0.0007989476434886456
1772651349826580500,5.61158056640625,0.0011984214652329683,-0.0022636849898844957,0.0007989476434886456
1772651349836583700,5.621583740234375,-0.001997369108721614,0.0003994738217443228,0.0007989476434886456
1772651349846587100,5.631587158203125,-0.0003994738217443228,0.0009321055840700865,0.0007989476434886456
1772651349856590300,5.64159033203125,0.0011984214652329683,0.0009321055840700865,0.0013315794058144093
1772651349866593500,5.651593505859375,-0.0003994738217443228,-0.0022636849898844957,-0.00026631588116288185
1772651349876597000,5.661596923828125,0.0006657897029072046,0.0003994738217443228,0.0013315794058144093
1772651349886600200,5.67160009765625,0.0011984214652329683,0.0003994738217443228,-0.00026631588116288185
1772651349896603400,5.681603271484375,0.0011984214652329683,0.001997369108721614,0.0007989476434886456
1772651349916610000,5.701610107421875,-0.0003994738217443228,0.0014647373463958502,0.0007989476434886456
1772651349926613200,5.71161328125,-0.0009321055840700865,0.0009321055840700865,-0.0007989476434886456
1772651349936616700,5.72161669921875,0.0006657897029072046,-0.001731053227558732,-0.0013315794058144093
1772651349946620000,5.731619873046875,0.001731053227558732,-0.00013315794058144093,-0.0007989476434886456
1772651349956623000,5.741623046875,-0.001997369108721614,0.0014647373463958502,-0.001864211168140173
1772651349976629800,5.761629638671875,0.0011984214652329683,-0.0006657897029072046,0.0013315794058144093
1772651349986633000,5.771633056640625,0.0011984214652329683,-0.0027963167522102594,0.001864211168140173
1772651349996636200,5.78163623046875,-0.0003994738217443228,0.0009321055840700865,0.001864211168140173
1772651350006639600,5.7916396484375,0.0006657897029072046,-0.00013315794058144093,-0.0007989476434886456
1772651350016642800,5.801642822265625,0.0011984214652329683,0.0009321055840700865,0.00026631588116288185
1772651350026646000,5.81164599609375,-0.0003994738217443228,0.0003994738217443228,0.00026631588116288185
1772651350036649500,5.8216494140625,0.00013315794058144093,-0.0006657897029072046,0.00026631588116288185
1772651350046652700,5.831652587890625,0.0006657897029072046,-0.0006657897029072046,0.00026631588116288185
1772651350056656000,5.84165576171875,0.00013315794058144093,-0.0006657897029072046,0.00026631588116288185
1772651350066659300,5.851659423828125,-0.0003994738217443228,0.0003994738217443228,-0.0007989476434886456
1772651350076662500,5.86166259765625,-0.0009321055840700865,-0.0006657897029072046,-0.0013315794058144093
1772651350086665700,5.871665771484375,0.0011984214652329683,-0.00013315794058144093,-0.00026631588116288185
1772651350096669200,5.881669189453125,0.0011984214652329683,-0.0006657897029072046,-0.00026631588116288185
1772651350106672400,5.89167236328125,0.0011984214652329683,0.0003994738217443228,-0.00026631588116288185
1772651350116675600,5.901675537109375,0.0006657897029072046,0.0003994738217443228,0.0007989476434886456
1772651350126679000,5.911678955078125,0.00013315794058144093,-0.001731053227558732,0.0013315794058144093
1772651350136682200,5.92168212890625,0.00013315794058144093,-0.0006657897029072046,0.0007989476434886456
1772651350146685400,5.931685546875,-0.0003994738217443228,-0.001731053227558732,0.0007989476434886456
1772651350156689000,5.94168896484375,0.0006657897029072046,-0.001731053227558732,0.0007989476434886456
1772651350166692000,5.951692138671875,-0.0014647373463958502,0.0003994738217443228,-0.0013315794058144093
1772651350176695300,5.9616953125,-0.0003994738217443228,-0.00013315794058144093,0.00026631588116288185
1772651350186698800,5.97169873046875,0.00013315794058144093,0.0009321055840700865,-0.00026631588116288185
1772651350196702000,5.981701904296875,0.00013315794058144093,0.0009321055840700865,-0.0013315794058144093
1772651350206705200,5.991705078125,0.0006657897029072046,0.0003994738217443228,-0.0007989476434886456
1772651350216708600,6.00170849609375,0.00013315794058144093,-0.0006657897029072046,0.0007989476434886456
1772651350226711800,6.0117119140625,0.00013315794058144093,0.0003994738217443228,-0.00026631588116288185
1772651350236715000,6.021715087890625,-0.0014647373463958502,0.0003994738217443228,0.00026631588116288185
1772651350246718500,6.031718505859375,0.0011984214652329683,-0.00013315794058144093,0.0013315794058144093
1772651350256721400,6.041721435546875,0.001731053227558732,-0.0011984214652329683,0.0013315794058144093
1772651350266724400,6.051724365234375,-0.0009321055840700865,-0.0022636849898844957,0.00026631588116288185
1772651350276727300,6.061727294921875,-0.001997369108721614,-0.001731053227558732,0.00026631588116288185
1772651350286730200,6.071730224609375,-0.0009321055840700865,0.0003994738217443228,-0.001864211168140173
1772651350296733200,6.081733154296875,0.0006657897029072046,-0.0006657897029072046,-0.00026631588116288185
1772651350306736000,6.091736083984375,-0.0014647373463958502,-0.00013315794058144093,0.00026631588116288185
1772651350316739000,6.101739013671875,0.00013315794058144093,0.0003994738217443228,-0.00026631588116288185
1772651350326742000,6.111741943359375,0.00013315794058144093,-0.001731053227558732,-0.0013315794058144093
1772651350336745000,6.121744873046875,0.00013315794058144093,-0.00013315794058144093,-0.0007989476434886456
1772651350346748000,6.131747802734375,-0.0009321055840700865,0.0003994738217443228,-0.00026631588116288185
1772651350356750800,6.141750732421875,-0.0009321055840700865,-0.0011984214652329683,0.00026631588116288185
1772651350366753800,6.15175390625,0.00013315794058144093,0.0014647373463958502,0.00026631588116288185
1772651350376756700,6.1617568359375,0.001731053227558732,-0.00013315794058144093,-0.00026631588116288185
1772651350386759700,6.171759765625,0.0006657897029072046,-0.0006657897029072046,0.00026631588116288185
1772651350396762600,6.1817626953125,0.0006657897029072046,0.0003994738217443228,0.0007989476434886456
1772651350406765600,6.191765625,0.0011984214652329683,0.0009321055840700865,0.00026631588116288185
1772651350416768500,6.2017685546875,0.0006657897029072046,-0.00013315794058144093,0.00026631588116288185
1772651350426771500,6.211771484375,0.0011984214652329683,0.0009321055840700865,-0.00026631588116288185
1772651350436774400,6.2217744140625,0.0006657897029072046,0.0014647373463958502,-0.0007989476434886456
1772651350446777300,6.23177734375,0.001731053227558732,-0.0011984214652329683,-0.001864211168140173
1772651350456780300,6.2417802734375,-0.0009321055840700865,-0.0006657897029072046,-0.00026631588116288185
1772651350466783200,6.251783203125,-0.0009321055840700865,0.0014647373463958502,0.0007989476434886456
1772651350476786200,6.2617861328125,0.00013315794058144093,-0.001731053227558732,-0.00026631588116288185
1772651350486789000,6.2717890625,0.00013315794058144093,-0.0006657897029072046,-0.00026631588116288185
1772651350496792000,6.2817919921875,0.0011984214652329683,0.0003994738217443228,0.00026631588116288185
1772651350506795000,6.291794921875,-0.0009321055840700865,0.0009321055840700865,-0.0013315794058144093
1772651350516798000,6.3017978515625,-0.0003994738217443228,0.0009321055840700865,0.0007989476434886456
1772651350526801000,6.31180078125,-0.0009321055840700865,0.0003994738217443228,0.00026631588116288185
1772651350536803800,6.321803955078125,-0.0009321055840700865,0.0014647373463958502,0.0007989476434886456
1772651350546806800,6.331806884765625,-0.0009321055840700865,0.0009321055840700865,-0.0023968429304659367
1772651350556809700,6.341809814453125,0.00013315794058144093,-0.0006657897029072046,-0.00026631588116288185
1772651350566812700,6.351812744140625,-0.0014647373463958502,0.0009321055840700865,-0.0007989476434886456
1772651350576815600,6.361815673828125,0.0006657897029072046,0.0003994738217443228,-0.00026631588116288185
1772651350586818600,6.371818603515625,0.0006657897029072046,0.0009321055840700865,-0.001864211168140173
1772651350596821500,6.381821533203125,0.00013315794058144093,-0.00013315794058144093,-0.00026631588116288185
1772651350606824400,6.391824462890625,-0.0003994738217443228,-0.0011984214652329683,-0.0013315794058144093
1772651350616827400,6.401827392578125,-0.0003994738217443228,-0.0006657897029072046,0.0007989476434886456
1772651350626830300,6.411830322265625,0.0011984214652329683,-0.00013315794058144093,-0.0007989476434886456
1772651350636833300,6.421833251953125,-0.0003994738217443228,-0.0011984214652329683,-0.0007989476434886456
1772651350646836200,6.431836181640625,0.0011984214652329683,0.001997369108721614,0.00026631588116288185
1772651350656839200,6.441839111328125,-0.0003994738217443228,-0.00013315794058144093,-0.0013315794058144093
1772651350666842000,6.451842041015625,0.0022636849898844957,-0.0011984214652329683,0.0007989476434886456
1772651350676845000,6.461844970703125,-0.0003994738217443228,0.0014647373463958502,-0.00026631588116288185
1772651350686848000,6.471847900390625,0.00013315794058144093,0.0003994738217443228,0.00026631588116288185
1772651350696851000,6.481850830078125,-0.0003994738217443228,0.0009321055840700865,-0.00026631588116288185
1772651350706854000,6.49185400390625,0.00013315794058144093,0.0009321055840700865,0.0007989476434886456
1772651350716856800,6.50185693359375,-0.0014647373463958502,0.0014647373463958502,0.00026631588116288185
1772651350726859800,6.51185986328125,0.0006657897029072046,0.0009321055840700865,-0.0007989476434886456
1772651350736862700,6.52186279296875,0.0006657897029072046,0.0003994738217443228,0.001864211168140173
1772651350746865700,6.53186572265625,-0.0003994738217443228,0.0009321055840700865,0.0007989476434886456
1772651350756868900,6.541868896484375,-0.0003994738217443228,-0.0006657897029072046,0.0013315794058144093
1772651350776875500,6.56187548828125,0.00013315794058144093,-0.0006657897029072046,-0.0013315794058144093
1772651350786878700,6.571878662109375,0.0006657897029072046,-0.001731053227558732,-0.00026631588116288185
1772651350796882200,6.581882080078125,-0.0014647373463958502,0.0003994738217443228,0.00026631588116288185
1772651350806885600,6.5918857421875,0.00013315794058144093,-0.00013315794058144093,-0.0007989476434886456
1772651350816888800,6.601888916015625,0.0006657897029072046,0.0009321055840700865,-0.00026631588116288185
1772651350826892300,6.611892333984375,-0.001997369108721614,-0.00013315794058144093,-0.00026631588116288185
1772651350836895500,6.6218955078125,0.00013315794058144093,0.0003994738217443228,0.0007989476434886456
1772651350846899000,6.63189892578125,0.00013315794058144093,0.0003994738217443228,0.0007989476434886456
1772651350856902400,6.64190234375,0.0006657897029072046,-0.0006657897029072046,0.00026631588116288185
1772651350866905600,6.651905517578125,0.0006657897029072046,-0.00013315794058144093,0.0007989476434886456
1772651350876909000,6.661908935546875,-0.0009321055840700865,-0.0006657897029072046,0.00026631588116288185
1772651350886912300,6.671912353515625,0.0006657897029072046,-0.0022636849898844957,0.0013315794058144093
1772651350896915700,6.681915771484375,0.0006657897029072046,0.0009321055840700865,-0.0007989476434886456
1772651350906919200,6.691919189453125,0.00013315794058144093,-0.0022636849898844957,0.0007989476434886456
1772651350916922400,6.70192236328125,-0.0014647373463958502,0.0003994738217443228,-0.00026631588116288185
1772651350926925800,6.71192578125,-0.0003994738217443228,0.0009321055840700865,-0.00026631588116288185
1772651350936929000,6.721928955078125,0.0011984214652329683,-0.001731053227558732,-0.0013315794058144093
1772651350946932500,6.731932373046875,0.00013315794058144093,-0.00013315794058144093,0.0007989476434886456
1772651350956935700,6.741935791015625,-0.0009321055840700865,-0.0011984214652329683,0.00026631588116288185
1772651350966939100,6.751939208984375,-0.0003994738217443228,-0.0006657897029072046,0.00026631588116288185
1772651350976942600,6.761942626953125,0.00013315794058144093,-0.001731053227558732,-0.0007989476434886456
1772651350986945800,6.77194580078125,0.0011984214652329683,0.0009321055840700865,0.0013315794058144093
1772651350996949200,6.78194921875,0.0006657897029072046,-0.0006657897029072046,-0.0007989476434886456
1772651351006952400,6.791952392578125,0.00013315794058144093,0.0003994738217443228,0.0007989476434886456
1772651351016956000,6.801955810546875,0.00013315794058144093,0.0003994738217443228,-0.001864211168140173
1772651351026959000,6.811958984375,-0.0009321055840700865,-0.0006657897029072046,0.0013315794058144093
1772651351036962600,6.821962646484375,0.00013315794058144093,-0.0011984214652329683,0.0007989476434886456
1772651351046966000,6.831966064453125,0.001731053227558732,-0.0011984214652329683,-0.0013315794058144093
1772651351056969200,6.84196923828125,0.0006657897029072046,-0.0027963167522102594,-0.00026631588116288185
1772651351066972700,6.85197265625,-0.0003994738217443228,0.0009321055840700865,-0.0013315794058144093
1772651351076975900,6.861975830078125,-0.0003994738217443228,-0.001731053227558732,0.00026631588116288185
1772651351086979300,6.871979248046875,0.0011984214652329683,0.001997369108721614,-0.0013315794058144093
1772651351096982500,6.881982421875,0.00013315794058144093,0.0014647373463958502,-0.0007989476434886456
1772651351106986000,6.891986083984375,0.0011984214652329683,0.0009321055840700865,-0.00026631588116288185
1772651351116989400,6.901989501953125,0.0006657897029072046,-0.0022636849898844957,0.0013315794058144093
1772651351126992600,6.91199267578125,0.0006657897029072046,0.0009321055840700865,0.001864211168140173
1772651351136996000,6.92199609375,0.00013315794058144093,-0.001731053227558732,-0.00026631588116288185
1772651351146999300,6.931999267578125,0.0022636849898844957,0.0003994738217443228,0.00026631588116288185
1772651351157002800,6.942002685546875,0.00013315794058144093,-0.0011984214652329683,0.0007989476434886456
1772651351167006200,6.952006103515625,0.00013315794058144093,0.0009321055840700865,-0.0013315794058144093
1772651351177009400,6.962009521484375,0.00013315794058144093,-0.00013315794058144093,-0.00026631588116288185
1772651351187012900,6.972012939453125,-0.0003994738217443228,-0.0006657897029072046,-0.001864211168140173
1772651351197016000,6.98201611328125,0.001731053227558732,0.001997369108721614,0.0007989476434886456
1772651351207019500,6.99201953125,-0.0003994738217443228,0.001997369108721614,-0.0007989476434886456
1772651351217023000,7.00202294921875,-0.0003994738217443228,0.0003994738217443228,0.0013315794058144093
1772651351227026200,7.012026123046875,0.00013315794058144093,-0.0027963167522102594,0.0007989476434886456
1772651351237029600,7.022029541015625,0.0006657897029072046,0.0014647373463958502,-0.00026631588116288185
1772651351247032800,7.03203271484375,0.0011984214652329683,0.0014647373463958502,0.00026631588116288185
1772651351257036000,7.0420361328125,0.0006657897029072046,-0.00013315794058144093,-0.00026631588116288185
1772651351267039200,7.052039306640625,0.0006657897029072046,0.0014647373463958502,0.00026631588116288185
1772651351277042400,7.06204248046875,-0.0014647373463958502,0.0003994738217443228,-0.0007989476434886456
1772651351287045600,7.072045654296875,0.00013315794058144093,-0.003328948514536023,0.00026631588116288185
1772651351297048800,7.082048828125,0.0006657897029072046,-0.0006657897029072046,-0.00026631588116288185
1772651351307052000,7.092052001953125,-0.0003994738217443228,0.0014647373463958502,0.00026631588116288185
1772651351327058400,7.112058349609375,0.0011984214652329683,-0.0011984214652329683,0.0007989476434886456
1772651351337061600,7.1220615234375,0.0006657897029072046,-0.00013315794058144093,0.00026631588116288185
1772651351347064800,7.13206494140625,0.0011984214652329683,0.0009321055840700865,-0.0007989476434886456
1772651351357068000,7.142068115234375,-0.0009321055840700865,-0.0011984214652329683,0.00026631588116288185
1772651351367071200,7.1520712890625,-0.0009321055840700865,0.0025300008710473776,-0.00026631588116288185
1772651351377074400,7.162074462890625,-0.0009321055840700865,-0.0006657897029072046,0.0007989476434886456
1772651351387077600,7.17207763671875,-0.0009321055840700865,0.0003994738217443228,-0.00026631588116288185
1772651351397080800,7.182080810546875,0.0006657897029072046,0.0014647373463958502,-0.00026631588116288185
1772651351407084000,7.192083984375,0.00013315794058144093,-0.0006657897029072046,-0.0007989476434886456
1772651351417087200,7.202087158203125,0.0005326317623257637,-0.00013315794058144093,0.00026631588116288185
1772651351427090400,7.21209033203125,0,0.0009321055840700865,-0.0007989476434886456
1772651351437093600,7.22209375,-0.0010652635246515274,0.0009321055840700865,-0.00026631588116288185
1772651351447096800,7.232096923828125,-0.0005326317623257637,-0.0006657897029072046,-0.00026631588116288185
1772651351457100000,7.24210009765625,0,-0.00013315794058144093,0.00026631588116288185
1772651351467103200,7.252103271484375,0,0.0003994738217443228,-0.0013315794058144093
1772651351477106400,7.2621064453125,0.002130527049303055,-0.0011984214652329683,0.00026631588116288185
1772651351487109600,7.272109619140625,0.0005326317623257637,-0.00013315794058144093,-0.0007989476434886456
1772651351497112800,7.28211279296875,0,-0.0006657897029072046,0.0013315794058144093
1772651351507116000,7.292115966796875,0.001597895286977291,0.001997369108721614,0.0013315794058144093
1772651351517119200,7.302119140625,-0.0005326317623257637,0.0009321055840700865,0.00026631588116288185
1772651351527122400,7.312122314453125,0.0005326317623257637,-0.0011984214652329683,-0.0007989476434886456
1772651351537125600,7.322125732421875,-0.0005326317623257637,0.0003994738217443228,-0.0013315794058144093
1772651351547128800,7.33212890625,-0.0005326317623257637,0.0009321055840700865,-0.00026631588116288185
1772651351557132000,7.342132080078125,0.0010652635246515274,-0.00013315794058144093,-0.0013315794058144093
1772651351567135200,7.35213525390625,0,-0.00013315794058144093,0.001864211168140173
1772651351577138400,7.362138427734375,-0.0005326317623257637,0.0014647373463958502,0.00026631588116288185
1772651351587141600,7.3721416015625,0.0010652635246515274,0.0025300008710473776,0.0007989476434886456
1772651351597144800,7.382144775390625,-0.001597895286977291,0.0003994738217443228,-0.00026631588116288185
1772651351607148000,7.39214794921875,0,0.0003994738217443228,0.00026631588116288185
1772651351617151200,7.402151123046875,-0.0010652635246515274,0.0014647373463958502,0.00026631588116288185
1772651351627154400,7.412154541015625,0.0005326317623257637,0.0025300008710473776,-0.00026631588116288185
1772651351637157600,7.42215771484375,0.0005326317623257637,0.0003994738217443228,0.001864211168140173
1772651351647160800,7.432160888671875,0,-0.0006657897029072046,0.00026631588116288185
1772651351657163800,7.442163818359375,0.0005326317623257637,-0.00013315794058144093,-0.00026631588116288185
1772651351667167200,7.452167236328125,0.0005326317623257637,0.0003994738217443228,0.00026631588116288185
1772651351677170200,7.462170166015625,0.001597895286977291,0.0009321055840700865,-0.00026631588116288185
1772651351687173400,7.47217333984375,0,-0.0011984214652329683,-0.0007989476434886456
1772651351697176600,7.482176513671875,0,-0.00013315794058144093,-0.00026631588116288185
1772651351707179800,7.4921796875,0.0005326317623257637,-0.0011984214652329683,-0.0007989476434886456
1772651351717183000,7.502182861328125,-0.001597895286977291,-0.0027963167522102594,0.00026631588116288185
1772651351727186200,7.512186279296875,-0.0010652635246515274,-0.0027963167522102594,-0.0013315794058144093
1772651351737189400,7.522189453125,0.0005326317623257637,-0.0022636849898844957,0.0013315794058144093
1772651351747192600,7.532192626953125,-0.0010652635246515274,-0.00013315794058144093,-0.0007989476434886456
1772651351757196300,7.5421962890625,-0.0005326317623257637,-0.0011984214652329683,-0.0013315794058144093
1772651351767200300,7.5522001953125,-0.0010652635246515274,-0.0006657897029072046,-0.00026631588116288185
1772651351777204000,7.562203857421875,-0.002130527049303055,-0.00013315794058144093,0.0023968429304659367
1772651351787208000,7.5722080078125,0,-0.001731053227558732,-0.001864211168140173
1772651351797212000,7.5822119140625,-0.0005326317623257637,0.0003994738217443228,-0.0007989476434886456
1772651351817219600,7.602219482421875,0.0005326317623257637,0.0009321055840700865,-0.00026631588116288185
1772651351827223600,7.6122236328125,0,0.0009321055840700865,-0.00026631588116288185
1772651351837227500,7.6222275390625,0.0005326317623257637,0.001997369108721614,0.00026631588116288185
1772651351847231200,7.632231201171875,-0.0010652635246515274,0.001997369108721614,0.00026631588116288185
1772651351857235200,7.642235107421875,-0.0010652635246515274,-0.001731053227558732,0.0007989476434886456
1772651351867239200,7.6522392578125,-0.0005326317623257637,-0.0011984214652329683,0.00026631588116288185
1772651351877243100,7.6622431640625,0.002130527049303055,0.0003994738217443228,0.0013315794058144093
1772651351887246800,7.672246826171875,0.0010652635246515274,-0.0006657897029072046,0.0007989476434886456
1772651351897250800,7.682250732421875,0.0010652635246515274,0.0009321055840700865,-0.001864211168140173
1772651351907254800,7.6922548828125,0.0010652635246515274,0.0003994738217443228,-0.0013315794058144093
1772651351917258800,7.7022587890625,-0.0005326317623257637,-0.0011984214652329683,0.0013315794058144093
1772651351927262500,7.712262451171875,-0.0005326317623257637,0.0014647373463958502,-0.0013315794058144093
1772651351937266400,7.722266357421875,0.0005326317623257637,-0.001731053227558732,0.00026631588116288185
1772651351947270400,7.7322705078125,-0.0010652635246515274,-0.0006657897029072046,-0.0007989476434886456
1772651351957274400,7.7422744140625,-0.0005326317623257637,0.0014647373463958502,0.00026631588116288185
1772651351967278000,7.752278076171875,-0.0010652635246515274,-0.001731053227558732,-0.00026631588116288185
1772651351977282000,7.762281982421875,0.0005326317623257637,-0.001731053227558732,-0.0007989476434886456
1772651351987286000,7.7722861328125,0,-0.00013315794058144093,0.00026631588116288185
1772651351997290000,7.7822900390625,-0.0026631588116288185,-0.00013315794058144093,0.0007989476434886456
1772651352007293700,7.792293701171875,0.0005326317623257637,0.0003994738217443228,-0.0007989476434886456
1772651352017297700,7.802297607421875,-0.0005326317623257637,0.001997369108721614,-0.0013315794058144093
1772651352027301600,7.812301513671875,0,0.0003994738217443228,-0.00026631588116288185
1772651352037305600,7.8223056640625,-0.0010652635246515274,-0.00013315794058144093,0.0007989476434886456
1772651352047309300,7.832309326171875,-0.001597895286977291,0.0003994738217443228,0.00026631588116288185
1772651352057313300,7.842313232421875,0.0005326317623257637,0.0014647373463958502,0.0007989476434886456
1772651352067317200,7.852317138671875,0,0.0014647373463958502,0.00026631588116288185
1772651352077321000,7.862321044921875,-0.0005326317623257637,-0.00013315794058144093,0.00026631588116288185
1772651352087325000,7.872324951171875,0,-0.0006657897029072046,0.0007989476434886456
1772651352097329000,7.882328857421875,0.0005326317623257637,0.0014647373463958502,-0.00026631588116288185
1772651352107332900,7.892332763671875,0.0005326317623257637,0.0003994738217443228,-0.0023968429304659367
1772651352117336600,7.902336669921875,0.001597895286977291,0.0009321055840700865,-0.0007989476434886456
1772651352127340500,7.912340576171875,0,-0.0006657897029072046,-0.0007989476434886456
1772651352137344500,7.922344482421875,0,0.0009321055840700865,-0.001864211168140173
1772651352147348500,7.932348388671875,0,-0.00013315794058144093,-0.0013315794058144093
1772651352157352400,7.9423525390625,0,-0.00013315794058144093,-0.0013315794058144093
1772651352167356200,7.952356201171875,0,-0.0006657897029072046,-0.00026631588116288185
1772651352177360100,7.962360107421875,-0.001597895286977291,-0.00013315794058144093,0.0007989476434886456
1772651352187364000,7.972364013671875,0,0.0003994738217443228,0.00026631588116288185
1772651352197368000,7.9823681640625,0,0.0014647373463958502,-0.0013315794058144093
1772651352217375700,8.002375732421875,0.0005326317623257637,0.0014647373463958502,-0.0007989476434886456
1772651352227379700,8.012379638671876,0.0005326317623257637,-0.0006657897029072046,-0.001864211168140173
1772651352237383400,8.022383544921874,0,0.0009321055840700865,0.0007989476434886456
1772651352247387400,8.032387451171875,-0.0005326317623257637,0.0014647373463958502,0.0007989476434886456
1772651352257391000,8.04239111328125,-0.0010652635246515274,-0.0006657897029072046,-0.0013315794058144093
1772651352267394600,8.05239453125,-0.0005326317623257637,-0.001731053227558732,0.0007989476434886456
1772651352277398000,8.06239794921875,0.0005326317623257637,0.0003994738217443228,-0.00026631588116288185
1772651352287401500,8.0724013671875,0,0.0003994738217443228,-0.0007989476434886456
1772651352297405000,8.082405029296876,-0.0005326317623257637,0.0009321055840700865,0.00026631588116288185
1772651352307408400,8.092408447265624,0.0010652635246515274,0.0014647373463958502,-0.0013315794058144093
1772651352317411800,8.102411865234375,0.0010652635246515274,-0.0006657897029072046,0.00026631588116288185
1772651352327415300,8.112415283203125,0.0005326317623257637,0.0003994738217443228,0.00026631588116288185
1772651352337418800,8.122418701171876,0.0010652635246515274,-0.0011984214652329683,0.00026631588116288185
1772651352347422200,8.132422119140625,-0.0010652635246515274,-0.00013315794058144093,-0.0013315794058144093
1772651352357425700,8.14242578125,0.0005326317623257637,-0.00013315794058144093,0.0007989476434886456
1772651352367429400,8.152429443359376,-0.0005326317623257637,-0.0011984214652329683,0.00026631588116288185
1772651352377432600,8.1624326171875,-0.003195790573954582,-0.0022636849898844957,-0.00026631588116288185
1772651352387436300,8.172436279296875,-0.0010652635246515274,-0.0011984214652329683,0.00026631588116288185
1772651352397439700,8.182439697265625,0.0005326317623257637,-0.00013315794058144093,-0.00026631588116288185
1772651352407443200,8.192443115234376,0.0010652635246515274,-0.00013315794058144093,-0.00026631588116288185
1772651352417446700,8.20244677734375,0,-0.0006657897029072046,-0.00026631588116288185
1772651352427450000,8.2124501953125,0.001597895286977291,-0.0006657897029072046,0.001864211168140173
1772651352437453600,8.22245361328125,-0.0010652635246515274,-0.00013315794058144093,0.00026631588116288185
1772651352447457000,8.23245703125,0,0.0003994738217443228,-0.0007989476434886456
1772651352457460500,8.24246044921875,0.0010652635246515274,0.0003994738217443228,-0.0007989476434886456
1772651352467464000,8.2524638671875,0.0010652635246515274,-0.00013315794058144093,-0.0023968429304659367
1772651352477467400,8.26246728515625,-0.0005326317623257637,-0.0011984214652329683,0.0007989476434886456
1772651352487470800,8.272470947265624,0.0005326317623257637,0.0003994738217443228,-0.00026631588116288185
1772651352497474300,8.282474365234375,-0.0010652635246515274,0.0009321055840700865,-0.00026631588116288185
1772651352507477800,8.292477783203125,-0.0005326317623257637,-0.0006657897029072046,-0.0007989476434886456
1772651352517481200,8.302481201171876,0.0010652635246515274,-0.00013315794058144093,-0.0013315794058144093
1772651352527484700,8.312484619140625,0,-0.0006657897029072046,0.00026631588116288185
1772651352537488100,8.322488037109375,0,0.0009321055840700865,-0.00026631588116288185
1772651352547491600,8.33249169921875,0.0005326317623257637,0.0009321055840700865,-0.0023968429304659367
1772651352557495000,8.3424951171875,-0.0005326317623257637,-0.0011984214652329683,0.00026631588116288185
1772651352567498500,8.35249853515625,-0.0005326317623257637,-0.0006657897029072046,0.00026631588116288185
1772651352577502000,8.362501953125,0.0010652635246515274,-0.0011984214652329683,0.0007989476434886456
1772651352587505400,8.37250537109375,0,0.0009321055840700865,0.0007989476434886456
1772651352597509000,8.382509033203124,0,0.0009321055840700865,0.0007989476434886456
1772651352607512600,8.3925126953125,0,0.0003994738217443228,-0.0007989476434886456
1772651352617516000,8.40251611328125,-0.001597895286977291,-0.0011984214652329683,0.0007989476434886456
1772651352627519500,8.41251953125,0,-0.0011984214652329683,0.00026631588116288185
1772651352637523000,8.42252294921875,-0.0005326317623257637,-0.0006657897029072046,-0.0013315794058144093
1772651352647526400,8.4325263671875,0,0.0009321055840700865,0.00026631588116288185
1772651352657529900,8.44252978515625,0.0005326317623257637,-0.0011984214652329683,0.0007989476434886456
1772651352667533300,8.452533203125,-0.0005326317623257637,-0.0006657897029072046,-0.0013315794058144093
1772651352677536800,8.462536865234375,-0.0005326317623257637,0.0003994738217443228,0.00026631588116288185
1772651352687540200,8.472540283203125,0.0010652635246515274,0.0003994738217443228,-0.00026631588116288185
1772651352697543700,8.482543701171876,-0.0010652635246515274,-0.00013315794058144093,-0.00026631588116288185
1772651352707547100,8.492547119140625,0,-0.0011984214652329683,0.00026631588116288185
1772651352717550600,8.502550537109375,-0.001597895286977291,-0.00013315794058144093,0.0007989476434886456
1772651352727554000,8.512553955078126,0,-0.0011984214652329683,-0.00026631588116288185
1772651352737557500,8.5225576171875,-0.0010652635246515274,-0.00013315794058144093,0.00026631588116288185
1772651352747561000,8.53256103515625,-0.0005326317623257637,-0.00013315794058144093,-0.001864211168140173
1772651352757564000,8.54256396484375,-0.0005326317623257637,-0.00013315794058144093,0.0013315794058144093
1772651352767566600,8.552566650390625,0.0005326317623257637,-0.0006657897029072046,-0.0007989476434886456
1772651352777569000,8.562569091796876,0.0005326317623257637,-0.00013315794058144093,-0.0013315794058144093
1772651352787571700,8.57257177734375,0.0005326317623257637,0.0003994738217443228,-0.0007989476434886456
1772651352797574400,8.582574462890625,-0.0005326317623257637,-0.00013315794058144093,-0.0007989476434886456
1772651352807577000,8.5925771484375,0,-0.0011984214652329683,0.00026631588116288185
1772651352817579500,8.60257958984375,0.0005326317623257637,0.0003994738217443228,0.0007989476434886456
1772651352827582200,8.612582275390626,0,-0.0006657897029072046,-0.0007989476434886456
1772651352847587300,8.63258740234375,0.0005326317623257637,-0.0011984214652329683,-0.00026631588116288185
1772651352857590000,8.642590087890625,0.0005326317623257637,0.0009321055840700865,0.0007989476434886456
1772651352867592400,8.652592529296875,0.0005326317623257637,0.0009321055840700865,-0.00026631588116288185
1772651352877595100,8.66259521484375,-0.001597895286977291,0.0009321055840700865,0.00026631588116288185
1772651352887597800,8.672597900390626,-0.0005326317623257637,-0.0006657897029072046,-0.0007989476434886456
1772651352897600300,8.682600341796874,-0.0005326317623257637,0.0003994738217443228,-0.0007989476434886456
1772651352907603000,8.69260302734375,0,0.0009321055840700865,0.00026631588116288185
1772651352917605600,8.702605712890625,0,0.0025300008710473776,0.0013315794058144093
1772651352927608000,8.712608154296875,-0.001597895286977291,0.0014647373463958502,0.0007989476434886456
1772651352937610800,8.72261083984375,0.0005326317623257637,0.0009321055840700865,0.00026631588116288185
1772651352947613400,8.732613525390626,0,0.001997369108721614,0.0007989476434886456
1772651352957615900,8.742615966796874,-0.0005326317623257637,-0.0027963167522102594,-0.0007989476434886456
1772651352967618600,8.75261865234375,0,-0.003328948514536023,-0.0007989476434886456
1772651352977621200,8.762621337890625,-0.0010652635246515274,-0.0006657897029072046,0.0007989476434886456
1772651352987623700,8.772623779296875,0,-0.004926843568682671,-0.0023968429304659367
1772651352997626400,8.78262646484375,0,-0.00013315794058144093,-0.00026631588116288185
1772651353007629000,8.792629150390624,0.0005326317623257637,0.001997369108721614,-0.0013315794058144093
1772651353017631500,8.802631591796874,0.0005326317623257637,0.0009321055840700865,-0.0007989476434886456
1772651353027634200,8.81263427734375,-0.0010652635246515274,-0.00013315794058144093,-0.0013315794058144093
