time,seconds_elapsed,z,y,x
1772643958745567200,0.038567138671875,-0.99139404296875,-0.034454345703125,-0.012542724609375
1772643958755608300,0.0486083984375,-0.9871826171875,-0.03863525390625,-0.0110931396484375
1772643958765648400,0.0586484375,-0.987640380859375,-0.0375213623046875,-0.0117340087890625
1772643958775689500,0.068689453125,-0.9883575439453125,-0.0369415283203125,-0.011810302734375
1772643958785730300,0.078730224609375,-0.9858551025390625,-0.036224365234375,-0.01153564453125
1772643958795771400,0.088771484375,-0.988861083984375,-0.03564453125,-0.0129852294921875
1772643958805812500,0.0988125,-0.9925994873046875,-0.03436279296875,-0.015625
1772643958815853300,0.108853271484375,-0.99188232421875,-0.029205322265625,-0.0164031982421875
1772643958825893400,0.118893310546875,-0.99005126953125,-0.0253448486328125,-0.016845703125
1772643958835934500,0.1289345703125,-0.9918212890625,-0.02154541015625,-0.01702880859375
1772643958845975300,0.138975341796875,-0.990386962890625,-0.0211639404296875,-0.01611328125
1772643958856016400,0.149016357421875,-0.991607666015625,-0.022491455078125,-0.0164031982421875
1772643958866057500,0.159057373046875,-0.9951171875,-0.0224151611328125,-0.01593017578125
1772643958876098300,0.169098388671875,-0.992431640625,-0.02264404296875,-0.0155181884765625
1772643958886138400,0.179138427734375,-0.9889984130859375,-0.0249481201171875,-0.0155487060546875
1772643958896179500,0.189179443359375,-0.988983154296875,-0.0272369384765625,-0.014251708984375
1772643958906220500,0.199220458984375,-0.9927215576171875,-0.030853271484375,-0.0140228271484375
1772643958916261400,0.209261474609375,-0.992828369140625,-0.033721923828125,-0.0144195556640625
1772643958926302500,0.219302490234375,-0.9916534423828125,-0.0325164794921875,-0.0148773193359375
1772643958936343600,0.229343505859375,-0.9912872314453125,-0.0311737060546875,-0.013031005859375
1772643958946384400,0.23938427734375,-0.9900970458984375,-0.0255584716796875,-0.0133819580078125
1772643958956424200,0.249424072265625,-0.9916839599609375,-0.0229339599609375,-0.0118865966796875
1772643958966465300,0.25946533203125,-0.9937591552734375,-0.0194854736328125,-0.011962890625
1772643958976506000,0.269506103515625,-0.9913482666015625,-0.017333984375,-0.0125885009765625
1772643958986547200,0.279547119140625,-0.98614501953125,-0.020355224609375,-0.0117034912109375
1772643958996588300,0.28958837890625,-0.98785400390625,-0.0279541015625,-0.0106201171875
1772643959006629000,0.299629150390625,-0.9954376220703125,-0.0346527099609375,-0.0125732421875
1772643959016669200,0.309669189453125,-0.98846435546875,-0.0380706787109375,-0.01019287109375
1772643959026710300,0.319710205078125,-0.9854736328125,-0.039337158203125,-0.010162353515625
1772643959036751400,0.32975146484375,-0.9898834228515625,-0.0377960205078125,-0.009613037109375
1772643959046792200,0.339792236328125,-0.994903564453125,-0.034088134765625,-0.010406494140625
1772643959056833300,0.349833251953125,-0.9882049560546875,-0.0314178466796875,-0.009490966796875
1772643959066874400,0.359874267578125,-0.9847259521484375,-0.0296173095703125,-0.0103607177734375
1772643959076914400,0.36991455078125,-0.990753173828125,-0.02984619140625,-0.0129547119140625
1772643959086955300,0.379955322265625,-0.9916534423828125,-0.0279083251953125,-0.0159912109375
1772643959096996400,0.389996337890625,-0.9864501953125,-0.0256500244140625,-0.0193939208984375
1772643959107037200,0.400037109375,-0.9886627197265625,-0.02630615234375,-0.0204315185546875
1772643959117078300,0.410078369140625,-0.99102783203125,-0.0320281982421875,-0.021148681640625
1772643959127119400,0.420119384765625,-0.9903411865234375,-0.0356903076171875,-0.0192718505859375
1772643959137159400,0.430159423828125,-0.9888763427734375,-0.036224365234375,-0.019927978515625
1772643959147200300,0.4402001953125,-0.9893951416015625,-0.038818359375,-0.0194091796875
1772643959157241300,0.450241455078125,-0.9916839599609375,-0.0371551513671875,-0.0177764892578125
1772643959167282400,0.460282470703125,-0.9909515380859375,-0.0372467041015625,-0.0160675048828125
1772643959177323300,0.4703232421875,-0.9875640869140625,-0.0370330810546875,-0.014251708984375
1772643959187364400,0.4803642578125,-0.987060546875,-0.0369110107421875,-0.014190673828125
1772643959197405400,0.490405517578125,-0.9901275634765625,-0.035125732421875,-0.0130157470703125
1772643959207445500,0.500445556640625,-0.9892425537109375,-0.0322113037109375,-0.0096893310546875
1772643959217486300,0.510486328125,-0.98858642578125,-0.02838134765625,-0.0071868896484375
1772643959227527400,0.52052734375,-0.9898681640625,-0.02764892578125,-0.005462646484375
1772643959237568300,0.530568359375,-0.9888916015625,-0.0269317626953125,-0.004486083984375
1772643959247609300,0.540609375,-0.9879913330078125,-0.0239105224609375,-0.0047149658203125
1772643959257650400,0.550650390625,-0.9922027587890625,-0.02581787109375,-0.009002685546875
1772643959267690200,0.560690185546875,-0.99090576171875,-0.0278778076171875,-0.0080718994140625
1772643959277731000,0.57073095703125,-0.9900665283203125,-0.0312652587890625,-0.0115814208984375
1772643959287772200,0.580772216796875,-0.9918212890625,-0.03350830078125,-0.016693115234375
1772643959297813200,0.590813232421875,-0.98944091796875,-0.03472900390625,-0.017913818359375
1772643959307854000,0.60085400390625,-0.9876556396484375,-0.035003662109375,-0.018035888671875
1772643959317895200,0.610895263671875,-0.9906005859375,-0.0323638916015625,-0.018829345703125
1772643959327935200,0.620935302734375,-0.9901885986328125,-0.031829833984375,-0.0194091796875
1772643959337976300,0.630976318359375,-0.9882354736328125,-0.0318603515625,-0.0190277099609375
1772643959348017200,0.64101708984375,-0.991058349609375,-0.0308380126953125,-0.0186309814453125
1772643959358058200,0.651058349609375,-0.9911041259765625,-0.0294952392578125,-0.016387939453125
1772643959368099300,0.661099365234375,-0.9893341064453125,-0.0278472900390625,-0.0142669677734375
1772643959378140200,0.67114013671875,-0.98968505859375,-0.0273284912109375,-0.0110626220703125
1772643959388180200,0.68118017578125,-0.9893951416015625,-0.02642822265625,-0.0102691650390625
1772643959398221300,0.69122119140625,-0.9904632568359375,-0.0274200439453125,-0.0080108642578125
1772643959408262100,0.70126220703125,-0.99017333984375,-0.028656005859375,-0.00677490234375
1772643959418303200,0.71130322265625,-0.989715576171875,-0.031463623046875,-0.0066375732421875
1772643959428344300,0.72134423828125,-0.9895172119140625,-0.0341339111328125,-0.00677490234375
1772643959438385200,0.73138525390625,-0.988525390625,-0.035186767578125,-0.0106201171875
1772643959448425200,0.74142529296875,-0.989593505859375,-0.035919189453125,-0.0108184814453125
1772643959458466300,0.75146630859375,-0.99169921875,-0.03363037109375,-0.0151519775390625
1772643959468507400,0.76150732421875,-0.9912567138671875,-0.0298004150390625,-0.0153350830078125
1772643959478548200,0.77154833984375,-0.9893341064453125,-0.027374267578125,-0.016082763671875
1772643959488589300,0.78158935546875,-0.989471435546875,-0.0275115966796875,-0.01708984375
1772643959498630400,0.79163037109375,-0.99102783203125,-0.026824951171875,-0.01739501953125
1772643959508670200,0.801670166015625,-0.9909210205078125,-0.028045654296875,-0.01776123046875
1772643959518711300,0.811711181640625,-0.9884490966796875,-0.0309295654296875,-0.0184326171875
1772643959528752400,0.82175244140625,-0.989013671875,-0.0338287353515625,-0.0174560546875
1772643959538793200,0.831793212890625,-0.9896240234375,-0.034332275390625,-0.0162353515625
1772643959548834300,0.841834228515625,-0.9887237548828125,-0.035003662109375,-0.014678955078125
1772643959558875400,0.85187548828125,-0.9894866943359375,-0.03240966796875,-0.011993408203125
1772643959568915500,0.86191552734375,-0.9897003173828125,-0.0302734375,-0.0108184814453125
1772643959578956300,0.871956298828125,-0.9894866943359375,-0.029510498046875,-0.009002685546875
1772643959588997400,0.881997314453125,-0.9893035888671875,-0.0282745361328125,-0.0074310302734375
1772643959599038500,0.89203857421875,-0.989990234375,-0.02862548828125,-0.0083770751953125
1772643959609079300,0.902079345703125,-0.9893798828125,-0.0288848876953125,-0.0088653564453125
1772643959619120400,0.912120361328125,-0.9895782470703125,-0.0300140380859375,-0.0105133056640625
1772643959629161500,0.922161376953125,-0.9885711669921875,-0.03131103515625,-0.0122222900390625
1772643959639201300,0.932201171875,-0.9899444580078125,-0.0320892333984375,-0.013427734375
1772643959649242400,0.942242431640625,-0.990753173828125,-0.0316162109375,-0.014434814453125
1772643959659283500,0.952283447265625,-0.99078369140625,-0.031402587890625,-0.0161590576171875
1772643959669324300,0.96232421875,-0.991424560546875,-0.03118896484375,-0.0158538818359375
1772643959679365400,0.972365478515625,-0.989471435546875,-0.03216552734375,-0.01788330078125
1772643959689406500,0.982406494140625,-0.990142822265625,-0.031646728515625,-0.0175323486328125
1772643959699446300,0.9924462890625,-0.9896697998046875,-0.032073974609375,-0.0168609619140625
1772643959709487000,1.002487060546875,-0.9892578125,-0.031707763671875,-0.016143798828125
1772643959719528200,1.012528076171875,-0.9906463623046875,-0.0301361083984375,-0.015289306640625
1772643959729569300,1.0225693359375,-0.989288330078125,-0.030731201171875,-0.012603759765625
1772643959739610000,1.032610107421875,-0.989227294921875,-0.0305328369140625,-0.01153564453125
1772643959749651200,1.042651123046875,-0.990203857421875,-0.02996826171875,-0.0091552734375
1772643959759691300,1.052691162109375,-0.9891204833984375,-0.0296783447265625,-0.0093536376953125
1772643959769732400,1.062732421875,-0.9890899658203125,-0.02947998046875,-0.008392333984375
1772643959779773200,1.072773193359375,-0.9906463623046875,-0.03057861328125,-0.009368896484375
1772643959789814300,1.082814208984375,-0.9902496337890625,-0.0317840576171875,-0.0103759765625
1772643959799855400,1.09285546875,-0.98919677734375,-0.0334625244140625,-0.0114593505859375
1772643959809896200,1.102896240234375,-0.9890899658203125,-0.0325927734375,-0.0134735107421875
1772643959819936300,1.112936279296875,-0.9891204833984375,-0.0308380126953125,-0.014068603515625
1772643959829977300,1.122977294921875,-0.989471435546875,-0.0304412841796875,-0.014434814453125
1772643959840018200,1.13301806640625,-0.98980712890625,-0.0293731689453125,-0.0160369873046875
1772643959850059300,1.143059326171875,-0.9902191162109375,-0.0291900634765625,-0.01593017578125
1772643959860100400,1.153100341796875,-0.98870849609375,-0.0291900634765625,-0.0171661376953125
1772643959870141200,1.16314111328125,-0.989532470703125,-0.0317840576171875,-0.0176239013671875
1772643959880181200,1.17318115234375,-0.990203857421875,-0.0306549072265625,-0.0162506103515625
1772643959890222300,1.183222412109375,-0.98944091796875,-0.03289794921875,-0.0152587890625
1772643959900263400,1.193263427734375,-0.989776611328125,-0.0313262939453125,-0.01434326171875
1772643959910304300,1.20330419921875,-0.9895172119140625,-0.030975341796875,-0.0118560791015625
1772643959920345300,1.213345458984375,-0.990814208984375,-0.0307159423828125,-0.0106201171875
1772643959930386400,1.223386474609375,-0.9894866943359375,-0.0310516357421875,-0.010498046875
1772643959940426200,1.23342626953125,-0.988037109375,-0.0313720703125,-0.0088043212890625
1772643959950467300,1.24346728515625,-0.9906158447265625,-0.0306396484375,-0.010009765625
1772643959960508700,1.2535087890625,-0.989715576171875,-0.032257080078125,-0.009796142578125
1772643959970549500,1.263549560546875,-0.989105224609375,-0.0312042236328125,-0.011016845703125
1772643959980590600,1.273590576171875,-0.9905242919921875,-0.0300140380859375,-0.0106201171875
1772643959990631700,1.283631591796875,-0.99005126953125,-0.029388427734375,-0.0125732421875
1772643960000671700,1.293671630859375,-0.98992919921875,-0.0285186767578125,-0.0139617919921875
1772643960010712600,1.303712646484375,-0.990966796875,-0.0284423828125,-0.014892578125
1772643960020753700,1.313753662109375,-0.9903106689453125,-0.02850341796875,-0.015838623046875
1772643960030794500,1.32379443359375,-0.9903411865234375,-0.0313568115234375,-0.0166015625
1772643960040835600,1.333835693359375,-0.9900360107421875,-0.032318115234375,-0.0177001953125
1772643960050876700,1.343876708984375,-0.9898834228515625,-0.0343475341796875,-0.01788330078125
1772643960060916700,1.353916748046875,-0.9906768798828125,-0.0347900390625,-0.016693115234375
1772643960070957600,1.36395751953125,-0.990264892578125,-0.032867431640625,-0.0156097412109375
1772643960080998700,1.37399853515625,-0.990020751953125,-0.0330352783203125,-0.0153350830078125
1772643960091039700,1.384039794921875,-0.989227294921875,-0.0300445556640625,-0.0121002197265625
1772643960101080600,1.39408056640625,-0.99005126953125,-0.0280303955078125,-0.009521484375
1772643960111121700,1.40412158203125,-0.990203857421875,-0.0276031494140625,-0.00885009765625
1772643960121161500,1.414161376953125,-0.989776611328125,-0.0276336669921875,-0.0095977783203125
1772643960131202600,1.42420263671875,-0.98956298828125,-0.0281524658203125,-0.0081939697265625
1772643960141243400,1.434243408203125,-0.9897003173828125,-0.030517578125,-0.0098724365234375
1772643960151284500,1.444284423828125,-0.9896697998046875,-0.0325469970703125,-0.00946044921875
1772643960161325600,1.45432568359375,-0.98883056640625,-0.0338287353515625,-0.012359619140625
1772643960171366700,1.46436669921875,-0.9897308349609375,-0.034271240234375,-0.014678955078125
1772643960181406500,1.474406494140625,-0.9906463623046875,-0.031524658203125,-0.0153045654296875
1772643960191447600,1.484447509765625,-0.9901580810546875,-0.0284271240234375,-0.0169219970703125
1772643960201488400,1.49448828125,-0.989837646484375,-0.0285491943359375,-0.0196533203125
1772643960211529500,1.504529541015625,-0.989013671875,-0.0293731689453125,-0.01934814453125
1772643960221570600,1.514570556640625,-0.9906005859375,-0.0291290283203125,-0.0186920166015625
1772643960231611400,1.524611328125,-0.9913330078125,-0.030303955078125,-0.019287109375
1772643960241651500,1.5346513671875,-0.99029541015625,-0.03179931640625,-0.0159149169921875
1772643960251692500,1.544692626953125,-0.9894561767578125,-0.0332183837890625,-0.0127105712890625
1772643960261733600,1.554733642578125,-0.9890594482421875,-0.03253173828125,-0.011505126953125
1772643960271774500,1.5647744140625,-0.9898834228515625,-0.0321044921875,-0.0084991455078125
1772643960281815600,1.574815673828125,-0.9893646240234375,-0.0323333740234375,-0.0085906982421875
1772643960291856600,1.584856689453125,-0.9904937744140625,-0.031829833984375,-0.00701904296875
1772643960301896400,1.594896484375,-0.989105224609375,-0.030853271484375,-0.0070037841796875
1772643960311937500,1.6049375,-0.9892730712890625,-0.02972412109375,-0.0075531005859375
1772643960321978600,1.614978515625,-0.990631103515625,-0.029998779296875,-0.009674072265625
1772643960332019500,1.62501953125,-0.9911651611328125,-0.0301971435546875,-0.0099945068359375
1772643960342060500,1.635060546875,-0.9892730712890625,-0.028564453125,-0.0123138427734375
1772643960352101600,1.6451015625,-0.9900054931640625,-0.0288238525390625,-0.01458740234375
1772643960362141700,1.6551416015625,-0.989501953125,-0.0291595458984375,-0.01708984375
1772643960372182500,1.6651826171875,-0.988250732421875,-0.030059814453125,-0.0182342529296875
1772643960382223600,1.6752236328125,-0.989654541015625,-0.0327911376953125,-0.0191497802734375
1772643960392264700,1.6852646484375,-0.9907989501953125,-0.03424072265625,-0.01959228515625
1772643960402305500,1.695305419921875,-0.9908905029296875,-0.033660888671875,-0.01953125
1772643960412346600,1.7053466796875,-0.9883270263671875,-0.0324249267578125,-0.01837158203125
1772643960422386700,1.71538671875,-0.98980712890625,-0.03240966796875,-0.0167083740234375
1772643960432427500,1.725427490234375,-0.98870849609375,-0.02984619140625,-0.0130462646484375
1772643960442468600,1.735468505859375,-0.9894561767578125,-0.0277252197265625,-0.0116729736328125
1772643960452509700,1.745509765625,-0.9908447265625,-0.0274810791015625,-0.009918212890625
1772643960462550500,1.755550537109375,-0.989776611328125,-0.02880859375,-0.0083160400390625
1772643960472591600,1.765591552734375,-0.9888763427734375,-0.030181884765625,-0.0094146728515625
1772643960482631700,1.775631591796875,-0.9901123046875,-0.0297393798828125,-0.008819580078125
1772643960492672800,1.7856728515625,-0.990570068359375,-0.033905029296875,-0.0100555419921875
1772643960502713600,1.795713623046875,-0.9897918701171875,-0.03228759765625,-0.0101776123046875
1772643960512754700,1.805754638671875,-0.9897613525390625,-0.0325775146484375,-0.0113525390625
1772643960522795800,1.815795654296875,-0.9905548095703125,-0.0316314697265625,-0.0127716064453125
1772643960532836600,1.825836669921875,-0.9904022216796875,-0.0304107666015625,-0.0147705078125
1772643960542876400,1.83587646484375,-0.9903106689453125,-0.0305328369140625,-0.016021728515625
1772643960552917500,1.84591748046875,-0.9891204833984375,-0.0303497314453125,-0.016448974609375
1772643960562958600,1.85595849609375,-0.9892730712890625,-0.030975341796875,-0.0167999267578125
1772643960572999400,1.86599951171875,-0.98974609375,-0.0303192138671875,-0.0176544189453125
1772643960583040500,1.87604052734375,-0.9897003173828125,-0.030517578125,-0.0168914794921875
1772643960593081600,1.88608154296875,-0.9901885986328125,-0.0307159423828125,-0.0142364501953125
1772643960603121400,1.896121337890625,-0.9905853271484375,-0.0312652587890625,-0.0142059326171875
1772643960613162500,1.90616259765625,-0.9889068603515625,-0.0303192138671875,-0.012298583984375
1772643960623203600,1.91620361328125,-0.989410400390625,-0.0313873291015625,-0.0114593505859375
1772643960633244400,1.926244384765625,-0.9893798828125,-0.031524658203125,-0.009735107421875
1772643960643285500,1.936285400390625,-0.9897308349609375,-0.03173828125,-0.0092315673828125
1772643960653326600,1.94632666015625,-0.989959716796875,-0.031463623046875,-0.009674072265625
1772643960663366700,1.95636669921875,-0.989990234375,-0.031341552734375,-0.009002685546875
1772643960673407500,1.966407470703125,-0.99041748046875,-0.0322723388671875,-0.011260986328125
1772643960683448600,1.976448486328125,-0.99029541015625,-0.031524658203125,-0.01226806640625
1772643960693489700,1.98648974609375,-0.9894561767578125,-0.028289794921875,-0.0123443603515625
1772643960703530500,1.996530517578125,-0.9890594482421875,-0.0286407470703125,-0.0128631591796875
1772643960713570600,2.006570556640625,-0.989593505859375,-0.0293731689453125,-0.015625
1772643960723611600,2.016611572265625,-0.9896240234375,-0.0295867919921875,-0.016387939453125
1772643960733652500,2.026652587890625,-0.99005126953125,-0.0316925048828125,-0.015716552734375
1772643960743693600,2.036693603515625,-0.989898681640625,-0.0329132080078125,-0.01654052734375
1772643960753734700,2.046734619140625,-0.989349365234375,-0.033172607421875,-0.0167083740234375
1772643960763775500,2.056775390625,-0.99102783203125,-0.0324249267578125,-0.015289306640625
1772643960773815600,2.066815673828125,-0.9897613525390625,-0.03277587890625,-0.014190673828125
1772643960783856600,2.076856689453125,-0.990234375,-0.031463623046875,-0.01385498046875
1772643960793897700,2.086897705078125,-0.990020751953125,-0.0309600830078125,-0.011810302734375
1772643960803938600,2.0969384765625,-0.989532470703125,-0.02984619140625,-0.0107574462890625
1772643960813979600,2.106979736328125,-0.9901885986328125,-0.028839111328125,-0.0105743408203125
1772643960824020700,2.117020751953125,-0.989837646484375,-0.0291900634765625,-0.009552001953125
1772643960834060500,2.127060546875,-0.991180419921875,-0.0301971435546875,-0.0097503662109375
1772643960844101600,2.1371015625,-0.989410400390625,-0.031219482421875,-0.01007080078125
1772643960854142700,2.147142822265625,-0.9897918701171875,-0.0306243896484375,-0.0112457275390625
1772643960864183600,2.15718359375,-0.9893341064453125,-0.03033447265625,-0.0117645263671875
1772643960874224600,2.167224609375,-0.99041748046875,-0.0319061279296875,-0.0125885009765625
1772643960884265700,2.177265625,-0.989837646484375,-0.0307464599609375,-0.0141754150390625
1772643960894305500,2.187305419921875,-0.99017333984375,-0.0315704345703125,-0.016510009765625
1772643960904346400,2.197346435546875,-0.9901123046875,-0.031585693359375,-0.0159149169921875
1772643960914387500,2.207387451171875,-0.9902801513671875,-0.0311279296875,-0.0160675048828125
1772643960924428500,2.217428466796875,-0.9908905029296875,-0.030548095703125,-0.0172882080078125
1772643960934469400,2.227469482421875,-0.989776611328125,-0.029754638671875,-0.0161285400390625
1772643960944510500,2.237510498046875,-0.9904937744140625,-0.0311431884765625,-0.01654052734375
1772643960954550500,2.247550537109375,-0.9898529052734375,-0.029632568359375,-0.0149993896484375
1772643960964590800,2.2575908203125,-0.989715576171875,-0.0299530029296875,-0.012969970703125
1772643960974631700,2.267631591796875,-0.9895172119140625,-0.0288543701171875,-0.0119476318359375
1772643960984672800,2.2776728515625,-0.9894256591796875,-0.030548095703125,-0.010498046875
1772643960994713900,2.2877138671875,-0.990814208984375,-0.0311737060546875,-0.010772705078125
1772643961004754700,2.297754638671875,-0.9898529052734375,-0.0326690673828125,-0.0088348388671875
1772643961014794800,2.307794677734375,-0.9896240234375,-0.0324554443359375,-0.0109710693359375
1772643961024835800,2.3178359375,-0.99078369140625,-0.031890869140625,-0.0101470947265625
1772643961034877000,2.327876953125,-0.9898223876953125,-0.031768798828125,-0.0111083984375
1772643961044917800,2.337917724609375,-0.9903564453125,-0.029754638671875,-0.0128631591796875
1772643961054958800,2.347958740234375,-0.9892425537109375,-0.0286712646484375,-0.01409912109375
1772643961065000000,2.358,-0.99017333984375,-0.0294189453125,-0.015045166015625
1772643961075039700,2.368039794921875,-0.9907684326171875,-0.030029296875,-0.015716552734375
1772643961085080800,2.378080810546875,-0.989837646484375,-0.0291595458984375,-0.0169219970703125
1772643961095122000,2.388121826171875,-0.9902801513671875,-0.03173828125,-0.0160675048828125
1772643961105162800,2.398162841796875,-0.9895782470703125,-0.0316314697265625,-0.0156707763671875
1772643961115203800,2.408203857421875,-0.9893341064453125,-0.031707763671875,-0.0146636962890625
1772643961125245000,2.418244873046875,-0.989593505859375,-0.0319671630859375,-0.0143890380859375
1772643961135285000,2.428284912109375,-0.9896392822265625,-0.031402587890625,-0.013885498046875
1772643961145325800,2.438325927734375,-0.9903411865234375,-0.0302734375,-0.0129241943359375
1772643961155367000,2.448366943359375,-0.99029541015625,-0.0301055908203125,-0.0113983154296875
1772643961165408000,2.458407958984375,-0.990447998046875,-0.0303192138671875,-0.011474609375
1772643961175448800,2.46844873046875,-0.9906768798828125,-0.029815673828125,-0.0108795166015625
1772643961185490000,2.478489990234375,-0.9910430908203125,-0.0296630859375,-0.011810302734375
1772643961195529700,2.48852978515625,-0.989654541015625,-0.02984619140625,-0.011474609375
1772643961205570800,2.49857080078125,-0.991302490234375,-0.029815673828125,-0.0123443603515625
1772643961215611600,2.508611572265625,-0.989227294921875,-0.028778076171875,-0.01275634765625
1772643961225652700,2.51865283203125,-0.9901275634765625,-0.03009033203125,-0.0135650634765625
1772643961235693600,2.528693603515625,-0.9909210205078125,-0.0303802490234375,-0.0139312744140625
1772643961245734700,2.538734619140625,-0.9906158447265625,-0.030975341796875,-0.0140533447265625
1772643961255774700,2.548774658203125,-0.990509033203125,-0.031768798828125,-0.0146636962890625
1772643961265815800,2.55881591796875,-0.99066162109375,-0.03277587890625,-0.01611328125
1772643961275856600,2.568856689453125,-0.9903411865234375,-0.0321044921875,-0.0159759521484375
1772643961285897700,2.578897705078125,-0.99072265625,-0.030731201171875,-0.0157470703125
1772643961295938800,2.588938720703125,-0.9901123046875,-0.0294189453125,-0.0143280029296875
1772643961305979600,2.598979736328125,-0.9897613525390625,-0.0288238525390625,-0.013336181640625
1772643961316019700,2.609019775390625,-0.9899139404296875,-0.029144287109375,-0.013916015625
1772643961326060800,2.619060791015625,-0.99127197265625,-0.0291748046875,-0.0125579833984375
1772643961336102000,2.629101806640625,-0.9903564453125,-0.0311279296875,-0.0109100341796875
1772643961346142700,2.639142822265625,-0.989715576171875,-0.0311126708984375,-0.01171875
1772643961356183800,2.649183837890625,-0.98931884765625,-0.0308380126953125,-0.00994873046875
1772643961366224000,2.659223876953125,-0.98956298828125,-0.032318115234375,-0.01123046875
1772643961376264700,2.6692646484375,-0.989593505859375,-0.0312347412109375,-0.011199951171875
1772643961386305800,2.679305908203125,-0.9894866943359375,-0.0311737060546875,-0.0124664306640625
1772643961396347000,2.689346923828125,-0.9902801513671875,-0.0313262939453125,-0.0136871337890625
1772643961406387700,2.6993876953125,-0.9901275634765625,-0.0308837890625,-0.0144195556640625
1772643961416428800,2.7094287109375,-0.9898681640625,-0.030853271484375,-0.0140838623046875
1772643961426468900,2.71946875,-0.9894866943359375,-0.0310211181640625,-0.0144195556640625
1772643961436510000,2.729510009765625,-0.9878997802734375,-0.0294189453125,-0.0146484375
1772643961446550800,2.73955078125,-0.9902496337890625,-0.0299530029296875,-0.01513671875
1772643961456592000,2.749591796875,-0.9888153076171875,-0.0299224853515625,-0.014556884765625
1772643961466633000,2.759633056640625,-0.9887847900390625,-0.02972412109375,-0.014556884765625
1772643961476673800,2.769673828125,-0.990142822265625,-0.03057861328125,-0.0148468017578125
1772643961486713900,2.7797138671875,-0.98931884765625,-0.0311737060546875,-0.01446533203125
1772643961496755000,2.7897548828125,-0.9897003173828125,-0.031280517578125,-0.013580322265625
1772643961506795800,2.799795654296875,-0.9898223876953125,-0.0319671630859375,-0.0122528076171875
1772643961516836900,2.8098369140625,-0.989410400390625,-0.0311431884765625,-0.011322021484375
1772643961526878000,2.8198779296875,-0.990966796875,-0.0308990478515625,-0.0115966796875
1772643961536918800,2.829918701171875,-0.990234375,-0.0311737060546875,-0.0114593505859375
1772643961546958600,2.83995849609375,-0.989654541015625,-0.0299530029296875,-0.0110626220703125
1772643961556999700,2.849999755859375,-0.989227294921875,-0.030670166015625,-0.0116729736328125
1772643961567040800,2.860040771484375,-0.990966796875,-0.0301971435546875,-0.0117034912109375
1772643961577081600,2.87008154296875,-0.99078369140625,-0.0303497314453125,-0.0128173828125
1772643961587122700,2.880122802734375,-0.99053955078125,-0.030120849609375,-0.01446533203125
1772643961597163800,2.890163818359375,-0.9900360107421875,-0.0308074951171875,-0.015289306640625
1772643961607203800,2.900203857421875,-0.989715576171875,-0.0308990478515625,-0.015533447265625
1772643961617244700,2.91024462890625,-0.98870849609375,-0.0323333740234375,-0.015655517578125
1772643961627285800,2.92028564453125,-0.9896087646484375,-0.0316009521484375,-0.015594482421875
1772643961637326600,2.93032666015625,-0.9903411865234375,-0.0307464599609375,-0.013916015625
1772643961647367700,2.94036767578125,-0.9901123046875,-0.03106689453125,-0.0135498046875
1772643961657408800,2.95040869140625,-0.990570068359375,-0.0294036865234375,-0.0137481689453125
1772643961667448800,2.96044873046875,-0.98968505859375,-0.03082275390625,-0.0144805908203125
1772643961677489700,2.97048974609375,-0.989959716796875,-0.0305938720703125,-0.0123138427734375
1772643961687530800,2.98053076171875,-0.990081787109375,-0.0302581787109375,-0.0123291015625
1772643961697571800,2.99057177734375,-0.99005126953125,-0.0303955078125,-0.0101776123046875
1772643961707612700,3.00061279296875,-0.9901275634765625,-0.0309600830078125,-0.0121917724609375
1772643961717653800,3.01065380859375,-0.990081787109375,-0.031982421875,-0.0108642578125
1772643961727693800,3.02069384765625,-0.9901580810546875,-0.0306243896484375,-0.010986328125
1772643961737735000,3.03073486328125,-0.98992919921875,-0.0306396484375,-0.0121917724609375
1772643961747775700,3.040775634765625,-0.98883056640625,-0.030029296875,-0.0130157470703125
1772643961757816800,3.05081689453125,-0.988494873046875,-0.0308837890625,-0.0125579833984375
1772643961767857700,3.060857666015625,-0.9891510009765625,-0.0321502685546875,-0.014190673828125
1772643961777898800,3.070898681640625,-0.9892730712890625,-0.0309600830078125,-0.0137176513671875
1772643961787938800,3.080938720703125,-0.9901123046875,-0.030059814453125,-0.0142974853515625
1772643961797980000,3.09097998046875,-0.9897308349609375,-0.03045654296875,-0.01495361328125
1772643961808020700,3.101020751953125,-0.99017333984375,-0.0300140380859375,-0.01446533203125
1772643961818061800,3.111061767578125,-0.9907684326171875,-0.030914306640625,-0.0139007568359375
1772643961828103000,3.12110302734375,-0.9905548095703125,-0.030670166015625,-0.0140533447265625
1772643961838143700,3.131143798828125,-0.99005126953125,-0.0308074951171875,-0.0141143798828125
1772643961848183800,3.141183837890625,-0.990264892578125,-0.0306243896484375,-0.0122222900390625
1772643961858225000,3.151224853515625,-0.989837646484375,-0.0318145751953125,-0.0122528076171875
1772643961868266000,3.161265869140625,-0.9904022216796875,-0.0305938720703125,-0.0114593505859375
1772643961878306800,3.171306884765625,-0.9900360107421875,-0.032684326171875,-0.0124664306640625
1772643961888348000,3.181347900390625,-0.9890289306640625,-0.0302581787109375,-0.0114288330078125
1772643961898388700,3.191388671875,-0.989654541015625,-0.029815673828125,-0.0130462646484375
1772643961908428500,3.201428466796875,-0.989654541015625,-0.0301971435546875,-0.012481689453125
1772643961918469600,3.2114697265625,-0.9902496337890625,-0.0303497314453125,-0.0146026611328125
1772643961928510700,3.2215107421875,-0.99090576171875,-0.0295257568359375,-0.014617919921875
1772643961938551600,3.231551513671875,-0.9892120361328125,-0.029754638671875,-0.0140838623046875
1772643961948593000,3.241593017578125,-0.9891357421875,-0.0310211181640625,-0.014923095703125
1772643961958632700,3.2516328125,-0.98883056640625,-0.030670166015625,-0.0156097412109375
1772643961968674800,3.2616748046875,-0.9912261962890625,-0.032958984375,-0.015106201171875
1772643961978716000,3.2717158203125,-0.989532470703125,-0.0312652587890625,-0.0144805908203125
1772643961988757000,3.281757080078125,-0.98895263671875,-0.03131103515625,-0.013916015625
1772643961998797800,3.2917978515625,-0.9906463623046875,-0.0308990478515625,-0.013336181640625
1772643962008839000,3.3018388671875,-0.9899749755859375,-0.0306854248046875,-0.0132598876953125
1772643962018879000,3.31187890625,-0.98876953125,-0.030853271484375,-0.0127105712890625
1772643962028919800,3.321919921875,-0.99017333984375,-0.0292816162109375,-0.013671875
1772643962038961000,3.3319609375,-0.98968505859375,-0.03033447265625,-0.012420654296875
1772643962049002000,3.342001953125,-0.9889678955078125,-0.03082275390625,-0.01171875
1772643962059042800,3.352042724609375,-0.9905853271484375,-0.02996826171875,-0.012603759765625
1772643962069084000,3.362083984375,-0.9903411865234375,-0.02984619140625,-0.010406494140625
1772643962079124000,3.3721240234375,-0.99078369140625,-0.0300445556640625,-0.01318359375
1772643962089165000,3.3821650390625,-0.9902191162109375,-0.0308990478515625,-0.0135955810546875
1772643962099206000,3.392205810546875,-0.9900665283203125,-0.0308380126953125,-0.0120849609375
1772643962109247000,3.4022470703125,-0.9887847900390625,-0.0300750732421875,-0.0133209228515625
1772643962119288000,3.4122880859375,-0.9900054931640625,-0.032501220703125,-0.0138092041015625
1772643962129329000,3.422328857421875,-0.991058349609375,-0.0311126708984375,-0.013763427734375
1772643962139369000,3.432368896484375,-0.9901275634765625,-0.031005859375,-0.014312744140625
1772643962149410000,3.44241015625,-0.9888458251953125,-0.0303497314453125,-0.01593017578125
1772643962159451000,3.452450927734375,-0.98919677734375,-0.0296173095703125,-0.0145721435546875
1772643962169492000,3.462491943359375,-0.990081787109375,-0.03070068359375,-0.0140838623046875
1772643962179533000,3.472532958984375,-0.989288330078125,-0.030426025390625,-0.0140533447265625
1772643962189574000,3.482573974609375,-0.988555908203125,-0.030364990234375,-0.014129638671875
1772643962199613700,3.49261376953125,-0.9903564453125,-0.0310211181640625,-0.0116729736328125
1772643962209654800,3.50265478515625,-0.9898529052734375,-0.0318603515625,-0.010833740234375
1772643962219695900,3.51269580078125,-0.9907379150390625,-0.031707763671875,-0.012176513671875
1772643962229736700,3.52273681640625,-0.99114990234375,-0.0306243896484375,-0.012176513671875
1772643962239777800,3.53277783203125,-0.990753173828125,-0.030609130859375,-0.0131683349609375
1772643962249819000,3.54281884765625,-0.98907470703125,-0.0311126708984375,-0.0121917724609375
1772643962259859000,3.55285888671875,-0.98919677734375,-0.030303955078125,-0.012481689453125
1772643962269899800,3.562899658203125,-0.990020751953125,-0.029388427734375,-0.013092041015625
1772643962279940900,3.57294091796875,-0.9895477294921875,-0.0305328369140625,-0.0133514404296875
1772643962289982000,3.58298193359375,-0.9884490966796875,-0.0312042236328125,-0.0134735107421875
1772643962300022800,3.593022705078125,-0.99041748046875,-0.0307159423828125,-0.0141754150390625
1772643962310063900,3.60306396484375,-0.9911041259765625,-0.0296173095703125,-0.0140228271484375
1772643962320104000,3.61310400390625,-0.990020751953125,-0.03094482421875,-0.014862060546875
1772643962330144800,3.623144775390625,-0.98980712890625,-0.0304107666015625,-0.0145721435546875
1772643962340185900,3.633185791015625,-0.9888916015625,-0.0316162109375,-0.0145416259765625
1772643962350227000,3.64322705078125,-0.990020751953125,-0.0311431884765625,-0.0135345458984375
1772643962360267800,3.653267822265625,-0.99066162109375,-0.0298309326171875,-0.0127410888671875
1772643962370307800,3.663307861328125,-0.98919677734375,-0.0322723388671875,-0.012237548828125
1772643962380349000,3.673348876953125,-0.98919677734375,-0.031951904296875,-0.0126953125
1772643962390390000,3.68339013671875,-0.9905242919921875,-0.0299224853515625,-0.01226806640625
1772643962400430800,3.693430908203125,-0.990142822265625,-0.0311737060546875,-0.0121002197265625
1772643962410472000,3.703471923828125,-0.9903411865234375,-0.0308380126953125,-0.0123748779296875
1772643962420513000,3.713512939453125,-0.990570068359375,-0.0318450927734375,-0.011260986328125
1772643962430552800,3.723552734375,-0.990203857421875,-0.028961181640625,-0.0127716064453125
1772643962440594000,3.733593994140625,-0.990264892578125,-0.0308380126953125,-0.012908935546875
1772643962450635000,3.743635009765625,-0.9899139404296875,-0.0305328369140625,-0.013458251953125
1772643962460675800,3.75367578125,-0.9894866943359375,-0.03076171875,-0.0135955810546875
1772643962470717000,3.763717041015625,-0.9893035888671875,-0.0307769775390625,-0.0149383544921875
1772643962480758000,3.773758056640625,-0.990570068359375,-0.0309600830078125,-0.0144500732421875
1772643962490798000,3.783798095703125,-0.98974609375,-0.0313262939453125,-0.013824462890625
1772643962500839000,3.7938388671875,-0.9905548095703125,-0.0311279296875,-0.0126800537109375
1772643962510880000,3.8038798828125,-0.989532470703125,-0.029632568359375,-0.013641357421875
1772643962520921000,3.813921142578125,-0.990692138671875,-0.029693603515625,-0.0132904052734375
1772643962530962000,3.8239619140625,-0.990509033203125,-0.0297698974609375,-0.013702392578125
1772643962541003000,3.8340029296875,-0.990234375,-0.0299835205078125,-0.013580322265625
1772643962551042800,3.844042724609375,-0.98919677734375,-0.030181884765625,-0.013336181640625
1772643962561084000,3.854083984375,-0.989501953125,-0.031402587890625,-0.0120391845703125
1772643962571124700,3.864124755859375,-0.9901885986328125,-0.0311126708984375,-0.0113677978515625
1772643962581165800,3.874165771484375,-0.990692138671875,-0.0303802490234375,-0.0117645263671875
1772643962591207000,3.88420703125,-0.989471435546875,-0.0305938720703125,-0.0110015869140625
1772643962601248000,3.894248046875,-0.989898681640625,-0.0302886962890625,-0.012603759765625
1772643962611287800,3.904287841796875,-0.9906005859375,-0.031494140625,-0.012664794921875
1772643962621329000,3.914328857421875,-0.9902496337890625,-0.031219482421875,-0.01336669921875
1772643962631369700,3.92436962890625,-0.989776611328125,-0.03125,-0.0139007568359375
1772643962641410800,3.934410888671875,-0.9895477294921875,-0.030426025390625,-0.0138702392578125
1772643962651452000,3.944451904296875,-0.98931884765625,-0.0300445556640625,-0.0137786865234375
1772643962661492700,3.95449267578125,-0.9906005859375,-0.0304718017578125,-0.014892578125
1772643962671532800,3.96453271484375,-0.989044189453125,-0.0307464599609375,-0.013916015625
1772643962681574000,3.974573974609375,-0.989288330078125,-0.0304412841796875,-0.0137786865234375
1772643962691615000,3.984614990234375,-0.989501953125,-0.0306243896484375,-0.0141448974609375
1772643962701655800,3.99465576171875,-0.9900360107421875,-0.031951904296875,-0.0130767822265625
1772643962711697000,4.00469677734375,-0.9891815185546875,-0.031219482421875,-0.0133819580078125
1772643962721737000,4.014737060546875,-0.9890289306640625,-0.0315399169921875,-0.0125732421875
1772643962731777800,4.02477783203125,-0.9897918701171875,-0.0309295654296875,-0.01251220703125
1772643962741819000,4.03481884765625,-0.9911346435546875,-0.030670166015625,-0.0135955810546875
1772643962751860000,4.04485986328125,-0.989349365234375,-0.030303955078125,-0.01336669921875
1772643962761900800,4.05490087890625,-0.9903717041015625,-0.02984619140625,-0.012237548828125
1772643962771942000,4.06494189453125,-0.9910736083984375,-0.0306854248046875,-0.011810302734375
1772643962781982000,4.07498193359375,-0.9893951416015625,-0.0306854248046875,-0.0117340087890625
1772643962792023000,4.08502294921875,-0.9906463623046875,-0.0298004150390625,-0.0139312744140625
1772643962802064000,4.09506396484375,-0.99029541015625,-0.029632568359375,-0.012908935546875
1772643962812105000,4.10510498046875,-0.9915771484375,-0.030731201171875,-0.013580322265625
1772643962822146000,4.11514599609375,-0.9893646240234375,-0.030853271484375,-0.0155792236328125
1772643962832187000,4.125186767578125,-0.989227294921875,-0.0302581787109375,-0.0137939453125
1772643962842227000,4.13522705078125,-0.9901885986328125,-0.0299835205078125,-0.013763427734375
1772643962852268000,4.14526806640625,-0.9891510009765625,-0.0316925048828125,-0.0131988525390625
1772643962862308900,4.155308837890625,-0.9900665283203125,-0.0319671630859375,-0.0146484375
1772643962872350000,4.165349853515625,-0.98992919921875,-0.0307159423828125,-0.0140228271484375
1772643962882391000,4.17539111328125,-0.990447998046875,-0.031402587890625,-0.012481689453125
1772643962892432000,4.185431884765625,-0.988739013671875,-0.0303802490234375,-0.013275146484375
1772643962902472000,4.195471923828125,-0.9889068603515625,-0.0299530029296875,-0.0127105712890625
1772643962912513000,4.205512939453125,-0.9903411865234375,-0.0304718017578125,-0.0126190185546875
1772643962922554000,4.21555419921875,-0.990325927734375,-0.030670166015625,-0.0120697021484375
1772643962932595000,4.225594970703125,-0.9903564453125,-0.0313568115234375,-0.0122833251953125
1772643962942636000,4.235635986328125,-0.989593505859375,-0.03106689453125,-0.0139007568359375
1772643962952677000,4.245677001953125,-0.98907470703125,-0.0305328369140625,-0.013427734375
1772643962962716700,4.255716552734375,-0.9897308349609375,-0.0305328369140625,-0.0134124755859375
1772643962972757500,4.265757568359375,-0.9899444580078125,-0.03143310546875,-0.0134124755859375
1772643962982798600,4.275798583984375,-0.9892425537109375,-0.0311737060546875,-0.01373291015625
1772643962992839700,4.285839599609375,-0.989898681640625,-0.0313720703125,-0.014495849609375
1772643963002880500,4.295880615234375,-0.9893341064453125,-0.030364990234375,-0.014404296875
1772643963012921600,4.305921630859375,-0.989288330078125,-0.02984619140625,-0.0139007568359375
1772643963022961700,4.315961669921875,-0.989532470703125,-0.0309906005859375,-0.013702392578125
1772643963033002500,4.32600244140625,-0.990570068359375,-0.0309600830078125,-0.012451171875
1772643963043043600,4.336043701171875,-0.99072265625,-0.0305023193359375,-0.01348876953125
1772643963053084700,4.346084716796875,-0.9888916015625,-0.0319671630859375,-0.0138702392578125
1772643963063125500,4.35612548828125,-0.9889068603515625,-0.0308074951171875,-0.0125274658203125
1772643963073166600,4.36616650390625,-0.991302490234375,-0.0303802490234375,-0.0139617919921875
1772643963083206400,4.376206298828125,-0.990692138671875,-0.03125,-0.014617919921875
1772643963093247700,4.386247802734375,-0.9887847900390625,-0.0309295654296875,-0.01373291015625
1772643963103288600,4.39628857421875,-0.989532470703125,-0.03125,-0.012115478515625
1772643963113329700,4.40632958984375,-0.990020751953125,-0.03045654296875,-0.012298583984375
1772643963123370800,4.416370849609375,-0.9907073974609375,-0.0308074951171875,-0.0126495361328125
1772643963133410600,4.42641064453125,-0.98931884765625,-0.0297393798828125,-0.0126953125
1772643963143451400,4.436451416015625,-0.9896392822265625,-0.0298614501953125,-0.013397216796875
1772643963153492500,4.446492431640625,-0.989105224609375,-0.031646728515625,-0.0145111083984375
1772643963163533600,4.456533447265625,-0.98944091796875,-0.0308837890625,-0.014007568359375
1772643963173574400,4.466574462890625,-0.9893798828125,-0.03106689453125,-0.0137176513671875
1772643963183615500,4.476615478515625,-0.990325927734375,-0.0312347412109375,-0.0151214599609375
1772643963193655600,4.486655517578125,-0.9904327392578125,-0.031097412109375,-0.0139923095703125
1772643963203696400,4.4966962890625,-0.989959716796875,-0.030731201171875,-0.0134429931640625
1772643963213737500,4.506737548828125,-0.9899139404296875,-0.0308074951171875,-0.0153656005859375
1772643963223778600,4.516778564453125,-0.990478515625,-0.0316162109375,-0.014312744140625
1772643963233819400,4.5268193359375,-0.9896087646484375,-0.0305328369140625,-0.0129241943359375
1772643963243860500,4.536860595703125,-0.9901885986328125,-0.030303955078125,-0.0120391845703125
1772643963253900500,4.546900634765625,-0.989898681640625,-0.0300140380859375,-0.0128021240234375
1772643963263941600,4.556941650390625,-0.9890594482421875,-0.0310821533203125,-0.01202392578125
1772643963273982500,4.566982421875,-0.9904937744140625,-0.03118896484375,-0.0125274658203125
1772643963284023600,4.5770234375,-0.989990234375,-0.0301971435546875,-0.0131683349609375
1772643963294064600,4.587064697265625,-0.98876953125,-0.0316162109375,-0.0126953125
1772643963304105500,4.59710546875,-0.988861083984375,-0.0304107666015625,-0.0135955810546875
1772643963314145500,4.6071455078125,-0.98980712890625,-0.0311431884765625,-0.013214111328125
1772643963324186600,4.6171865234375,-0.989166259765625,-0.0303802490234375,-0.01275634765625
1772643963334227500,4.6272275390625,-0.9894561767578125,-0.0304412841796875,-0.013885498046875
1772643963344268500,4.6372685546875,-0.989166259765625,-0.0312347412109375,-0.0148162841796875
1772643963354309600,4.6473095703125,-0.990203857421875,-0.03125,-0.01373291015625
1772643963364350500,4.6573505859375,-0.9898834228515625,-0.0304412841796875,-0.0133056640625
1772643963374390500,4.667390625,-0.9906463623046875,-0.02996826171875,-0.013397216796875
1772643963384431600,4.677431640625,-0.9897003173828125,-0.03167724609375,-0.0143890380859375
1772643963394472700,4.68747265625,-0.9902191162109375,-0.0302734375,-0.013397216796875
1772643963404513500,4.697513427734375,-0.9899139404296875,-0.0302581787109375,-0.011627197265625
1772643963414554600,4.7075546875,-0.9903564453125,-0.0305328369140625,-0.0126190185546875
1772643963424595700,4.717595703125,-0.98931884765625,-0.0301971435546875,-0.0123138427734375
1772643963434635500,4.727635498046875,-0.989837646484375,-0.0316162109375,-0.01214599609375
1772643963444676600,4.737676513671875,-0.990814208984375,-0.0320281982421875,-0.0130157470703125
1772643963454717700,4.7477177734375,-0.990631103515625,-0.0314483642578125,-0.0128173828125
1772643963464758500,4.757758544921875,-0.9900054931640625,-0.0308074951171875,-0.0121917724609375
1772643963474799600,4.767799560546875,-0.99005126953125,-0.031829833984375,-0.01239013671875
1772643963484840700,4.7778408203125,-0.989410400390625,-0.0310211181640625,-0.0137176513671875
1772643963494880500,4.787880615234375,-0.99114990234375,-0.029815673828125,-0.0138397216796875
1772643963504921300,4.79792138671875,-0.989532470703125,-0.031341552734375,-0.0120849609375
1772643963514962400,4.80796240234375,-0.9893798828125,-0.0315399169921875,-0.0126953125
1772643963525003500,4.81800341796875,-0.988525390625,-0.0300140380859375,-0.0131072998046875
1772643963535044400,4.82804443359375,-0.99090576171875,-0.03173828125,-0.01385498046875
1772643963545084400,4.83808447265625,-0.9901580810546875,-0.0306396484375,-0.013397216796875
1772643963555125500,4.84812548828125,-0.9918975830078125,-0.031402587890625,-0.0128021240234375
1772643963565166600,4.85816650390625,-0.98919677734375,-0.0306854248046875,-0.013763427734375
1772643963575207400,4.86820751953125,-0.9892578125,-0.03155517578125,-0.013946533203125
1772643963585248500,4.87824853515625,-0.98944091796875,-0.031707763671875,-0.01361083984375
1772643963595289300,4.888289306640625,-0.9892730712890625,-0.030426025390625,-0.012969970703125
1772643963605329400,4.898329345703125,-0.9895782470703125,-0.029998779296875,-0.0122833251953125
1772643963615370500,4.90837060546875,-0.9894866943359375,-0.030120849609375,-0.0121002197265625
1772643963625411600,4.91841162109375,-0.9897613525390625,-0.028656005859375,-0.0138397216796875
1772643963635452400,4.928452392578125,-0.99078369140625,-0.031005859375,-0.0127716064453125
1772643963645493500,4.938493408203125,-0.9903564453125,-0.0308380126953125,-0.01324462890625
1772643963655534600,4.94853466796875,-0.989715576171875,-0.030426025390625,-0.01202392578125
1772643963665574700,4.95857470703125,-0.9909210205078125,-0.0309600830078125,-0.0129852294921875
1772643963675615500,4.968615478515625,-0.989532470703125,-0.0318450927734375,-0.0142059326171875
1772643963685656600,4.978656494140625,-0.988739013671875,-0.0326690673828125,-0.0139312744140625
1772643963695697700,4.98869775390625,-0.9901275634765625,-0.0301361083984375,-0.0142822265625
1772643963705738500,4.998738525390625,-0.990814208984375,-0.0301361083984375,-0.0140228271484375
1772643963715779600,5.008779541015625,-0.98974609375,-0.0308685302734375,-0.0133209228515625
1772643963725819600,5.018819580078125,-0.9901123046875,-0.03033447265625,-0.0141143798828125
1772643963735860500,5.028860595703125,-0.99041748046875,-0.0313568115234375,-0.013702392578125
1772643963745901600,5.038901611328125,-0.990142822265625,-0.0314483642578125,-0.01104736328125
1772643963755942700,5.048942626953125,-0.9884490966796875,-0.0305938720703125,-0.0125885009765625
1772643963765983500,5.0589833984375,-0.98992919921875,-0.0301513671875,-0.011962890625
1772643963776023600,5.0690234375,-0.989837646484375,-0.030517578125,-0.012908935546875
1772643963786064600,5.079064697265625,-0.9897613525390625,-0.0313720703125,-0.0111236572265625
1772643963796105700,5.089105712890625,-0.989227294921875,-0.0316009521484375,-0.0130767822265625
1772643963806146600,5.099146484375,-0.9890289306640625,-0.0303497314453125,-0.01214599609375
1772643963816187600,5.109187744140625,-0.98968505859375,-0.0309295654296875,-0.0128936767578125
1772643963826228700,5.119228759765625,-0.9898223876953125,-0.031890869140625,-0.0140838623046875
1772643963836268500,5.1292685546875,-0.9904632568359375,-0.0311431884765625,-0.0135955810546875
1772643963846309400,5.139309326171875,-0.98968505859375,-0.031524658203125,-0.0129241943359375
1772643963856350500,5.1493505859375,-0.9903564453125,-0.0294342041015625,-0.01336669921875
1772643963866391300,5.159391357421875,-0.98834228515625,-0.0317840576171875,-0.01312255859375
1772643963876432400,5.169432373046875,-0.9890899658203125,-0.03155517578125,-0.013763427734375
1772643963886473500,5.179473388671875,-0.99102783203125,-0.030670166015625,-0.0131378173828125
1772643963896513500,5.189513427734375,-0.988677978515625,-0.0302581787109375,-0.012725830078125
1772643963906554400,5.199554443359375,-0.9894866943359375,-0.031097412109375,-0.013671875
1772643963916595500,5.209595458984375,-0.9897613525390625,-0.03204345703125,-0.0144195556640625
1772643963926636500,5.219636474609375,-0.98883056640625,-0.0308837890625,-0.0132293701171875
1772643963936677400,5.229677490234375,-0.988861083984375,-0.030120849609375,-0.0145263671875
1772643963946718500,5.239718505859375,-0.988067626953125,-0.031463623046875,-0.01348876953125
1772643963956758500,5.249758544921875,-0.990875244140625,-0.0305633544921875,-0.01190185546875
1772643963966799000,5.259799072265625,-0.990081787109375,-0.0305938720703125,-0.0129241943359375
1772643963976840000,5.26983984375,-0.9896240234375,-0.03009033203125,-0.012725830078125
1772643963986881000,5.279881103515625,-0.989959716796875,-0.0297088623046875,-0.011962890625
1772643963996922000,5.289922119140625,-0.990753173828125,-0.0301666259765625,-0.012969970703125
1772643964006962000,5.2999619140625,-0.9888916015625,-0.031036376953125,-0.0131072998046875
1772643964020768000,5.31376806640625,-0.9901275634765625,-0.030242919921875,-0.0121917724609375
1772643964030808800,5.323808837890625,-0.990997314453125,-0.0305633544921875,-0.0138092041015625
1772643964040850000,5.333849853515625,-0.9892120361328125,-0.0314178466796875,-0.0142364501953125
1772643964050891000,5.34389111328125,-0.989776611328125,-0.0307769775390625,-0.0127716064453125
1772643964060931800,5.353931884765625,-0.98980712890625,-0.03009033203125,-0.0130767822265625
1772643964070972000,5.363971923828125,-0.9897003173828125,-0.0302276611328125,-0.0133514404296875
1772643964081013000,5.374012939453125,-0.9891357421875,-0.031402587890625,-0.0130157470703125
1772643964091054000,5.38405419921875,-0.988739013671875,-0.0312347412109375,-0.0144805908203125
1772643964101095000,5.394094970703125,-0.9896087646484375,-0.0308685302734375,-0.01422119140625
1772643964111136000,5.404135986328125,-0.9885406494140625,-0.030364990234375,-0.0133514404296875
1772643964121176800,5.4141767578125,-0.9889373779296875,-0.0313873291015625,-0.01336669921875
1772643964131217000,5.424216796875,-0.9894256591796875,-0.0299224853515625,-0.013092041015625
1772643964141258000,5.434258056640625,-0.98968505859375,-0.029876708984375,-0.0126495361328125
1772643964151299000,5.444299072265625,-0.9898223876953125,-0.030853271484375,-0.0125885009765625
1772643964161340000,5.45433984375,-0.990142822265625,-0.029998779296875,-0.012298583984375
1772643964171381000,5.464381103515625,-0.9891204833984375,-0.0311279296875,-0.012847900390625
1772643964181422000,5.474422119140625,-0.9889678955078125,-0.0300750732421875,-0.01275634765625
1772643964191462000,5.4844619140625,-0.9905242919921875,-0.031036376953125,-0.0128021240234375
1772643964201502700,5.494502685546875,-0.989837646484375,-0.030975341796875,-0.0135650634765625
1772643964211543800,5.504543701171875,-0.9887847900390625,-0.0305328369140625,-0.013427734375
1772643964221585000,5.5145849609375,-0.9898529052734375,-0.0292816162109375,-0.0139007568359375
1772643964231625700,5.524625732421875,-0.99005126953125,-0.0303497314453125,-0.0134735107421875
1772643964241666800,5.534666748046875,-0.9903106689453125,-0.0303955078125,-0.012664794921875
1772643964251707000,5.544706787109375,-0.9898529052734375,-0.0301971435546875,-0.0135650634765625
1772643964261747700,5.554747802734375,-0.98919677734375,-0.030303955078125,-0.0124053955078125
1772643964271788800,5.564788818359375,-0.9892730712890625,-0.0314483642578125,-0.0136566162109375
1772643964281830000,5.574829833984375,-0.9901123046875,-0.03118896484375,-0.0125885009765625
1772643964291870700,5.58487060546875,-0.9903411865234375,-0.0297088623046875,-0.0125579833984375
1772643964301910800,5.594910888671875,-0.989349365234375,-0.0301513671875,-0.0128936767578125
1772643964311952000,5.604951904296875,-0.989410400390625,-0.03094482421875,-0.012969970703125
1772643964321993000,5.614992919921875,-0.9897003173828125,-0.03125,-0.0128326416015625
1772643964332033800,5.62503369140625,-0.9892730712890625,-0.0303497314453125,-0.0140533447265625
1772643964342075000,5.635074951171875,-0.989501953125,-0.0299530029296875,-0.013336181640625
1772643964352116000,5.645115966796875,-0.99066162109375,-0.02996826171875,-0.012664794921875
1772643964362156800,5.65515673828125,-0.990264892578125,-0.0297088623046875,-0.01287841796875
1772643964372198000,5.665197998046875,-0.99127197265625,-0.0312347412109375,-0.0132293701171875
1772643964382238000,5.675238037109375,-0.9910430908203125,-0.029388427734375,-0.0126953125
1772643964392278800,5.68527880859375,-0.9890899658203125,-0.030548095703125,-0.0137176513671875
1772643964402320000,5.69531982421875,-0.98974609375,-0.0305023193359375,-0.013153076171875
1772643964412361000,5.70536083984375,-0.9905242919921875,-0.0312957763671875,-0.0131378173828125
1772643964422401800,5.71540185546875,-0.989990234375,-0.0309906005859375,-0.014251708984375
1772643964432441900,5.72544189453125,-0.9892578125,-0.031097412109375,-0.0131072998046875
1772643964442483000,5.73548291015625,-0.98944091796875,-0.0301361083984375,-0.01263427734375
1772643964452524000,5.74552392578125,-0.990264892578125,-0.031005859375,-0.0121002197265625
1772643964462564900,5.75556494140625,-0.9908905029296875,-0.0309600830078125,-0.012603759765625
1772643964472606000,5.76560595703125,-0.990081787109375,-0.031646728515625,-0.0117340087890625
1772643964482647000,5.77564697265625,-0.989105224609375,-0.0310821533203125,-0.0124664306640625
1772643964492687000,5.78568701171875,-0.988677978515625,-0.031036376953125,-0.013153076171875
1772643964502728000,5.79572802734375,-0.990936279296875,-0.03106689453125,-0.0118408203125
1772643964512769000,5.80576904296875,-0.990203857421875,-0.0305633544921875,-0.0127716064453125
1772643964522809900,5.815809814453125,-0.990264892578125,-0.0310516357421875,-0.0120086669921875
1772643964532851000,5.825850830078125,-0.990875244140625,-0.03057861328125,-0.013336181640625
1772643964542892000,5.83589208984375,-0.9895477294921875,-0.0310516357421875,-0.0128631591796875
1772643964552932000,5.84593212890625,-0.990447998046875,-0.030548095703125,-0.0135955810546875
1772643964562973000,5.855972900390625,-0.989501953125,-0.03057861328125,-0.012969970703125
1772643964573014000,5.866013916015625,-0.991455078125,-0.0308074951171875,-0.013519287109375
1772643964583055000,5.87605517578125,-0.990203857421875,-0.0308837890625,-0.013580322265625
1772643964593096000,5.886095947265625,-0.990692138671875,-0.03125,-0.014434814453125
1772643964603137000,5.896136962890625,-0.9911956787109375,-0.03125,-0.014495849609375
1772643964613176800,5.9061767578125,-0.988922119140625,-0.030059814453125,-0.013916015625
1772643964623218000,5.916218017578125,-0.9897613525390625,-0.03106689453125,-0.0120086669921875
1772643964633258800,5.9262587890625,-0.98760986328125,-0.0312347412109375,-0.0129547119140625
1772643964643299800,5.9362998046875,-0.989715576171875,-0.03094482421875,-0.013641357421875
1772643964653341000,5.9463408203125,-0.98968505859375,-0.030853271484375,-0.01318359375
1772643964663381800,5.9563818359375,-0.9895172119140625,-0.0307464599609375,-0.0128021240234375
1772643964673421800,5.966421875,-0.989776611328125,-0.030487060546875,-0.012359619140625
1772643964683463000,5.976462890625,-0.9902496337890625,-0.0305938720703125,-0.0134124755859375
1772643964693503700,5.986503662109375,-0.990478515625,-0.03045654296875,-0.0132293701171875
1772643964703544800,5.996544921875,-0.989227294921875,-0.0314178466796875,-0.013427734375
1772643964713586000,6.0065859375,-0.9906005859375,-0.0315399169921875,-0.0133056640625
1772643964723626000,6.0166259765625,-0.989837646484375,-0.03118896484375,-0.012603759765625
1772643964733666800,6.026666748046875,-0.988677978515625,-0.03125,-0.013336181640625
1772643964743708000,6.0367080078125,-0.990386962890625,-0.030487060546875,-0.0130767822265625
1772643964753749000,6.0467490234375,-0.9906158447265625,-0.0308837890625,-0.0138397216796875
1772643964763789800,6.056789794921875,-0.9906463623046875,-0.03094482421875,-0.0130615234375
1772643964773831000,6.066830810546875,-0.9898529052734375,-0.0308837890625,-0.0140228271484375
1772643964783871000,6.07687109375,-0.9895172119140625,-0.0307464599609375,-0.0129852294921875
1772643964793911800,6.086911865234375,-0.990142822265625,-0.03131103515625,-0.0141143798828125
1772643964803953000,6.096952880859375,-0.9898834228515625,-0.03033447265625,-0.013214111328125
1772643964813994000,6.106993896484375,-0.9891815185546875,-0.030181884765625,-0.0142822265625
1772643964824034800,6.117034912109375,-0.9905853271484375,-0.0302276611328125,-0.013671875
1772643964834075000,6.127074951171875,-0.9906158447265625,-0.0303955078125,-0.01263427734375
1772643964844116000,6.137115966796875,-0.9896697998046875,-0.0308074951171875,-0.0127105712890625
1772643964854157000,6.147156982421875,-0.989593505859375,-0.0303955078125,-0.0127105712890625
1772643964864198000,6.157197998046875,-0.9908447265625,-0.0313873291015625,-0.013092041015625
1772643964874239000,6.167239013671875,-0.9901885986328125,-0.0300750732421875,-0.01348876953125
1772643964884280000,6.177280029296875,-0.9909515380859375,-0.0314483642578125,-0.0127410888671875
1772643964894320000,6.187320068359375,-0.9896087646484375,-0.02996826171875,-0.0121612548828125
1772643964904361000,6.19736083984375,-0.9904022216796875,-0.030914306640625,-0.012847900390625
1772643964914402000,6.207402099609375,-0.9896240234375,-0.0301361083984375,-0.0140380859375
1772643964924443000,6.21744287109375,-0.989471435546875,-0.0311431884765625,-0.0134735107421875
1772643964934484000,6.22748388671875,-0.9911651611328125,-0.030914306640625,-0.013580322265625
1772643964944525000,6.237525146484375,-0.9895782470703125,-0.0321197509765625,-0.0133819580078125
1772643964954564900,6.24756494140625,-0.9900360107421875,-0.0311737060546875,-0.01275634765625
1772643964964606700,6.257606689453125,-0.988189697265625,-0.0313720703125,-0.01312255859375
1772643964974647800,6.267647705078125,-0.9888763427734375,-0.0307159423828125,-0.0135345458984375
1772643964984688600,6.277688720703125,-0.9891357421875,-0.0308380126953125,-0.0142669677734375
1772643964994729700,6.287729736328125,-0.9882659912109375,-0.0318450927734375,-0.0135955810546875
1772643965004770800,6.297770751953125,-0.9904632568359375,-0.03155517578125,-0.013092041015625
1772643965014811000,6.307810791015625,-0.98834228515625,-0.031005859375,-0.013916015625
1772643965024851700,6.317851806640625,-0.9899749755859375,-0.0311431884765625,-0.01171875
1772643965034892800,6.327892822265625,-0.9904022216796875,-0.0307159423828125,-0.0125579833984375
1772643965044934000,6.337933837890625,-0.990203857421875,-0.0310821533203125,-0.0125732421875
1772643965054974700,6.347974609375,-0.9901580810546875,-0.030914306640625,-0.014251708984375
1772643965065014500,6.3580146484375,-0.99041748046875,-0.0312652587890625,-0.0133209228515625
1772643965075055600,6.3680556640625,-0.9907684326171875,-0.0299835205078125,-0.0123138427734375
1772643965085096700,6.3780966796875,-0.990386962890625,-0.0301666259765625,-0.01446533203125
1772643965095137500,6.388137451171875,-0.9892120361328125,-0.0303192138671875,-0.012420654296875
1772643965105178600,6.3981787109375,-0.9900970458984375,-0.030975341796875,-0.012969970703125
1772643965115219700,6.4082197265625,-0.9896697998046875,-0.03125,-0.013427734375
1772643965125259500,6.418259521484375,-0.9892425537109375,-0.030487060546875,-0.0131988525390625
1772643965135300600,6.428300537109375,-0.9897918701171875,-0.0309906005859375,-0.0128326416015625
1772643965145341700,6.438341796875,-0.9903411865234375,-0.0320281982421875,-0.01275634765625
1772643965155382500,6.448382568359375,-0.9893951416015625,-0.0303955078125,-0.0122833251953125
1772643965165423600,6.458423583984375,-0.99005126953125,-0.02935791015625,-0.01287841796875
1772643965175464700,6.468464599609375,-0.9882659912109375,-0.0294342041015625,-0.0129547119140625
1772643965185504800,6.4785048828125,-0.989044189453125,-0.030731201171875,-0.0129547119140625
1772643965195545600,6.488545654296875,-0.9890594482421875,-0.0305938720703125,-0.012420654296875
1772643965205586700,6.498586669921875,-0.9897613525390625,-0.0306396484375,-0.0125732421875
1772643965215627800,6.508627685546875,-0.989471435546875,-0.03009033203125,-0.01263427734375
1772643965225668600,6.518668701171875,-0.9901580810546875,-0.030853271484375,-0.0129241943359375
1772643965235708700,6.528708740234375,-0.9896697998046875,-0.0301055908203125,-0.0131683349609375
1772643965245749800,6.538749755859375,-0.9897003173828125,-0.030120849609375,-0.013336181640625
1772643965255790600,6.54879052734375,-0.9898223876953125,-0.030242919921875,-0.01287841796875
1772643965265831700,6.558831787109375,-0.9896697998046875,-0.031341552734375,-0.013946533203125
1772643965275872800,6.568872802734375,-0.9893951416015625,-0.0301361083984375,-0.0135955810546875
1772643965285913600,6.57891357421875,-0.9904022216796875,-0.0299530029296875,-0.0125885009765625
1772643965295953700,6.58895361328125,-0.989471435546875,-0.031005859375,-0.0124053955078125
1772643965305994800,6.598994873046875,-0.9898834228515625,-0.0308990478515625,-0.0140533447265625
1772643965316035800,6.609035888671875,-0.99041748046875,-0.030029296875,-0.0136260986328125
1772643965326076700,6.61907666015625,-0.99114990234375,-0.0298919677734375,-0.0130767822265625
1772643965336117800,6.62911767578125,-0.9904022216796875,-0.0313720703125,-0.0124053955078125
1772643965346157800,6.63915771484375,-0.9906768798828125,-0.0310821533203125,-0.0140228271484375
1772643965356199000,6.649198974609375,-0.9901580810546875,-0.0310516357421875,-0.012939453125
1772643965366239700,6.65923974609375,-0.98846435546875,-0.031005859375,-0.013824462890625
1772643965376280800,6.66928076171875,-0.9898834228515625,-0.0307159423828125,-0.0130462646484375
1772643965386321700,6.67932177734375,-0.9899749755859375,-0.03009033203125,-0.0124664306640625
1772643965396362800,6.68936279296875,-0.98974609375,-0.0303955078125,-0.012939453125
1772643965406402600,6.699402587890625,-0.98876953125,-0.0309906005859375,-0.0133514404296875
1772643965416443600,6.709443603515625,-0.990081787109375,-0.0308074951171875,-0.01324462890625
1772643965426484500,6.719484375,-0.990081787109375,-0.031402587890625,-0.013092041015625
1772643965436525600,6.729525634765625,-0.9901123046875,-0.030120849609375,-0.0137176513671875
1772643965446566700,6.739566650390625,-0.9893798828125,-0.0293121337890625,-0.0137786865234375
1772643965456607700,6.749607666015625,-0.9902801513671875,-0.0294952392578125,-0.013671875
1772643965466647600,6.7596474609375,-0.9904937744140625,-0.0313262939453125,-0.0135650634765625
1772643965476688600,6.769688720703125,-0.989837646484375,-0.0298309326171875,-0.0143890380859375
1772643965486729700,6.779729736328125,-0.9889068603515625,-0.030609130859375,-0.01361083984375
1772643965496770600,6.7897705078125,-0.9893341064453125,-0.0316009521484375,-0.014495849609375
1772643965506811600,6.799811767578125,-0.9897308349609375,-0.0311431884765625,-0.013427734375
1772643965516851700,6.809851806640625,-0.9892120361328125,-0.029296875,-0.0139312744140625
1772643965526892500,6.819892578125,-0.9893646240234375,-0.0309295654296875,-0.012969970703125
1772643965536933600,6.82993359375,-0.990509033203125,-0.030792236328125,-0.013275146484375
1772643965546974700,6.839974609375,-0.9893951416015625,-0.0303955078125,-0.0126190185546875
1772643965557015600,6.850015625,-0.98992919921875,-0.0296173095703125,-0.0120391845703125
1772643965567056600,6.860056640625,-0.9884033203125,-0.0307464599609375,-0.0125274658203125
1772643965577096700,6.8700966796875,-0.989715576171875,-0.029388427734375,-0.0135040283203125
1772643965587137800,6.8801376953125,-0.989715576171875,-0.0304412841796875,-0.0129852294921875
1772643965597178600,6.8901787109375,-0.989410400390625,-0.030426025390625,-0.0132293701171875
1772643965607219700,6.9002197265625,-0.99017333984375,-0.03173828125,-0.0130767822265625
1772643965617260800,6.9102607421875,-0.9900970458984375,-0.0316314697265625,-0.0131378173828125
1772643965627301600,6.920301513671875,-0.9900970458984375,-0.0299530029296875,-0.0133819580078125
1772643965637341700,6.930341796875,-0.99041748046875,-0.0300140380859375,-0.01300048828125
1772643965647382800,6.9403828125,-0.9907989501953125,-0.03070068359375,-0.013671875
1772643965657423600,6.950423583984375,-0.99102783203125,-0.0314483642578125,-0.0131378173828125
1772643965667464700,6.960464599609375,-0.9896697998046875,-0.0306396484375,-0.014068603515625
1772643965677505800,6.970505859375,-0.9896392822265625,-0.0307769775390625,-0.013702392578125
1772643965687545900,6.9805458984375,-0.99005126953125,-0.031829833984375,-0.0131683349609375
1772643965697586700,6.990586669921875,-0.9893646240234375,-0.03125,-0.0125579833984375
1772643965707627800,7.000627685546875,-0.9904937744140625,-0.030548095703125,-0.0136566162109375
1772643965717668900,7.0106689453125,-0.989410400390625,-0.0301361083984375,-0.0133819580078125
1772643965727709700,7.020709716796875,-0.9892730712890625,-0.031036376953125,-0.01239013671875
1772643965737750800,7.030750732421875,-0.989349365234375,-0.03021240234375,-0.0123291015625
1772643965747790800,7.040790771484375,-0.9907684326171875,-0.0310516357421875,-0.01361083984375
1772643965757832000,7.05083203125,-0.9910430908203125,-0.0312347412109375,-0.013427734375
1772643965767872800,7.060872802734375,-0.991455078125,-0.0304412841796875,-0.0133056640625
1772643965777913900,7.070913818359375,-0.989532470703125,-0.03094482421875,-0.013458251953125
1772643965787954700,7.08095458984375,-0.9898834228515625,-0.0303497314453125,-0.0134429931640625
1772643965797994500,7.090994384765625,-0.990081787109375,-0.03125,-0.013702392578125
1772643965808035600,7.10103564453125,-0.9888763427734375,-0.0301666259765625,-0.0128631591796875
1772643965818076700,7.11107666015625,-0.989654541015625,-0.0301666259765625,-0.012908935546875
1772643965828117500,7.121117431640625,-0.98956298828125,-0.0293426513671875,-0.0134429931640625
1772643965838158600,7.13115869140625,-0.99041748046875,-0.030517578125,-0.01287841796875
1772643965848199700,7.14119970703125,-0.9900360107421875,-0.029998779296875,-0.01300048828125
1772643965858239700,7.15123974609375,-0.98931884765625,-0.029998779296875,-0.0128326416015625
1772643965868280600,7.161280517578125,-0.9901275634765625,-0.0315704345703125,-0.012420654296875
1772643965878321700,7.17132177734375,-0.989471435546875,-0.031036376953125,-0.013397216796875
1772643965888362800,7.18136279296875,-0.9906005859375,-0.0310821533203125,-0.0120849609375
1772643965898403600,7.191403564453125,-0.9900970458984375,-0.030609130859375,-0.0137939453125
1772643965908443600,7.201443603515625,-0.990020751953125,-0.03045654296875,-0.0131988525390625
1772643965918484700,7.211484619140625,-0.991058349609375,-0.0292205810546875,-0.0125274658203125
1772643965928525600,7.221525634765625,-0.9897308349609375,-0.0311737060546875,-0.01287841796875
1772643965938566700,7.231566650390625,-0.9899139404296875,-0.031005859375,-0.0138092041015625
1772643965948607700,7.241607666015625,-0.9896697998046875,-0.030853271484375,-0.013427734375
1772643965958648600,7.251648681640625,-0.99072265625,-0.0316619873046875,-0.012786865234375
1772643965968688000,7.261688232421875,-0.990081787109375,-0.0302734375,-0.01385498046875
1772643965978729200,7.271729248046875,-0.9889373779296875,-0.0313720703125,-0.013946533203125
1772643965988770300,7.281770263671875,-0.989776611328125,-0.031005859375,-0.01348876953125
1772643965998811100,7.29181103515625,-0.990142822265625,-0.03131103515625,-0.0148773193359375
1772643966008852200,7.301852294921875,-0.9895477294921875,-0.03009033203125,-0.0126190185546875
1772643966018893300,7.311893310546875,-0.9904022216796875,-0.0305328369140625,-0.0139007568359375
1772643966028933000,7.32193310546875,-0.989776611328125,-0.0299530029296875,-0.013214111328125
1772643966038974000,7.331973876953125,-0.9903106689453125,-0.0308990478515625,-0.0124664306640625
1772643966049015000,7.34201513671875,-0.9915771484375,-0.0302886962890625,-0.013153076171875
1772643966059056000,7.35205615234375,-0.9903411865234375,-0.0315399169921875,-0.0124664306640625
1772643966069097000,7.362096923828125,-0.9895477294921875,-0.031280517578125,-0.0123138427734375
1772643966079137000,7.372136962890625,-0.9908905029296875,-0.0297698974609375,-0.0148468017578125
1772643966089178000,7.38217822265625,-0.99029541015625,-0.0299224853515625,-0.01361083984375
1772643966099219200,7.39221923828125,-0.9889068603515625,-0.03057861328125,-0.0142822265625
1772643966109260000,7.402260009765625,-0.9886627197265625,-0.0302734375,-0.0135040283203125
1772643966119301000,7.412301025390625,-0.990081787109375,-0.0305633544921875,-0.0136260986328125
1772643966129342000,7.422342041015625,-0.9898834228515625,-0.03076171875,-0.01275634765625
1772643966139382000,7.432382080078125,-0.99017333984375,-0.03076171875,-0.0134429931640625
1772643966149423000,7.442423095703125,-0.98956298828125,-0.0309906005859375,-0.013519287109375
1772643966159464200,7.452464111328125,-0.9892578125,-0.031829833984375,-0.0135345458984375
1772643966169505000,7.462505126953125,-0.989593505859375,-0.029296875,-0.0138397216796875
1772643966179546000,7.472546142578125,-0.989990234375,-0.0302276611328125,-0.0137176513671875
1772643966189586200,7.482586181640625,-0.9900665283203125,-0.03131103515625,-0.0129547119140625
1772643966199627300,7.492627197265625,-0.9906463623046875,-0.030120849609375,-0.0139617919921875
1772643966209668000,7.502668212890625,-0.989105224609375,-0.0318145751953125,-0.0135345458984375
1772643966219709200,7.512709228515625,-0.991455078125,-0.030548095703125,-0.01300048828125
1772643966229750300,7.522750244140625,-0.9898529052734375,-0.031005859375,-0.012664794921875
1772643966239791000,7.532791015625,-0.9900360107421875,-0.0304107666015625,-0.0127410888671875
1772643966249831200,7.5428310546875,-0.989044189453125,-0.031402587890625,-0.013824462890625
1772643966259872300,7.552872314453125,-0.99151611328125,-0.0300445556640625,-0.0138702392578125
1772643966269913000,7.5629130859375,-0.988311767578125,-0.030792236328125,-0.012359619140625
1772643966279954200,7.5729541015625,-0.9891815185546875,-0.0303192138671875,-0.0127105712890625
1772643966289995300,7.582995361328125,-0.9905853271484375,-0.0305328369140625,-0.0128326416015625
1772643966300035300,7.593035400390625,-0.990081787109375,-0.02984619140625,-0.01287841796875
1772643966310076200,7.603076171875,-0.98907470703125,-0.0299530029296875,-0.0135498046875
1772643966320117200,7.6131171875,-0.9900665283203125,-0.030303955078125,-0.0131072998046875
1772643966330158300,7.623158447265625,-0.988311767578125,-0.031707763671875,-0.0124053955078125
1772643966340199200,7.63319921875,-0.98919677734375,-0.0310821533203125,-0.0127716064453125
1772643966350240300,7.643240234375,-0.9909210205078125,-0.031097412109375,-0.01318359375
1772643966360280300,7.6532802734375,-0.99017333984375,-0.031158447265625,-0.01324462890625
1772643966370321200,7.663321044921875,-0.988800048828125,-0.0316619873046875,-0.0138092041015625
1772643966380362200,7.6733623046875,-0.9902801513671875,-0.0294036865234375,-0.013824462890625
1772643966390403300,7.6834033203125,-0.9906005859375,-0.031158447265625,-0.0145111083984375
1772643966400444200,7.693444091796875,-0.9904327392578125,-0.0314178466796875,-0.0130462646484375
1772643966410484000,7.70348388671875,-0.9905242919921875,-0.0303955078125,-0.0131378173828125
1772643966420525000,7.713525146484375,-0.989776611328125,-0.03118896484375,-0.013031005859375
1772643966430566100,7.723566162109375,-0.9897003173828125,-0.0295257568359375,-0.0135650634765625
1772643966440607000,7.73360693359375,-0.9913177490234375,-0.0307159423828125,-0.0121917724609375
1772643966450648000,7.74364794921875,-0.9892730712890625,-0.030548095703125,-0.0124969482421875
1772643966460689200,7.753689208984375,-0.9896697998046875,-0.03082275390625,-0.0128326416015625
1772643966470729200,7.763729248046875,-0.9894866943359375,-0.0310211181640625,-0.014404296875
1772643966480770000,7.77377001953125,-0.9896240234375,-0.0304412841796875,-0.013519287109375
1772643966490811100,7.78381103515625,-0.990142822265625,-0.032257080078125,-0.01287841796875
1772643966500852200,7.793852294921875,-0.99114990234375,-0.029571533203125,-0.013427734375
1772643966510893000,7.80389306640625,-0.9904327392578125,-0.030303955078125,-0.0122222900390625
1772643966520934100,7.81393408203125,-0.9890899658203125,-0.03076171875,-0.0137786865234375
1772643966530974200,7.82397412109375,-0.98968505859375,-0.0301971435546875,-0.0138092041015625
1772643966541015000,7.83401513671875,-0.9894561767578125,-0.03216552734375,-0.0137481689453125
1772643966551056100,7.84405615234375,-0.9899444580078125,-0.030548095703125,-0.0132293701171875
1772643966561097200,7.85409716796875,-0.98895263671875,-0.030914306640625,-0.013458251953125
1772643966571138000,7.864137939453125,-0.9900665283203125,-0.0316162109375,-0.014190673828125
1772643966581178000,7.87417822265625,-0.990264892578125,-0.030853271484375,-0.0118865966796875
1772643966591219200,7.88421923828125,-0.98870849609375,-0.0307769775390625,-0.01226806640625
1772643966601260300,7.89426025390625,-0.988800048828125,-0.0297698974609375,-0.012908935546875
1772643966611301000,7.904301025390625,-0.9897918701171875,-0.030059814453125,-0.012939453125
1772643966621342200,7.91434228515625,-0.9908294677734375,-0.0311126708984375,-0.01422119140625
1772643966631382300,7.92438232421875,-0.9897003173828125,-0.0310516357421875,-0.012725830078125
1772643966641423000,7.934423095703125,-0.9903717041015625,-0.03045654296875,-0.0140838623046875
1772643966651464200,7.944464111328125,-0.989105224609375,-0.0313262939453125,-0.0139923095703125
1772643966661505300,7.95450537109375,-0.989898681640625,-0.031494140625,-0.0132904052734375
1772643966671546000,7.964546142578125,-0.9893951416015625,-0.029998779296875,-0.0130615234375
1772643966681587200,7.974587158203125,-0.988983154296875,-0.03167724609375,-0.0130767822265625
1772643966691627300,7.984627197265625,-0.9891510009765625,-0.0308074951171875,-0.012847900390625
1772643966701668400,7.99466845703125,-0.9907379150390625,-0.0299072265625,-0.0131683349609375
1772643966711709200,8.004709228515624,-0.9898529052734375,-0.031280517578125,-0.0134124755859375
1772643966721750300,8.014750244140625,-0.9893951416015625,-0.0311279296875,-0.01318359375
1772643966731791400,8.024791259765625,-0.990234375,-0.031524658203125,-0.0134429931640625
1772643966741831200,8.0348310546875,-0.9906463623046875,-0.030609130859375,-0.0135040283203125
1772643966751872000,8.0448720703125,-0.9891510009765625,-0.0301666259765625,-0.013763427734375
1772643966761913000,8.0549130859375,-0.989105224609375,-0.0310211181640625,-0.0140228271484375
1772643966771954200,8.0649541015625,-0.9905853271484375,-0.03118896484375,-0.013641357421875
1772643966781995000,8.0749951171875,-0.98858642578125,-0.0311126708984375,-0.0137939453125
1772643966792036000,8.0850361328125,-0.990020751953125,-0.0308990478515625,-0.01336669921875
1772643966802076200,8.095076171875,-0.9892578125,-0.0309295654296875,-0.0140838623046875
1772643966812117000,8.105116943359375,-0.9896240234375,-0.030670166015625,-0.01348876953125
1772643966822158000,8.115157958984375,-0.9900970458984375,-0.03057861328125,-0.0130462646484375
1772643966832199200,8.12519921875,-0.989654541015625,-0.03094482421875,-0.0133514404296875
1772643966842240000,8.135239990234375,-0.989654541015625,-0.030792236328125,-0.0141754150390625
1772643966852280000,8.145280029296876,-0.990081787109375,-0.0299530029296875,-0.0140533447265625
1772643966862321200,8.155321044921875,-0.98956298828125,-0.031402587890625,-0.01409912109375
1772643966872362200,8.1653623046875,-0.988433837890625,-0.0301055908203125,-0.0127410888671875
1772643966882403000,8.175403076171875,-0.989013671875,-0.031524658203125,-0.0137939453125
1772643966892444200,8.185444091796874,-0.9890594482421875,-0.031524658203125,-0.013702392578125
1772643966902485200,8.1954853515625,-0.9899139404296875,-0.031524658203125,-0.0127716064453125
1772643966912525000,8.205525146484375,-0.9900054931640625,-0.0306243896484375,-0.014739990234375
1772643966922566100,8.215566162109376,-0.988861083984375,-0.0311279296875,-0.013427734375
1772643966932607200,8.225607177734375,-0.9905548095703125,-0.03070068359375,-0.012451171875
1772643966942648000,8.23564794921875,-0.9905242919921875,-0.0303802490234375,-0.0136260986328125
1772643966952689200,8.245689208984375,-0.9898529052734375,-0.0316162109375,-0.01361083984375
1772643966962729200,8.255729248046874,-0.9906158447265625,-0.0309906005859375,-0.0134429931640625
1772643966972770300,8.265770263671875,-0.9888153076171875,-0.0316162109375,-0.0125274658203125
1772643966982811100,8.27581103515625,-0.9892578125,-0.031341552734375,-0.0136566162109375
1772643966992852200,8.285852294921876,-0.988983154296875,-0.03076171875,-0.013641357421875
1772643967002893300,8.295893310546875,-0.989654541015625,-0.0310821533203125,-0.0139923095703125
1772643967012934100,8.30593408203125,-0.991302490234375,-0.0312957763671875,-0.01324462890625
1772643967022974200,8.31597412109375,-0.989471435546875,-0.030487060546875,-0.0138702392578125
1772643967033015300,8.326015380859374,-0.9893646240234375,-0.0302276611328125,-0.0131988525390625
1772643967043056000,8.33605615234375,-0.990509033203125,-0.0299224853515625,-0.0130615234375
1772643967053097200,8.34609716796875,-0.9899139404296875,-0.0303802490234375,-0.01336669921875
1772643967063138300,8.35613818359375,-0.9898223876953125,-0.03057861328125,-0.0128631591796875
1772643967073178400,8.366178466796875,-0.9910430908203125,-0.029632568359375,-0.0134124755859375
1772643967083219200,8.37621923828125,-0.9908294677734375,-0.030487060546875,-0.0136566162109375
1772643967093260300,8.38626025390625,-0.989501953125,-0.0307769775390625,-0.012542724609375
1772643967103301400,8.39630126953125,-0.989959716796875,-0.0306243896484375,-0.013214111328125
1772643967113342200,8.40634228515625,-0.990386962890625,-0.0300445556640625,-0.0135955810546875
1772643967123383300,8.41638330078125,-0.9892425537109375,-0.0313873291015625,-0.013916015625
1772643967133423400,8.42642333984375,-0.9896392822265625,-0.030914306640625,-0.0134124755859375
1772643967143464400,8.43646435546875,-0.9890899658203125,-0.031158447265625,-0.013824462890625
1772643967153505300,8.44650537109375,-0.9896087646484375,-0.030792236328125,-0.013763427734375
1772643967163546400,8.45654638671875,-0.9902801513671875,-0.0306549072265625,-0.01397705078125
1772643967173587200,8.466587158203126,-0.9894561767578125,-0.0308380126953125,-0.01263427734375
1772643967183627300,8.476627197265625,-0.9892578125,-0.0301361083984375,-0.012908935546875
1772643967193668400,8.48666845703125,-0.990081787109375,-0.031097412109375,-0.01324462890625
1772643967203709400,8.49670947265625,-0.9902801513671875,-0.030548095703125,-0.0129852294921875
1772643967213750300,8.506750244140624,-0.9898529052734375,-0.0299835205078125,-0.013336181640625
1772643967223791400,8.516791259765625,-0.990386962890625,-0.0303497314453125,-0.0132293701171875
1772643967233831200,8.5268310546875,-0.99072265625,-0.0314178466796875,-0.01336669921875
1772643967243872300,8.536872314453126,-0.9886016845703125,-0.0312652587890625,-0.0126800537109375
1772643967253913000,8.5469130859375,-0.989105224609375,-0.03173828125,-0.0129852294921875
1772643967263954400,8.556954345703126,-0.9904022216796875,-0.031524658203125,-0.0132598876953125
1772643967273995500,8.56699560546875,-0.9896697998046875,-0.0290374755859375,-0.013275146484375
1772643967284036400,8.577036376953124,-0.9893646240234375,-0.0305633544921875,-0.012725830078125
1772643967294076200,8.587076171875,-0.9892120361328125,-0.0304718017578125,-0.012969970703125
1772643967304117200,8.5971171875,-0.989471435546875,-0.0307464599609375,-0.0130767822265625
1772643967314158000,8.607157958984375,-0.9891357421875,-0.031158447265625,-0.0117034912109375
1772643967324199200,8.61719921875,-0.990203857421875,-0.029541015625,-0.0137786865234375
1772643967334240300,8.627240234375,-0.98980712890625,-0.030609130859375,-0.0142974853515625
1772643967344280300,8.6372802734375,-0.989471435546875,-0.0312042236328125,-0.0135345458984375
1772643967354321200,8.647321044921876,-0.9891357421875,-0.0312957763671875,-0.0133056640625
1772643967364362200,8.6573623046875,-0.988983154296875,-0.031951904296875,-0.0126190185546875
1772643967374403300,8.6674033203125,-0.9905548095703125,-0.0308074951171875,-0.012603759765625
1772643967384444200,8.677444091796875,-0.989471435546875,-0.0295562744140625,-0.013031005859375
1772643967394484200,8.687484130859374,-0.9905853271484375,-0.03094482421875,-0.0128021240234375
1772643967404525300,8.697525390625,-0.9893646240234375,-0.03070068359375,-0.0133209228515625
1772643967414566400,8.70756640625,-0.9896240234375,-0.0302734375,-0.0126953125
1772643967424607200,8.717607177734376,-0.9902191162109375,-0.03076171875,-0.0135498046875
1772643967434648300,8.7276484375,-0.990447998046875,-0.0310516357421875,-0.0133209228515625
1772643967444689200,8.737689208984374,-0.9908294677734375,-0.03057861328125,-0.0134124755859375
1772643967454729200,8.747729248046875,-0.9904327392578125,-0.03082275390625,-0.012908935546875
1772643967464770300,8.757770263671874,-0.9907073974609375,-0.031005859375,-0.0130462646484375
1772643967474811400,8.767811279296875,-0.9896392822265625,-0.029632568359375,-0.0121917724609375
1772643967484852200,8.777852294921875,-0.9911651611328125,-0.0303802490234375,-0.0131378173828125
1772643967494893300,8.787893310546876,-0.9897918701171875,-0.0301055908203125,-0.01214599609375
1772643967504933400,8.797933349609375,-0.989776611328125,-0.030303955078125,-0.012786865234375
1772643967514974500,8.807974365234376,-0.98895263671875,-0.0313873291015625,-0.013824462890625
1772643967525015300,8.818015380859375,-0.9920501708984375,-0.031097412109375,-0.0135345458984375
1772643967535056400,8.828056396484374,-0.9899139404296875,-0.0315704345703125,-0.0131378173828125
1772643967545097500,8.838097412109375,-0.9898529052734375,-0.030303955078125,-0.0121307373046875
1772643967555138300,8.84813818359375,-0.98883056640625,-0.0302734375,-0.0142974853515625
1772643967565178400,8.858178466796875,-0.988800048828125,-0.030303955078125,-0.0128326416015625
1772643967575219500,8.868219482421875,-0.9905548095703125,-0.030120849609375,-0.013641357421875
1772643967585260300,8.87826025390625,-0.990997314453125,-0.0301055908203125,-0.012908935546875
1772643967595301400,8.88830126953125,-0.990631103515625,-0.029754638671875,-0.0135040283203125
1772643967605342500,8.898342529296874,-0.9907379150390625,-0.0306243896484375,-0.0136260986328125
1772643967615382300,8.90838232421875,-0.9892120361328125,-0.0306243896484375,-0.01318359375
1772643967625423000,8.918423095703124,-0.9893798828125,-0.031158447265625,-0.0136260986328125
1772643967635464200,8.928464111328125,-0.9900970458984375,-0.0304412841796875,-0.0136566162109375
1772643967645505300,8.93850537109375,-0.9911956787109375,-0.0308380126953125,-0.013153076171875
1772643967655546000,8.948546142578126,-0.99066162109375,-0.0297393798828125,-0.0130462646484375
