time,seconds_elapsed,z,y,x
1772643958759373300,0.052373291015625,0.11921850009858607,-0.09038465633485465,0.011175300478981806
1772643958769413000,0.0624130859375,0.12056757661998271,-0.0818434580859728,0.01263432191456668
1772643958779454200,0.0724541015625,0.10425649328827857,-0.08507694184817373,0.013808918651891872
1772643958789495300,0.082495361328125,0.138223060297966,-0.06306185645489022,0.009858290463127195
1772643958799536000,0.0925361328125,0.11113690045177936,-0.0708073742814362,0.0003360909534152597
1772643958809577200,0.1025771484375,0.06924070948660373,-0.054519160368666046,-0.023966721784556284
1772643958819618300,0.112618408203125,0.07402268306612968,-0.011904829463083296,-0.03181815680414438
1772643958829658400,0.122658447265625,0.08868483014702797,0.031174561670981347,-0.0414863954547327
1772643958839699200,0.13269921875,0.0785100576132536,0.07504550504153594,-0.03903493804885074
1772643958849740300,0.142740234375,0.08644143513441085,0.0742536788104102,-0.028474216671101747
1772643958859781400,0.152781494140625,0.07731354130506515,0.059586070103105154,-0.03253026886256411
1772643958869822200,0.162822265625,0.041997897773981094,0.05860871297093108,-0.02884365277169272
1772643958879863300,0.17286328125,0.05696516528129577,0.06316935368366539,-0.030287220909819005
1772643958889903400,0.1829033203125,0.09511983163058757,0.047066853335034096,-0.030664657653775063
1772643958899944200,0.192944091796875,0.1022989294797182,0.026690018401760607,-0.013901583637716248
1772643958909985300,0.2029853515625,0.07237257777154445,-0.017821944552380592,-0.013391579155810176
1772643958920026400,0.2130263671875,0.05696282719373703,-0.04400507287792861,-0.009892704189382493
1772643958930067200,0.223067138671875,0.08000643365085125,-0.03896938026566058,-0.01111604457241483
1772643958940108300,0.2331083984375,0.08135609469413757,-0.020051548501662908,0.0004989898975472897
1772643958950149400,0.2431494140625,0.09527472993135452,0.029723193818889555,-0.00813721142471768
1772643958960189400,0.253189453125,0.0722311234742403,0.053086661613825706,0.005364230446889997
1772643958970230300,0.263230224609375,0.055769233494997024,0.08898339296849445,0.015019874477386473
1772643958980271400,0.273271240234375,0.06579378390312195,0.12246246872218325,-0.0002980148321948945
1772643958990312400,0.2833125,0.12864040843844413,0.09093392424806952,0.00024882366191595793
1772643959000353300,0.293353271484375,0.12744213856458664,0.02840140716321766,0.02239568220870569
1772643959010394400,0.303394287109375,0.043045945522189134,-0.0395436547559686,-0.0020260076685808598
1772643959020434400,0.313434326171875,0.09302432065606117,-0.08411494668191298,0.018716765367100013
1772643959030475300,0.323475341796875,0.1443523568332195,-0.10067001310363412,0.018272309535229576
1772643959040516400,0.333516357421875,0.10290274059176445,-0.08121765433782711,0.029757214819500222
1772643959050557400,0.343557373046875,0.04589315164685249,-0.04627084411913529,0.022472829964989796
1772643959060598300,0.353598388671875,0.0955716670513153,-0.01827514994628727,0.02262068660361692
1772643959070639400,0.363639404296875,0.14898995350599287,-0.002630366769898683,0.024444495364138855
1772643959080679200,0.37367919921875,0.09481938737928866,0.0019671718871220947,-0.007983016376849263
1772643959090720300,0.38372021484375,0.07686170588433743,0.017204488507471978,-0.030361245127255094
1772643959100761000,0.393760986328125,0.12459785504937171,0.037721334699634464,-0.06614509982513263
1772643959110802200,0.40380224609375,0.11277414626479149,0.04067393742753193,-0.08358142432710156
1772643959120843300,0.41384326171875,0.09391922366917133,-0.016092472144961355,-0.07864603201784193
1772643959130884000,0.423884033203125,0.0870364784181118,-0.0551125414182432,-0.06949692187053151
1772643959140924200,0.433924072265625,0.09975742830336093,-0.06634884223630652,-0.07217084465436636
1772643959150965200,0.44396533203125,0.10843757836520672,-0.0842554876637645,-0.07012370286621153
1772643959161006300,0.45400634765625,0.0797077429652214,-0.07867898443937302,-0.04976038500163704
1772643959171047200,0.464047119140625,0.07881225543022155,-0.07616046227980405,-0.03284490603599697
1772643959181088300,0.474088134765625,0.1223591362118721,-0.07364172092452645,-0.018788414964359252
1772643959191129000,0.484129150390625,0.11996668811738491,-0.07275131142344325,-0.020677333983499555
1772643959201170200,0.494170166015625,0.09452771095633507,-0.05327051201444119,-0.007846841042861341
1772643959211210200,0.504210205078125,0.10051438415050507,-0.031277693251892925,0.019440421732841058
1772643959221251300,0.514251220703125,0.09946633640229702,-0.00009365136651322246,0.05005129423961043
1772643959231292200,0.524292236328125,0.0954237830132246,0.011191274366248399,0.06339436721173115
1772643959241333200,0.534333251953125,0.10829261693656445,0.019593739997874945,0.077120795211941
1772643959251374300,0.544374267578125,0.10305296271741389,0.04943529949942604,0.08211031972807832
1772643959261415200,0.554415283203125,0.06968143899142741,0.036939189612306654,0.04366972171002999
1772643959271455200,0.564455322265625,0.08524374978244305,0.014938077945448457,0.04096477360026911
1772643959281496300,0.574496337890625,0.08598959971368313,-0.00924742855578661,0.017678124768054113
1772643959291537400,0.584537353515625,0.0800040955632925,-0.03781246531549841,-0.0347250298273284
1772643959301578200,0.594578125,0.10005787255465984,-0.05312940477700904,-0.0596306216308847
1772643959311619300,0.604619384765625,0.1136754790186882,-0.04764224207019433,-0.05477714458457194
1772643959321660200,0.61466015625,0.0809060128390789,-0.03393686599116772,-0.058620540406042705
1772643959331700200,0.6247001953125,0.09063479517102241,-0.019640392151195556,-0.0649396421586629
1772643959341741300,0.6347412109375,0.11278116052746773,-0.017097594066895542,-0.06850875108339824
1772643959351782400,0.644782470703125,0.09452712643444537,-0.01637380983699113,-0.057069155378732826
1772643959361823200,0.6548232421875,0.08869418249726295,-0.007900580524094402,-0.03982800638899207
1772643959371864300,0.6648642578125,0.09512450780570507,0.013316851685475558,-0.018697412212658672
1772643959381905400,0.674905517578125,0.0958680196493864,0.016288104314915834,0.006667915190290659
1772643959391945500,0.684945556640625,0.10394318955540656,0.02945931871831417,0.022908472302742303
1772643959401986300,0.694986328125,0.08583002523779869,0.015260861892718821,0.035183103192597626
1772643959412027400,0.70502734375,0.09330547568500042,0.0007118928627111018,0.06074595332848839
1772643959422068500,0.715068359375,0.09853519303202629,-0.013815120063815266,0.05277784225982614
1772643959432109300,0.725109375,0.09419277991354465,-0.040709392333403226,0.05052493963334709
1772643959442150400,0.735150390625,0.10152034632265568,-0.05230917443530634,0.022915870157908646
1772643959452190500,0.7451904296875,0.10630699607729911,-0.062041628295369446,0.013183388898381963
1772643959462231300,0.755231201171875,0.07952361856997013,-0.04187319368207827,-0.023220561326062306
1772643959472272400,0.7652724609375,0.07952771022319793,-0.00488318719798699,-0.025528838268434627
1772643959482313500,0.7753134765625,0.098233579736948,0.018411106084566562,-0.04243019737717695
1772643959492354300,0.785354248046875,0.10496785642802715,0.01573748469483107,-0.0462616652988363
1772643959502395400,0.7953955078125,0.08686053732931613,0.025106457271054386,-0.05147131710536778
1772643959512435200,0.805435302734375,0.08940496111512183,0.010789452099706977,-0.054589156864956016
1772643959522476300,0.815476318359375,0.10555939258038997,-0.011146156582888216,-0.058183217567857354
1772643959532517000,0.82551708984375,0.10435644653141497,-0.04206535525331274,-0.05326254790369421
1772643959542558200,0.83555810546875,0.09911386970281601,-0.0419135804913938,-0.04422041439535096
1772643959552599300,0.845599365234375,0.09941197586655616,-0.05209496542904526,-0.030354924984322858
1772643959562640100,0.85564013671875,0.09596972645819186,-0.03189525889465585,0.008173990637995301
1772643959572680200,0.86568017578125,0.0950707317918539,-0.005272296113427728,0.01277383084995672
1772643959582721300,0.87572119140625,0.09672025256454944,0.002364774636272341,0.027346847475832325
1772643959592762000,0.88576220703125,0.09761690914332866,0.009841412393562496,0.0416826943449676
1772643959602803200,0.89580322265625,0.09611468788683414,0.011628314076643437,0.04750661472547799
1772643959612844300,0.90584423828125,0.0968570306867361,0.005008585409633815,0.03155473836129531
1772643959622885000,0.915885009765625,0.10029168131053447,-0.004836114919558167,0.017456453974545
1772643959632926200,0.92592626953125,0.10282499918043612,-0.014423077628016472,0.008650741304270923
1772643959642966300,0.93596630859375,0.09129998108148574,-0.021323705595638603,-0.014173020990239456
1772643959653007400,0.94600732421875,0.0896504603087902,-0.016423987387958913,-0.018976658412301912
1772643959663048200,0.956048095703125,0.08231646415889263,-0.013800561815500259,-0.03233184194732457
1772643959673089300,0.96608935546875,0.08426292205154895,-0.019317772600706665,-0.03440441043768078
1772643959683130400,0.97613037109375,0.09817921920120716,-0.020612652983143926,-0.05040226310174912
1772643959693171200,0.986171142578125,0.09653262103796005,-0.021570483430940656,-0.052081548825046044
1772643959703211300,0.996211181640625,0.09727905549108981,-0.024645306032709775,-0.04477139020846225
1772643959713252400,1.00625244140625,0.09682838911414146,-0.025928769971989094,-0.03831540986895561
1772643959723293200,1.016293212890625,0.08859364473223685,-0.003824946849327534,-0.023434249742515383
1772643959733334300,1.026334228515625,0.09951777432858944,-0.011165920729283242,-0.008311892138188705
1772643959743375400,1.036375244140625,0.09846914205849171,-0.012958448435552418,0.011669121011067181
1772643959753416200,1.046416259765625,0.08365326572060584,0.002197710973676294,0.025005079255811868
1772643959763456300,1.056456298828125,0.10205459932982922,0.0045149932064116,0.03070181132638827
1772643959773497300,1.066497314453125,0.09741174196004868,0.0033480865851975975,0.04246775290858932
1772643959783538400,1.076538330078125,0.0933674350053072,-0.006422872654348611,0.02925269023030996
1772643959793579300,1.086579345703125,0.09126900142133236,-0.020405933163594455,0.02618542988048866
1772643959803620400,1.096620361328125,0.09740531221926212,-0.04085831755110994,0.015559936170838772
1772643959813661400,1.106661376953125,0.09545943884849548,-0.028287334063183515,-0.001300679935561493
1772643959823701500,1.116701416015625,0.10129647443890571,-0.0184316008833237,-0.01738501443983987
1772643959833742300,1.126742431640625,0.09651099372804164,-0.0017132519249804317,-0.017035461216652763
1772643959843783400,1.136783447265625,0.10040390951335429,0.0033196459420025345,-0.028952501707337795
1772643959853824300,1.14682421875,0.08693710969686508,0.00847392343264073,-0.03631873789271339
1772643959863865300,1.156865234375,0.1044429557710886,0.007509115254785865,-0.04340801116707735
1772643959873906400,1.166906494140625,0.09381751686036587,-0.009317826910875737,-0.050971605688612906
1772643959883946200,1.1769462890625,0.09186930540204048,-0.018044574327114968,-0.0411343488803599
1772643959893987000,1.186987060546875,0.10353753136396407,-0.02401115458132699,-0.02837286605532281
1772643959904028200,1.197028076171875,0.09156418497562407,-0.024228998583089557,-0.019989680512901394
1772643959914069200,1.2070693359375,0.09799684837162494,-0.011940814091917126,0.006129862790834158
1772643959924110000,1.217110107421875,0.09440729944705963,-0.005453004708886146,0.015214328470407053
1772643959934151200,1.227151123046875,0.09709726918339728,-0.008855853688623756,0.01298540950771421
1772643959944191200,1.237191162109375,0.1083165823340416,-0.01240300650987774,0.03847379703475162
1772643959954232300,1.247232421875,0.08616437175869941,-0.00732694535460323,0.027657128134556112
1772643959964273700,1.257273681640625,0.09738193134367465,-0.019762612025067208,0.028970877614244817
1772643959974314800,1.267314697265625,0.10336275931894778,-0.016645356787368653,0.023052054625051093
1772643959984355600,1.27735546875,0.08315934472382068,-0.000611245499830693,0.022897421185765415
1772643959994396700,1.287396728515625,0.09048749565482139,0.0029403825671412047,-0.0005221698437351733
1772643960004436500,1.2974365234375,0.09961246687471866,0.005436035307776183,-0.016685095142712814
1772643960014477600,1.3074775390625,0.08644318870007991,0.0147645297431387,-0.020900667011132464
1772643960024518400,1.317518310546875,0.08838789302706718,0.01588997184280306,-0.03241435086531565
1772643960034559500,1.3275595703125,0.08898352083265781,-0.007645820311736315,-0.039632986140390854
1772643960044600600,1.3376005859375,0.08853343897759913,-0.020436328301858157,-0.05393180720107629
1772643960054641400,1.347641357421875,0.0880821880787611,-0.043541565285716205,-0.05518583498331718
1772643960064681500,1.357681396484375,0.0879337195187807,-0.05103356500891968,-0.046860535374283786
1772643960074722600,1.36772265625,0.0880816035568714,-0.03557665082113817,-0.030038954370329156
1772643960084763600,1.377763671875,0.09361761037409305,-0.03064701239923015,-0.029534174052812157
1772643960094804500,1.387804443359375,0.09601298107802868,-0.002274009346589446,0.005949756983574479
1772643960104845600,1.397845458984375,0.09346914181411266,0.01833683527195826,0.027158485296880825
1772643960114886400,1.407886474609375,0.09421616078913211,0.022832082598283884,0.03578851260668598
1772643960124926500,1.417926513671875,0.08942600390315056,0.01954131569089368,0.024992712964583188
1772643960134967600,1.427967529296875,0.10079320109188557,0.019549407665804028,0.037764141794899474
1772643960145008600,1.438008544921875,0.08971300415098667,-0.003789327546674758,0.027295921006193383
1772643960155049500,1.448049560546875,0.10227905573546886,-0.027804098857194183,0.029182392339920624
1772643960165090600,1.458090576171875,0.10556640684306622,-0.03890928410887718,0.000407092096703127
1772643960175131600,1.468131591796875,0.09658756609559059,-0.03317103271782398,-0.016707087778812274
1772643960185171700,1.478171630859375,0.09224807558655738,-0.02163037865832448,-0.02379934759470634
1772643960195212500,1.488212646484375,0.09688976391255855,0.008387669921293854,-0.04081021322621964
1772643960205253600,1.498253662109375,0.09404781848490237,0.016002601904422042,-0.06434819733784533
1772643960215294700,1.508294677734375,0.10063245757222175,0.008514474638737737,-0.06692945513585583
1772643960225335600,1.51833544921875,0.08925999968647956,0.005403484745044261,-0.05848768040714785
1772643960235376600,1.528376708984375,0.07983049256205559,-0.008263239824026823,-0.06763896424523555
1772643960245416700,1.538416748046875,0.09045067077577114,-0.01458630536571145,-0.038424962057499214
1772643960255457500,1.54845751953125,0.09508592936098575,-0.02780360566684976,-0.0066277019109111275
1772643960265498600,1.55849853515625,0.0962818611472845,-0.027520276947133243,0.009491393379494548
1772643960275539700,1.568539794921875,0.0928396117389202,-0.02006471851048991,0.032359579337621104
1772643960285580500,1.57858056640625,0.09224164584577083,-0.018668405313882974,0.041833336595725266
1772643960295621600,1.58862158203125,0.0850584563434124,-0.015122494601644575,0.05590774691654369
1772643960305661700,1.59866162109375,0.0923912834495306,-0.012672069242224096,0.049317518338654186
1772643960315702800,1.608702880859375,0.1003209074050188,-0.0001293437344022095,0.04693089719675481
1772643960325743600,1.61874365234375,0.08999415917992591,0.004853924570884556,0.03516819788441062
1772643960335784700,1.62878466796875,0.07831891895532607,-0.0031296763278543947,0.023512721806205807
1772643960345825800,1.63882568359375,0.09702011229395865,0.012560717822238802,0.007347047427715733
1772643960355866600,1.64886669921875,0.09297814342677593,0.020299495380744336,-0.01701266486295499
1772643960365906400,1.658906494140625,0.09686755208075046,0.014106285030115394,-0.03417725061830133
1772643960375947500,1.668947509765625,0.10404898801743984,0.0011490787035785615,-0.054471357437875116
1772643960385988400,1.67898828125,0.10015490318834781,-0.02370495644267648,-0.06510980196064338
1772643960396029400,1.689029541015625,0.07755845597684383,-0.03916906755622476,-0.07198690292220562
1772643960406070500,1.699070556640625,0.08100012086331844,-0.03720896473070606,-0.07007326045376248
1772643960416111400,1.709111328125,0.10733633912503719,-0.03332110871300101,-0.05124277817965485
1772643960426151400,1.7191513671875,0.10030512531399727,-0.021849099442921578,-0.03507613568678498
1772643960436192500,1.729192626953125,0.10060264695584774,-0.0013059314994141459,-0.01183893375317566
1772643960446233600,1.739233642578125,0.10030395627021789,0.020049082549940794,0.004347947810124606
1772643960456274400,1.7492744140625,0.0815986712783575,0.02553787095826119,0.020231782173085956
1772643960466315500,1.7593154296875,0.0922211875796318,0.022697825226746498,0.03936316535621881
1772643960476356600,1.769356689453125,0.09535656299591064,-0.005445460723247379,0.03823667294378392
1772643960486396700,1.779396728515625,0.09580021511018276,0.0075024480519816274,0.041630973290884866
1772643960496437500,1.7894375,0.08846388087272644,-0.029082174235302953,0.02905531362784095
1772643960506478600,1.799478515625,0.08831073613762855,-0.02316547927111387,0.024212622837023808
1772643960516519400,1.80951953125,0.09414543364048003,-0.023898652383871375,0.013183617227245122
1772643960526560500,1.819560546875,0.0917547391116619,-0.019229454996436832,0.0022797997665591537
1772643960536601600,1.8296015625,0.08368015372753143,-0.004893324999511241,-0.023668286827253176
1772643960546641700,1.8396416015625,0.0899684402167797,-0.004499083251226693,-0.027240336627745998
1772643960556682500,1.8496826171875,0.0940080709964037,0.003002086159121245,-0.03534956406699493
1772643960566723600,1.8597236328125,0.0984995371967554,-0.0004777918458916247,-0.04037034223792143
1772643960576764700,1.8697646484375,0.09460603688955306,-0.006472904074843973,-0.04300743100955151
1772643960586805500,1.879805419921875,0.09041326137483119,-0.0012350582202896475,-0.043414340443164105
1772643960596846600,1.8898466796875,0.09535071777701377,-0.011850395862106233,-0.02442286805422045
1772643960606886700,1.89988671875,0.09071136753857136,-0.013607925320230424,-0.01725514098247513
1772643960616927700,1.909927734375,0.10776888532340526,-0.005970288314949721,0.0003010470394976437
1772643960626968600,1.919968505859375,0.09250526521801948,-0.006832659031637013,0.009565326265385374
1772643960637009700,1.930009765625,0.09400047221183776,-0.014743413889873772,0.029053386532235888
1772643960647050500,1.940050537109375,0.09474515309929847,-0.017401618514768777,0.03296625826018862
1772643960657091600,1.950091552734375,0.09309621684849262,-0.013763061083015053,0.031589517413731664
1772643960667131600,1.960131591796875,0.09009878859817981,-0.013686159921903163,0.030729165124194695
1772643960677172700,1.9701728515625,0.08710311391353606,-0.026792729857563972,0.021701891258265823
1772643960687213600,1.980213623046875,0.09218553174436092,-0.01830698812296614,0.004508910525497049
1772643960697254700,1.990254638671875,0.09727204122841357,0.017349084609933195,-0.0016258019703906028
1772643960707295700,2.000295654296875,0.09861644157469272,0.02145447410214692,-0.003103847766853869
1772643960717335600,2.01033544921875,0.09053425740599631,0.010774638123065233,-0.025472121378825974
1772643960727376400,2.02037646484375,0.10355039084553717,0.010125946689676493,-0.03479897184637375
1772643960737417500,2.03041748046875,0.0939724151611328,-0.010431779502145945,-0.03463674875567667
1772643960747458600,2.04045849609375,0.10115385109782218,-0.025775606970582156,-0.03784870567265898
1772643960757499400,2.05049951171875,0.09651216277182102,-0.02745309346243739,-0.041959940383769566
1772643960767540700,2.060540771484375,0.09082593382894992,-0.023565200912114233,-0.029510656179906797
1772643960777580500,2.07058056640625,0.0894809489607811,-0.028588965624570844,-0.018207856863737104
1772643960787621400,2.080621337890625,0.08873626807332038,-0.013130626664683223,-0.008210724185500293
1772643960797662500,2.090662353515625,0.09637129299640655,-0.00714048287179321,0.005011581084318459
1772643960807703600,2.10070361328125,0.09517477668821811,0.0008943732901476323,0.013893473396496846
1772643960817744400,2.110744384765625,0.09651917703449725,0.00464420907665044,0.02332850607940927
1772643960827785500,2.120785400390625,0.09621464112997055,0.008339812191575766,0.02708192206248641
1772643960837825500,2.130825439453125,0.08453998542726039,-0.0031106428338214752,0.0286649534702301
1772643960847866600,2.14086669921875,0.09830313784182071,-0.011446180709078907,0.02852414762689732
1772643960857907500,2.150907470703125,0.09500701890587807,-0.006096910369303077,0.01376161804459989
1772643960867948500,2.160948486328125,0.10443184985518456,-0.00004122705953195691,0.012873729294165968
1772643960877989600,2.17098974609375,0.09665010993778705,-0.014827128384262322,0.0006031626580748707
1772643960888030500,2.181030517578125,0.09186170661747455,-0.012573522504884749,-0.013333802820276469
1772643960898070500,2.191070556640625,0.09545300910770893,-0.017643281783536077,-0.03671650503864512
1772643960908111600,2.201111572265625,0.09111293407678604,-0.014324183830805122,-0.033025605498300865
1772643960918152400,2.21115234375,0.09231003490686417,-0.011122921837773173,-0.03360468402788974
1772643960928193500,2.221193603515625,0.08857084837853908,-0.008286876427941023,-0.036843830345897
1772643960938234600,2.231234619140625,0.09051555270552634,-0.004389101804420352,-0.03623722448856569
1772643960948275500,2.241275390625,0.08617664671838283,-0.006198982504289597,-0.03670802033809013
1772643960958315500,2.2513154296875,0.09545476267337799,0.008014233499020338,-0.01848754145479761
1772643960968355800,2.26135595703125,0.09590133739709854,0.004643040032871067,-0.005441542599955574
1772643960978397000,2.27139697265625,0.10053542693853378,0.008182393140159547,0.0006582812456414104
1772643960988438000,2.28143798828125,0.09723755443692207,-0.00019815292060375213,0.0171109558719676
1772643960998478800,2.291478759765625,0.08661211552619934,-0.006375599446520209,0.012933030866505577
1772643961008520000,2.30152001953125,0.09154957192838191,-0.019244250706769526,0.031394159238412975
1772643961018559700,2.311559814453125,0.09962707992196082,-0.03131614383244887,0.019826653704605995
1772643961028600600,2.3216005859375,0.0916939488351345,-0.020359207945037632,0.02338828257578425
1772643961038641700,2.3316416015625,0.09618366146981716,-0.012003723260294646,0.012172933214204385
1772643961048682800,2.341682861328125,0.08915303218066692,-0.0038686215942725535,0.0015960187534801661
1772643961058723600,2.3517236328125,0.1066606318205595,0.016485508316848425,-0.00108935700613074
1772643961068764700,2.3617646484375,0.09214578425586223,0.007649473573546856,-0.0230701474041678
1772643961078804700,2.3718046875,0.08032090642750263,0.003708754857443273,-0.02707099880967289
1772643961088845800,2.381845703125,0.09199088595509529,0.010962306182272731,-0.03716730841291137
1772643961098886700,2.39188671875,0.0900426744967699,-0.013196294045727698,-0.03784349064142443
1772643961108927700,2.401927734375,0.09093933107554912,-0.01047623969838023,-0.02437927550766617
1772643961118968800,2.41196875,0.09362930081188678,-0.015166717335861175,-0.021349588955566285
1772643961129009700,2.422009765625,0.10006254872977734,-0.010215835196524858,-0.014254534394387154
1772643961139049700,2.4320498046875,0.09482815520763396,-0.011329239798523485,-0.01624574474422261
1772643961149090800,2.4420908203125,0.08913958817720413,-0.00037252310682088133,-0.0011769804906565696
1772643961159131600,2.452131591796875,0.0963210241138935,-0.0002212415352463722,0.015084107953170313
1772643961169172700,2.4621728515625,0.09152794461846352,0.004925747698079795,0.015005179231753572
1772643961179213800,2.4722138671875,0.084792498883605,0.0013483641353435813,0.023462087597511706
1772643961189254700,2.482254638671875,0.0847919143617153,0.012430661701783537,0.006755182481789961
1772643961199294700,2.492294677734375,0.08808043451309204,0.006363087024819106,0.014160070177121087
1772643961209335800,2.502335693359375,0.08718143984675407,-0.0001749364417977631,0.0068289144382812075
1772643961219377000,2.512376953125,0.0973538742929697,0.009739194128103553,0.01053827208392322
1772643961229417700,2.522417724609375,0.09436112221777439,0.004510353563912213,-0.006661247987486422
1772643961239458800,2.532458740234375,0.09316519043147563,0.0010408142898231745,-0.001907605453301221
1772643961249500000,2.5425,0.08358896831274032,-0.00883333132956177,-0.01510315058035776
1772643961259540000,2.5525400390625,0.08733341553807258,-0.015642846947629005,-0.014027310642926021
1772643961269580800,2.562580810546875,0.09047697426080703,-0.021941618298273534,-0.025021939059067515
1772643961279622000,2.572621826171875,0.09242577024102211,-0.016798866848647592,-0.03700118546523153
1772643961289662700,2.582662841796875,0.08988193097710609,-0.002900141888298094,-0.023814024574030188
1772643961299703800,2.592703857421875,0.09317629634737967,0.007225823067687451,-0.01817741605970077
1772643961309745000,2.602744873046875,0.0981166753590107,0.008952299800422042,-0.009097334294300525
1772643961319785000,2.612784912109375,0.0972188497364521,0.008353712852764874,-0.010281402112869546
1772643961329825800,2.62282568359375,0.08554419403374194,0.011722221171483397,0.006532616639137268
1772643961339867000,2.632866943359375,0.09137713797092437,-0.0025784721858799456,0.017960795900644734
1772643961349908000,2.642907958984375,0.09511573997735977,-0.010017737074848264,0.013430970451282337
1772643961359948800,2.65294873046875,0.09660743983983992,-0.007661182277649641,0.026849848605971782
1772643961369988600,2.662988525390625,0.10378536864519118,-0.019359912975691257,0.01942151610297151
1772643961380029700,2.67302978515625,0.09689911626279353,-0.0028401370630599557,0.012929651599330827
1772643961390070800,2.68307080078125,0.10408230576515197,-0.004821209611371159,-0.0007888305564410984
1772643961400111600,2.693111572265625,0.10094283869564533,-0.012404157287348061,-0.009313251200458034
1772643961410152700,2.703152587890625,0.08223813822567462,-0.004785809504427015,-0.013323199227871372
1772643961420193800,2.71319384765625,0.09824760826230049,-0.0053559740751981735,-0.013408365893829613
1772643961430233600,2.723233642578125,0.10288520493507385,-0.0048562078595161436,-0.020161685212096197
1772643961440274700,2.733274658203125,0.11246142705380915,0.004308236854244024,-0.01947752973968163
1772643961450315800,2.743315673828125,0.08702361893653869,0.0013210194706916808,-0.026110474081290885
1772643961460356600,2.753356689453125,0.09854688346982002,0.004011683326773346,-0.021111597214918582
1772643961470397700,2.763397705078125,0.10423428145647048,-0.0002215155298821628,-0.012124025171715765
1772643961480438800,2.773438720703125,0.09196049081683158,-0.00533549754275009,-0.015868253201339392
1772643961490478800,2.783478759765625,0.10587561892271041,-0.006655621964298189,-0.014348121828818693
1772643961500519700,2.793519775390625,0.09525076453387736,-0.007853161185793578,-0.005616351177589967
1772643961510560800,2.803560791015625,0.09464987603127956,-0.017556334152445195,0.0015422153401654212
1772643961520601900,2.813601806640625,0.09629530515074729,-0.005289064585138112,0.02046721663046628
1772643961530642700,2.823642578125,0.09015957887470721,-0.003982639895379543,0.01491069674817845
1772643961540683800,2.833683837890625,0.08761281700134277,-0.011249964017234743,0.013168072598241268
1772643961550723800,2.843723876953125,0.09269815744161605,0.0022654059150256215,0.013688077884353696
1772643961560764700,2.8537646484375,0.10212123482525348,-0.0045278526879847045,0.017975975203467533
1772643961570805800,2.8638056640625,0.0862561416953802,0.006341551046445965,0.0036756471722852436
1772643961580846800,2.873846923828125,0.08805003937482833,-0.0022782653965987263,0.0030652236563619224
1772643961590887700,2.8838876953125,0.08430734571516513,0.007257496847584843,-0.009167559119453652
1772643961600928800,2.8939287109375,0.09253624487817287,-0.0025586715068668126,-0.023603523628506807
1772643961610968800,2.90396875,0.0998632267653942,-0.007924929514061659,-0.019998037349293007
1772643961621010000,2.914010009765625,0.10285364075303077,-0.01743053408199921,-0.030280380177078767
1772643961631050800,2.92405078125,0.09507306987941265,-0.014738226258102803,-0.021953180871903896
1772643961641091800,2.934091796875,0.0901344444334507,-0.007066011129785329,-0.01226717823576182
1772643961651133000,2.9441328125,0.09731704941391944,0.0011390687662176787,-0.006097120431857183
1772643961661173800,2.954173828125,0.08893734360337256,0.006979501890111714,-0.00682673161434941
1772643961671213800,2.9642138671875,0.09627133975327014,-0.004641085537802428,-0.01751913481405936
1772643961681255000,2.9742548828125,0.09417524425685406,-0.002004142896644771,0.0007821724867913872
1772643961691295700,2.984295654296875,0.09507131631374359,-0.002714410057850182,0.004592442356795072
1772643961701336800,2.9943369140625,0.0895288797557354,0.00014877908723428846,0.02815682128500193
1772643961711378000,3.0043779296875,0.09176935215890407,0.004296710813231766,0.0088759009628091
1772643961721418800,3.014418701171875,0.09909984117746352,-0.011942585923895238,0.015157027058908715
1772643961731458800,3.024458740234375,0.08922375932931899,-0.002539966806396842,0.017145625326549632
1772643961741500000,3.0345,0.0926660087376833,0.0008611286076717078,0.010308892907993868
1772643961751541000,3.044541015625,0.09655775547921656,-0.002655921336263418,0.003218943780194968
1772643961761581800,3.054581787109375,0.10957388891875743,-0.006524670794699341,0.00348558622659184
1772643961771623000,3.064622802734375,0.10837620356678962,-0.012922244611009954,-0.005963776375772431
1772643961781664000,3.0746640625,0.10029635748565197,-0.009338559171650558,-0.006600594708276912
1772643961791703800,3.084703857421875,0.09984919824004172,0.0034913675134070218,-0.01292102990145795
1772643961801744600,3.09474462890625,0.09610708910226821,0.0011447495883330702,-0.021787067057378588
1772643961811785700,3.10478564453125,0.08278934236764908,0.00442749758604914,-0.02191247440217994
1772643961821826800,3.114826904296875,0.08383855915963649,-0.0009973404742777347,-0.012947762644756585
1772643961831867600,3.12486767578125,0.09042378276884555,-0.0037112208091653882,-0.009255045606661587
1772643961841908700,3.13490869140625,0.09117138626575469,0.002299947505444288,-0.01061590389739722
1772643961851948800,3.14494873046875,0.08548398827910422,-0.008137293623108416,0.006592621464375406
1772643961861989600,3.15498974609375,0.09251344852447509,-0.013123594135697931,0.007650176826445385
1772643961872030700,3.16503076171875,0.09131576317250728,-0.005610350695066154,0.011230391667084767
1772643961882071800,3.17507177734375,0.09236088831126689,-0.025621548920031635,0.008455346596334129
1772643961892112600,3.185112548828125,0.09864508314728736,-0.0027648616034537552,0.01831384712201543
1772643961902153700,3.19515380859375,0.0996937154173851,0.0064488108132034535,0.0013238324822857975
1772643961912193800,3.20519384765625,0.09355623557567595,0.0016919351423159241,0.006210892137791961
1772643961922235000,3.21523486328125,0.08831599683463573,-0.0013918562171980739,-0.006262649724492803
1772643961932275700,3.225275634765625,0.09026011663973331,0.0121222350734286,-0.010001836252817883
1772643961942316800,3.23531689453125,0.1011795700609684,0.005630388836096972,-0.013823422101279719
1772643961952358000,3.24535791015625,0.10462006590366363,-0.00046953547419980164,-0.01320265072127804
1772643961962397700,3.255397705078125,0.10341711985468864,-0.0026980434449389574,-0.02540744951162487
1772643961972440000,3.265440185546875,0.08800327762365341,-0.016440134805161506,-0.023000890693394466
1772643961982481000,3.27548095703125,0.09279226546585559,-0.013757380260899663,-0.017184185504959894
1772643961992522000,3.28552197265625,0.1013227779239416,-0.0098816165397875,-0.007964403007924557
1772643962002563000,3.29556298828125,0.09294365663528442,-0.005369582475442439,-0.002641664482047781
1772643962012604000,3.30560400390625,0.0935457141816616,-0.007422496417257935,-0.005377272591553628
1772643962022643700,3.315643798828125,0.10133037670850753,-0.005175776936393231,0.004419871402019634
1772643962032684800,3.325684814453125,0.09294950185418129,0.010677589223068207,0.004064262897381559
1772643962042726000,3.335725830078125,0.09309855493605136,0.002267561339493841,0.007027551416074857
1772643962052766700,3.3457666015625,0.10327215842604637,0.00021884864876046777,0.011422991629736498
1772643962062807800,3.355807861328125,0.08965104483067989,0.00720636944854632,0.014338879076438023
1772643962072849000,3.365848876953125,0.09398585916459559,-0.0007497406550683081,0.022921733643114565
1772643962082889000,3.375888916015625,0.08605565068721771,0.011068817030359059,0.00479674189039506
1772643962092929800,3.3859296875,0.09712707979977131,0.0019972199655137954,0.0002691814633551985
1772643962102971000,3.395970947265625,0.08844517617225646,-0.00942026437204331,0.009680358346644788
1772643962113011700,3.40601171875,0.104904728063941,0.009613284459803252,0.0014427735536824912
1772643962123052800,3.416052734375,0.09547638998329638,-0.02311890018302947,0.0011513985248282552
1772643962133094000,3.426093994140625,0.07991466371417046,-0.010251527564413845,-0.005333762243390083
1772643962143134000,3.436134033203125,0.08769698815345764,-0.0003841222130693495,-0.018120507373847065
1772643962153174800,3.4461748046875,0.09772270760536193,0.00921995602697134,-0.027024118327489122
1772643962163216000,3.4562158203125,0.10340659846067428,0.004205123539641499,-0.01818022907129489
1772643962173257000,3.466257080078125,0.09592062661945819,0.0035795937861315902,-0.008140060968929901
1772643962183297800,3.4762978515625,0.0968178677201271,0.0034670915886759754,-0.011318681871891022
1772643962193339000,3.4863388671875,0.1066957031339407,-0.003019950609374791,-0.010428244971344246
1772643962203379000,3.49637890625,0.09292553645670414,-0.007971946993563324,0.011840203261654823
1772643962213420000,3.506419921875,0.08768705128133296,-0.005066580940876156,0.019263576461747287
1772643962223460900,3.5164609375,0.09157529089152812,-0.014287048424500971,0.013928891769750044
1772643962233502000,3.526501953125,0.08379530453979969,0.0012257972015999256,0.0025791389061603693
1772643962243542800,3.536542724609375,0.08723580038249493,0.0009354724855162202,0.0075695584714412685
1772643962253584000,3.546583984375,0.09845978970825671,-0.00567769857654348,0.002896123300306499
1772643962263624000,3.5566240234375,0.09861001183390616,0.0023824381571263074,0.008171177626401186
1772643962273665000,3.5666650390625,0.09232815508544444,0.01950472827386111,0.009800240132957697
1772643962283705900,3.576705810546875,0.09382102399170399,-0.0047541905234567815,-0.0016121570375282317
1772643962293747000,3.586746826171875,0.10683832647502421,-0.00513951831292361,-0.008586516961641609
1772643962303788000,3.5967880859375,0.09097323334515094,-0.004090812977589666,-0.01163586719543673
1772643962313828900,3.606828857421875,0.08005144183635711,0.00033986294623464345,-0.012679311833763494
1772643962323869000,3.616868896484375,0.09950316128134727,-0.002170201912242919,-0.013148418049700558
1772643962333910000,3.626909912109375,0.0923170491695404,-0.00010685790795832872,-0.01433813929092139
1772643962343951000,3.636951171875,0.10922492935061454,-0.0058866651521064335,-0.013462224106071516
1772643962353992000,3.646991943359375,0.09381459425091743,-0.00820577401574701,-0.006289364201482385
1772643962364033000,3.657032958984375,0.08558511056602,0.008415946167707442,0.005732689299946651
1772643962374072800,3.66707275390625,0.09575812953412532,-0.01396015455769375,0.0033611561293248084
1772643962384114000,3.677114013671875,0.09590542905032634,-0.02096670885151252,0.010798466523224488
1772643962394155000,3.687155029296875,0.08243687566816807,-0.003582973053306341,0.007119293953292072
1772643962404196000,3.697196044921875,0.08468027068078518,-0.004282335228007287,0.00859655429846607
1772643962414237000,3.70723681640625,0.08856675672531128,-0.004622472168877721,0.013735250627482308
1772643962424278000,3.717278076171875,0.08676759834885597,-0.015292572205234318,0.01300447040121071
1772643962434317800,3.72731787109375,0.09544657936692237,0.013886450000666082,0.009426831110147759
1772643962444359000,3.73735888671875,0.08586918820440768,0.004180007364694029,-0.001962102986359969
1772643962454399700,3.747399658203125,0.09289923297166824,0.003070603084377944,-0.005993176000192761
1772643962464440800,3.75744091796875,0.09469371517300605,0.0031413667656481265,-0.005589581901673227
1772643962474482000,3.76748193359375,0.1047170965373516,-0.0030684841925278303,-0.011890262081613763
1772643962484522800,3.777522705078125,0.09454173948168754,-0.0058980450626462694,-0.013851040760567411
1772643962494562800,3.787562744140625,0.09125029672086238,-0.005156158920470625,-0.013739789805281906
1772643962504604000,3.79760400390625,0.08990180472135544,-0.010317359342239797,0.0005761011212132871
1772643962514644700,3.807644775390625,0.09244564398527144,0.0021034385526552796,-0.009618508624192326
1772643962524685800,3.817685791015625,0.085711951816082,0.007791110533941536,-0.004815117797302082
1772643962534727000,3.827726806640625,0.08945464547574519,0.005074946910422295,-0.006982095705997198
1772643962544767700,3.837767822265625,0.08900631718635559,0.01020072895893827,-0.00860862832874991
1772643962554807800,3.847807861328125,0.10172609802782535,-0.0019587511186487973,-0.005605784117802977
1772643962564849000,3.857848876953125,0.09918167424201965,-0.006283427651040256,0.0017631372150033711
1772643962574890000,3.867889892578125,0.09094985246956348,-0.007881419165898114,0.017919048251304776
1772643962584930800,3.877930908203125,0.08586158941984176,0.0018665062579326331,0.00773696006075479
1772643962594972000,3.887971923828125,0.0948398456454277,0.0032374658175744115,0.018027330931369216
1772643962605013000,3.898012939453125,0.09468962351977825,-0.0005053922388702631,0.005637156503600999
1772643962615053000,3.908052978515625,0.08705576764047146,-0.0034523872098885474,0.004233591582300141
1772643962625094000,3.918093994140625,0.09393909741342067,-0.007188852058164775,0.005579964689956978
1772643962635135000,3.928135009765625,0.09782909058928489,-0.00015754691557958722,-0.007414641904365271
1772643962645175800,3.93817578125,0.09528291323781013,-0.006969071827642619,-0.012651693174475804
1772643962655217000,3.948216796875,0.0927396584957838,0.002816719654854387,-0.00965100438799709
1772643962665258000,3.958258056640625,0.08780220209360122,0.0018749087600968778,-0.015620863444684073
1772643962675298000,3.968298095703125,0.10142097760140895,0.0003436075395904481,-0.013276218280987814
1772643962685339000,3.9783388671875,0.09798106628060341,-0.0025506891298107803,-0.003682232176698744
1772643962695380000,3.9883798828125,0.10261749390959739,-0.0020190116722136734,-0.01595837917020544
1772643962705421000,3.998421142578125,0.08899930292367934,-0.013384363963734358,-0.004088155229622498
1772643962715462000,4.0084619140625,0.10231821870207786,-0.0030906412254087627,-0.000977238401165232
1772643962725502000,4.018501953125,0.10440963802337645,-0.005236658544465899,0.0023637334566563367
1772643962735543000,4.02854296875,0.10096855765879154,-0.006283445917349308,0.010120229334942997
1772643962745584000,4.038584228515625,0.08285890047252177,-0.0011144275153055787,-0.005074882978340611
1772643962755625000,4.048625,0.09872048647105693,0.004666256511677056,-0.004962389914039522
1772643962765666000,4.058666015625,0.09677344405651092,0.007554945424199104,0.006600795637676492
1772643962775707000,4.068706787109375,0.08584931446015834,0.0070917666255496436,0.008175077483383938
1772643962785746700,4.07874658203125,0.10065934557914734,-0.0023461247347295283,0.01221411460796371
1772643962795787800,4.088787841796875,0.08719137671887874,0.011127853741217403,-0.004968591325962916
1772643962805828900,4.098828857421875,0.08150514777600765,0.013222469666600227,-0.00020371501171030103
1772643962815869700,4.10886962890625,0.07596855643689632,0.001402651605848223,0.0010228859074879438
1772643962825910800,4.118910888671875,0.09587269582450389,0.0002752184784971177,-0.02547266023494303
1772643962835951900,4.128951904296875,0.09587503391206265,0.0006527465539984405,-0.00873574357344769
1772643962845992000,4.138991943359375,0.09812135153412818,0.008086659414414317,-0.0009639679276384412
1772643962856032800,4.14903271484375,0.09542904371023178,-0.004814122283458709,-0.004106439804984256
1772643962866073900,4.159073974609375,0.09453355617523193,-0.018450469980575143,-0.012764332369249313
1772643962876115000,4.169114990234375,0.08825053038299083,-0.00026449615508317945,-0.01183873282377608
1772643962886155800,4.17915576171875,0.09079553869068623,-0.003574040828179568,0.0030721922532655297
1772643962896196900,4.18919677734375,0.10142039307951926,-0.004344623341877013,0.00607036028909497
1772643962906237000,4.19923681640625,0.09947393518686294,0.0038639088865369555,0.001416680131200701
1772643962916277800,4.20927783203125,0.09528408228158951,0.005495126817561685,0.007292568160966038
1772643962926318800,4.21931884765625,0.08930150074064731,-0.0017614932471886277,0.011435997241782023
1772643962936360000,4.22935986328125,0.09184826261401176,-0.005134294148534536,0.004953823015093803
1772643962946400800,4.23940087890625,0.09379179789721966,-0.0028100889846682546,-0.010204016894567756
1772643962956441900,4.24944189453125,0.09902794498503208,0.006654124126955867,-0.00705481388233602
1772643962966481400,4.2594814453125,0.08660743935108184,0.001564673767145723,-0.004476734422100707
1772643962976522500,4.2695224609375,0.09274316562712193,-0.006235953513812274,-0.000304627236071974
1772643962986563300,4.279563232421875,0.09992518608570099,-0.0012870624021627008,-0.009854116611508652
1772643962996604400,4.2896044921875,0.0957376712679863,-0.007642897702287882,-0.009115244410326705
1772643963006645500,4.2996455078125,0.0921428616464138,-0.0039312202353961765,-0.01782374378382228
1772643963016686300,4.309686279296875,0.09842822552621364,0.008645297944173217,-0.007686124922661111
1772643963026726400,4.319726318359375,0.09648293667733669,-0.0017078633638098835,-0.0028360636761412023
1772643963036767500,4.329767578125,0.08780512470304966,-0.0010148761309683322,-0.0006993439083918929
1772643963046808600,4.33980859375,0.08690905264616013,0.002085026113130152,0.0004811528467573225
1772643963056849400,4.349849365234375,0.10351824214160442,-0.012573011048231273,-0.008637909222161396
1772643963066890500,4.359890380859375,0.10381751734912395,-0.00612427330026403,0.003025220439536497
1772643963076931600,4.369931640625,0.08376490940153598,0.005587627406604588,-0.009570230769366025
1772643963086971600,4.3799716796875,0.08555822255909443,-0.007504475612286478,-0.015265090543264522
1772643963097012500,4.390012451171875,0.09782792154550551,-0.007199519582651555,-0.0119536279077176
1772643963107053600,4.400053466796875,0.10007131655812262,-0.002096643485687673,0.002793165249330923
1772643963117094400,4.410094482421875,0.09887187764048576,0.004382124074362218,0.0012174586315173656
1772643963127135500,4.420135498046875,0.08929565552175045,-0.001478949978761375,0.001997612691158429
1772643963137175600,4.430175537109375,0.09408288979828357,0.011080105609353632,0.002853964659012854
1772643963147216600,4.440216552734375,0.09093874655365944,0.0004757460192777216,0.003964811977744102
1772643963157257500,4.450257568359375,0.09872224003672599,-0.011726732949819416,-0.009309808001201599
1772643963167298600,4.460298583984375,0.09393325219452381,-0.005889313766919076,-0.009578797668311744
1772643963177339600,4.470339599609375,0.09632803837656974,-0.005934687278605997,0.0004992364927195012
1772643963187380500,4.48038037109375,0.09348550842702388,-0.005236165354121476,-0.0124461058660876
1772643963197420500,4.490420654296875,0.08944529312551021,-0.006139543934632092,-0.012449247671244666
1772643963207461600,4.500461669921875,0.08735036667287349,0.004800696546304971,-0.0030521906448528167
1772643963217502700,4.510502685546875,0.09258943637013435,-0.002435647915396839,-0.016363279309822246
1772643963227543600,4.52054345703125,0.08839841442108154,-0.004974610074795782,-0.017213457265216857
1772643963237584600,4.530584716796875,0.0975280618160963,0.00020394334057345986,0.0016486165903974324
1772643963247625500,4.54062548828125,0.0990267759412527,0.005231836238875985,0.016878918948071076
1772643963257665500,4.55066552734375,0.09229191472828388,0.011677907105721532,0.0051154615839011965
1772643963267706600,4.56070654296875,0.09693068044483662,0.0014885580573230982,0.003050619742274284
1772643963277747700,4.570747802734375,0.0927396584957838,-0.009111618547979742,0.007454069732455536
1772643963287788500,4.58078857421875,0.08690262290537357,0.0016600421667098998,0.003331738238595426
1772643963297829600,4.59082958984375,0.10246376465260981,-0.008357311315648257,0.003988594712130725
1772643963307870700,4.60087060546875,0.10351298144459724,-0.000788794023822993,0.0029639278395101427
1772643963317910500,4.61091064453125,0.09842647196054458,-0.0060259457586333155,-0.00399223884078674
1772643963327951400,4.620951416015625,0.09797989723682403,-0.008027147779520601,0.005084755918383598
1772643963337992400,4.630992431640625,0.09857435599863529,0.0010316446026787161,-0.006904500425141304
1772643963348033500,4.641033447265625,0.09318623321950435,-0.001754460718203336,-0.013076183930551632
1772643963358074400,4.651074462890625,0.0979722984522581,-0.013799867695756255,-0.005897835000092163
1772643963368115500,4.661115478515625,0.0942301893144846,0.0014885763236321507,-0.0052907907513435925
1772643963378155500,4.671155517578125,0.09153554340302944,0.00453943352792412,0.003061542995087802
1772643963388196400,4.6811962890625,0.09183657217621803,-0.01003647830793634,-0.009530081422068178
1772643963398237400,4.691237548828125,0.08809738564789295,0.00024997443938627837,-0.00417522159172222
1772643963408278500,4.701278564453125,0.09961597400605678,-0.0029197964368388057,0.01588380696349777
1772643963418319400,4.7113193359375,0.09362930081188678,0.0020587226280942557,0.005546354681299999
1772643963428360400,4.7213603515625,0.09362754724621772,0.003237721545901149,0.001963198964903131
1772643963438400500,4.731400390625,0.09647007719576359,-0.00933357246927917,0.007239495400013402
1772643963448441600,4.741441650390625,0.08854103776216507,-0.01524140827357769,0.002818117027496919
1772643963458482400,4.751482421875,0.08704349268078804,-0.01233474531294778,0.00019421653100289404
1772643963468523500,4.7615234375,0.09153145174980164,-0.002426989684905857,0.008134818538231775
1772643963478564600,4.771564697265625,0.08330313710868358,-0.009203370218351483,0.009620170858316122
1772643963488605400,4.78160546875,0.10036240845918655,0.002019468329939991,0.0031358594734687355
1772643963498645500,4.7916455078125,0.08120937969982624,0.004989624980837107,-0.0035951749477535484
1772643963508686600,4.8016865234375,0.09572247369885444,-0.00754904540637508,0.0070823412100784475
1772643963518727400,4.8117275390625,0.10125672695040702,-0.0032950229573994873,0.0038298787527717647
1772643963528768500,4.8217685546875,0.10260054277479648,0.0010087569174356758,0.003183105281833559
1772643963538809600,4.8318095703125,0.08898059822320938,-0.007912070032488554,-0.007520266836462542
1772643963548849700,4.841849609375,0.09077566494643688,-0.0022035196599550543,-0.007803686887724324
1772643963558890500,4.851890380859375,0.07251812372207642,-0.00483032449958846,0.008763480963744222
1772643963568931600,4.861931640625,0.09676058457493782,-0.005316537113953381,-0.007381397221889347
1772643963578972700,4.87197265625,0.10349544578790663,-0.007158365588355809,-0.006934959495486691
1772643963589013500,4.882013427734375,0.09675941553115844,-0.011580492879543453,0.0013229556994512677
1772643963599054600,4.8920546875,0.09481529572606086,0.0030815811361186206,0.00006821553115732968
1772643963609094700,4.9020947265625,0.09661211601495742,0.0015246522840112447,0.008636813243618235
1772643963619135700,4.9121357421875,0.09915420171320438,0.009357775328774005,0.007896297074621543
1772643963629176600,4.922176513671875,0.0999023897320032,0.019991963801532984,0.0008456022449769079
1772643963639217700,4.9322177734375,0.08074994549453259,0.0014114377005025743,-0.0011148293741047382
1772643963649258500,4.942258544921875,0.08792845882177353,-0.008206486401800066,-0.004078729814151302
1772643963659299600,4.952299560546875,0.09420856200456619,-0.0067135992292314765,0.007164210807252675
1772643963669339400,4.96233935546875,0.0814899502068758,-0.0006951061246916651,0.006765612544259056
1772643963679380500,4.97238037109375,0.09705167647600173,-0.013732300618570297,-0.004674896475858986
1772643963689421300,4.98242138671875,0.10288812754452228,-0.01974425438446924,-0.0028434523981530216
1772643963699462700,4.992462646484375,0.09600538229346275,-0.001796162701770663,-0.0024464250377379355
1772643963709503700,5.002503662109375,0.09166881439387797,0.003370170552842319,-0.007740549390483647
1772643963719544600,5.012544677734375,0.09301496830582619,-0.0026091595850884913,0.0009547891073394566
1772643963729584400,5.02258447265625,0.09376374084651469,0.004581080712564289,-0.010887341249920426
1772643963739625500,5.03262548828125,0.09047054452002048,-0.004775562105048448,-0.000052588703762739896
1772643963749666600,5.04266650390625,0.08957271889746189,-0.0085260372123681,0.018362499436177314
1772643963759707400,5.052707275390625,0.1046867013990879,-0.002388740033749491,0.012189144563488661
1772643963769748500,5.06274853515625,0.09360942706763743,0.008046089942008257,0.012067956736078486
1772643963779788500,5.07278857421875,0.08882043922543525,-0.0004354140088893473,0.004542100409045815
1772643963789829400,5.082829345703125,0.09271101692318916,-0.002664871827699244,0.01814276487142779
1772643963799870500,5.092870361328125,0.09540449379086494,-0.0040292372497729954,0.003506756878783926
1772643963809911600,5.10291162109375,0.0958551601678133,0.0005371573503129183,0.0003753452515695244
1772643963819952400,5.112952392578125,0.09405892440080642,0.005946469047944993,0.003656367083080113
1772643963829993500,5.122993408203125,0.09196575151383876,-0.007646203904226422,-0.0046035939384717495
1772643963840033500,5.133033447265625,0.0871755946278572,-0.008636383985355496,-0.004454549989756197
1772643963850074600,5.14307470703125,0.09869535202980041,-0.00795132433064282,-0.0017585615045856682
1772643963860115500,5.153115478515625,0.09510171145200728,0.009029365358315408,0.004386781983170658
1772643963870156500,5.163156494140625,0.106773444545269,-0.004856609718315303,-0.0018161734433379023
1772643963880197600,5.17319775390625,0.1061725560426712,-0.00552080924808979,-0.002462471990240738
1772643963890238500,5.183238525390625,0.08402502164244652,0.002299947505444288,-0.0017003833102528004
1772643963900278500,5.193278564453125,0.10093290182352066,0.007704765691049396,0.006557166558504105
1772643963910319600,5.203319580078125,0.09898819749653338,-0.0036933746252208947,-0.004023446829803288
1772643963920360400,5.2133603515625,0.09808744926452637,-0.008723075888119637,-0.009335015507694333
1772643963930401500,5.223401611328125,0.09733809220194815,-0.004498937120754272,-0.0009408793129958211
1772643963940442600,5.233442626953125,0.10287468354105948,0.00313369491584599,-0.013972082457505166
1772643963950483500,5.2434833984375,0.11379881313741207,-0.008829988595005124,-0.016415201293304562
1772643963960523500,5.2535234375,0.08297288224101067,-0.006713416566140949,0.012886305647948756
1772643963970563800,5.263563720703125,0.09045593147277832,-0.0009150507519952952,0.003453620185749605
1772643963980605000,5.27360498046875,0.09359656758606433,0.004952069449424743,0.0005211743298918008
1772643963990645800,5.283645751953125,0.09733575411438941,0.006817845054995268,0.010965603251056746
1772643964000686800,5.293686767578125,0.08745791870057583,0.011240410737600176,-0.002119677301403135
1772643964010727000,5.303726806640625,0.10122399372458457,-0.005959218931663781,0.0006106975105591118
1772643964020768000,5.31376806640625,0.09045008625388144,0.004968527393881231,0.00973204286810942
1772643964030808800,5.323808837890625,0.07817804917991161,0.010088098897319287,-0.0033530002223327755
1772643964040850000,5.333849853515625,0.09538345100283623,-0.007632175378873944,-0.011564592057513073
1772643964050891000,5.34389111328125,0.0968786579966545,-0.004745422695111483,-0.009805619560973719
1772643964060931800,5.353931884765625,0.0982253964304924,-0.006826320622395724,0.005279849232221022
1772643964070972000,5.363971923828125,0.10076865117251872,0.012070066494774073,-0.005259509697090834
1772643964081013000,5.374012939453125,0.10450959126651287,-0.006331595908012241,-0.006590246844198554
1772643964091054000,5.38405419921875,0.0950794996201992,-0.0029406565617769954,-0.01347774133561179
1772643964101095000,5.394094970703125,0.10121171876490115,-0.0007535583136603236,-0.011709151627356185
1772643964111136000,5.404135986328125,0.1064513729840517,0.0035309140725061296,-0.0005218867159448564
1772643964121176800,5.4141767578125,0.10989069978296756,-0.0007577960973605513,0.0004190656622871756
1772643964131217000,5.424216796875,0.09672025256454944,-0.007099146214406937,-0.0005043601924087852
1772643964141258000,5.434258056640625,0.10359832164049149,0.015620214990712701,0.0009397376686800271
1772643964151299000,5.444299072265625,0.09282733677923678,-0.007959672033879905,0.0015564356617629527
1772643964161340000,5.45433984375,0.0985123966783285,0.0028501470004208386,0.008109948958456516
1772643964171381000,5.464381103515625,0.09222644827663898,-0.008466671707946807,0.008678085968922822
1772643964181422000,5.474422119140625,0.11167816772162914,0.007691467818059026,0.002635892328387126
1772643964191462000,5.4844619140625,0.09671265377998352,0.0008651106630451977,-0.0005180873236618936
1772643964201502700,5.494502685546875,0.09266834682524204,-0.003527480006404221,0.0010744699642527848
1772643964211543800,5.504543701171875,0.09281623086333274,0.0026563962602987883,-0.002622767985332757
1772643964221585000,5.5145849609375,0.09999766680002212,0.001635948905069381,-0.01070242227022536
1772643964231625700,5.524625732421875,0.08802607397735118,0.017221019517164676,-0.004287440661387518
1772643964241666800,5.534666748046875,0.08982289426624775,-0.0006426452850922941,-0.0018381204136647283
1772643964251707000,5.544706787109375,0.08533318163156509,0.0037217970021069047,-0.005591837790841237
1772643964261747700,5.554747802734375,0.09221534236073493,0.005710961525328457,0.002029405202064663
1772643964271788800,5.564788818359375,0.09955050755441189,-0.0013914360920898616,0.0021334044326562435
1772643964281830000,5.574829833984375,0.09341770388782024,-0.001442563491128385,-0.0006443531849887222
1772643964291870700,5.58487060546875,0.0919207433283329,0.005007379833236336,-0.0012253588101826607
1772643964301910800,5.594910888671875,0.08683423384428024,0.010216766778286547,0.00835332012712024
1772643964311952000,5.604951904296875,0.09745733466744422,-0.0031173100366257128,0.002626613043388352
1772643964321993000,5.614992919921875,0.09835223768055439,-0.005724697789736092,0.007111713435035198
1772643964332033800,5.62503369140625,0.10089666146636009,0.0033696773624978956,-0.000472184089012444
1772643964342075000,5.635074951171875,0.09805705412626266,0.006565386397577822,-0.010525960591621697
1772643964352116000,5.645115966796875,0.08623334534168244,0.00887444879123941,0.00728339847382158
1772643964362156800,5.65515673828125,0.08129530441761017,0.005901369530893862,-0.0012547584346029907
1772643964372198000,5.665197998046875,0.0877291368573904,0.00426960361059755,0.005465480597969145
1772643964382238000,5.675238037109375,0.07890344084501266,0.005689096753392368,0.0037891540167387574
1772643964392278800,5.68527880859375,0.08803075015246868,0.007207538492325693,0.006167317857546732
1772643964402320000,5.69531982421875,0.11152443846464156,0.008117894802894442,-0.007659794038161635
1772643964412361000,5.70536083984375,0.09371639457345009,0.004425488292053342,-0.003973835534416139
1772643964422401800,5.71540185546875,0.090574004894495,-0.005442556380107998,-0.01294441991019994
1772643964432441900,5.72544189453125,0.10075170003771781,-0.0029757278751581908,-0.016074543762626126
1772643964442483000,5.73548291015625,0.1023988827228546,0.012693714818451553,0.007548232555622234
1772643964452524000,5.74552392578125,0.10090309120714663,0.008922397852502763,0.006241479072300717
1772643964462564900,5.75556494140625,0.09327274245917797,-0.01342913468722254,0.002112279446236789
1772643964472606000,5.76560595703125,0.08324877657294273,0.001801021539978683,0.011332865660870448
1772643964482647000,5.77564697265625,0.10554828666448593,-0.0029561281255446373,0.00984933997169137
1772643964492687000,5.78568701171875,0.1048000986456871,-0.006739281659759581,0.007966859826492145
1772643964502728000,5.79572802734375,0.08863748387396335,-0.0004208557605743408,-0.0011121168272104113
1772643964512769000,5.80576904296875,0.08340016774237155,-0.0008576945415697991,0.01400347310961224
1772643964522809900,5.815809814453125,0.10360416685938835,-0.006180789260473102,0.0030631778297480193
1772643964532851000,5.825850830078125,0.08804244059026241,0.004563216262310743,-0.00007700162581168115
1772643964542892000,5.83589208984375,0.0902864201247692,-0.003931019305996597,0.0012322269423864782
1772643964552932000,5.84593212890625,0.09043664225041866,0.00008597951671108603,0.005437505745654925
1772643964562973000,5.855972900390625,0.10015899484157562,0.0024540238223038613,-0.008740027022920548
1772643964573014000,5.866013916015625,0.08474807521998882,-0.0026807817828841504,0.005876737413136288
1772643964583055000,5.87605517578125,0.08385083411931991,0.004038206007517874,-0.005779414518503472
1772643964593096000,5.886095947265625,0.08968611614406108,0.00660162675473839,-0.0067116447341628365
1772643964603137000,5.896136962890625,0.07921206840276718,-0.003862337983958423,-0.016777677930146454
1772643964613176800,5.9061767578125,0.09716799633204937,-0.0027992022644728423,-0.0087202902759891
1772643964623218000,5.916218017578125,0.09611761049628258,0.001602667689975351,0.001267553984094411
1772643964633258800,5.9262587890625,0.10434534061551093,-0.009857304082438349,0.008481777945533394
1772643964643299800,5.9362998046875,0.11257657786607742,-0.00857572157299146,-0.0005920293427072465
1772643964653341000,5.9463408203125,0.09132628456652164,-0.001786682487372309,-0.0014839823469053953
1772643964663381800,5.9563818359375,0.10164835661649703,-0.0067909022491425275,-0.0002777574954554438
1772643964673421800,5.966421875,0.09671206925809382,-0.0007088606554083525,0.009299752398068085
1772643964683463000,5.976462890625,0.09925298591256142,0.006222071118932217,0.006557723680930212
1772643964693503700,5.986503662109375,0.08383797463774681,0.004340202895086258,-0.00806518736812286
1772643964703544800,5.996544921875,0.09940086995065212,-0.0021002784811891616,-0.0037641017738729715
1772643964713586000,6.0065859375,0.0914677388638258,-0.011744670465309172,-0.006457706505712121
1772643964723626000,6.0166259765625,0.08203706269562244,-0.005817837699595838,0.004043183576734736
1772643964733666800,6.026666748046875,0.09819850842356681,-0.00012090469961985945,-0.00017924729073420166
1772643964743708000,6.0367080078125,0.10119184502065182,-0.004941493256483227,-0.006004300182405859
1772643964753749000,6.0467490234375,0.08488076168894768,0.007357011699303985,-0.011566373022645711
1772643964763789800,6.056789794921875,0.09131576317250728,-0.006141589761245995,-0.006750424108281731
1772643964773831000,6.066830810546875,0.09355974270701407,-0.001506568638049066,-0.0029623660700861362
1772643964783871000,6.07687109375,0.0977501801341772,0.00015445990934967994,-0.0010922704824246465
1772643964793911800,6.086911865234375,0.0911667100906372,0.00882719384972006,-0.004980957617191598
1772643964803953000,6.096952880859375,0.08907178363800049,-0.006403090241644531,-0.005660290784016251
1772643964813994000,6.106993896484375,0.10163900426626205,0.008770860552601515,0.0024235830182675272
1772643964824034800,6.117034912109375,0.09654723408520222,0.007680234037991613,-0.009614097310556098
1772643964834075000,6.127074951171875,0.08592296421825885,0.004972874775435775,0.0010248038699384777
1772643964844116000,6.137115966796875,0.08801496806144714,0.00010062909657135606,0.0057250813822261985
1772643964854157000,6.147156982421875,0.09429624028801918,0.005743018897715955,0.010711135299643501
1772643964864198000,6.157197998046875,0.08741174147129058,-0.006521054065506905,0.010022303652111441
1772643964874239000,6.167239013671875,0.08561609022617339,0.0067849656987003975,-0.002382173295645043
1772643964884280000,6.177280029296875,0.08472177173495292,-0.000784446642268449,-0.006628551294282079
1772643964894320000,6.187320068359375,0.0913064108222723,0.0008687639248557388,0.008721587183931841
1772643964904361000,6.19736083984375,0.09474515309929847,0.003330185602325946,0.002948766802996397
1772643964914402000,6.207402099609375,0.09534078090488911,0.0011913104101084172,0.0009849193841218948
1772643964924443000,6.21744287109375,0.10341770437657832,0.004594981373753399,-0.009017720586294308
1772643964934484000,6.22748388671875,0.085310969799757,-0.0028653080369345843,0.0068375818019267166
1772643964944525000,6.237525146484375,0.09982406379878521,-0.0068489525793120265,-0.00543028142042458
1772643964954564900,6.24756494140625,0.09309212519526482,-0.010075202883128076,-0.000606614990485832
1772643964964606700,6.257606689453125,0.10162088408768176,-0.0018317272054962812,0.0025678046613931654
1772643964974647800,6.267647705078125,0.10805647009313106,0.0023362791941501197,-0.0012189016699325293
1772643964984688600,6.277688720703125,0.1001250925719738,0.008654668560717255,-0.005003726571425796
1772643964994729700,6.287729736328125,0.10431845260858535,-0.008959021802153438,-0.005889487296855077
1772643965004770800,6.297770751953125,0.09728665427565573,-0.004954772863164544,-0.0023380510261282322
1772643965014811000,6.307810791015625,0.09788403564691543,-0.006710731418710201,-0.011005990060372277
1772643965024851700,6.317851806640625,0.09758417591750622,0.0066198565311729905,0.00369506425880827
1772643965034892800,6.327892822265625,0.08935469223260879,-0.006278495747596025,0.012685842039249837
1772643965044934000,6.337933837890625,0.09788637373447417,-0.009332805284298955,0.009502965086279437
1772643965054974700,6.347974609375,0.09414368007481097,-0.002700052738934755,0.004127528258785605
1772643965065014500,6.3580146484375,0.08935527675449847,0.005067731718346476,-0.006167774515273049
1772643965075055600,6.3680556640625,0.08561433666050433,0.0010427505185827612,0.012958439302397892
1772643965085096700,6.3780966796875,0.08456804247796534,0.009964198523014783,-0.004487904270086438
1772643965095137500,6.388137451171875,0.095641225156188,0.011128584393579511,-0.0015882190395146607
1772643965105178600,6.3981787109375,0.09624152913689613,0.002266940284986049,0.004636455028457566
1772643965115219700,6.4082197265625,0.08980886574089526,0.002818710682541132,0.0074518960416782645
1772643965125259500,6.418259521484375,0.10177753595411777,-0.0039660906193777915,-0.005462923314701765
1772643965135300600,6.428300537109375,0.09848609319329261,0.009088420335482806,0.00042319384813308713
1772643965145341700,6.438341796875,0.09489420618116855,-0.008993143267463892,0.006652534958068281
1772643965155382500,6.448382568359375,0.09325228419303894,-0.009241583336889743,0.006463241197355091
1772643965165423600,6.458423583984375,0.09519991112947464,0.00491626748368144,0.013895208695856854
1772643965175464700,6.468464599609375,0.09654664956331252,0.010001754054427147,-0.004199744111625477
1772643965185504800,6.4785048828125,0.106420977845788,0.0019624774456955493,0.0009114066233392804
1772643965195545600,6.488545654296875,0.0981903251171112,0.006598265753872692,0.003649745546048507
1772643965205586700,6.498586669921875,0.09848960032463074,-0.0010212328065186739,0.004380607970710843
1772643965215627800,6.508627685546875,0.09908990430533886,-0.0009234167215414345,0.0034444504986051467
1772643965225668600,6.518668701171875,0.09414835624992847,0.0020241627713665365,0.0018448150159325449
1772643965235708700,6.528708740234375,0.08831307422518729,0.003378901848569512,0.00044391697575338183
1772643965245749800,6.538749755859375,0.09310498467683792,0.006870744286011904,-0.006629930400615557
1772643965255790600,6.54879052734375,0.095201080173254,0.004902038028929382,-0.005632580793183297
1772643965265831700,6.558831787109375,0.09580196867585182,-0.005922065259050578,0.006271207490283996
1772643965275872800,6.568872802734375,0.09999123705923557,-0.003049395899567753,-0.00782678463552147
1772643965285913600,6.57891357421875,0.09310790728628635,0.00565751430504024,0.0044101811250671745
1772643965295953700,6.58895361328125,0.08352817803621292,-0.003246251912228763,0.0134324134896975
1772643965305994800,6.598994873046875,0.09714636902213096,0.001491845992952585,-0.00317696780199185
1772643965316035800,6.609035888671875,0.09340367536246776,0.006480868185590952,-0.008384071458410471
1772643965326076700,6.61907666015625,0.08816519018709659,0.002888159189559519,-0.005762956574046984
1772643965336117800,6.62911767578125,0.08442541913688183,0.009267448430508375,0.0008858703232835978
1772643965346157800,6.63915771484375,0.08532324475944042,-0.010191906331665813,0.004198922127718106
1772643965356199000,6.649198974609375,0.09235738117992877,0.0008209244614467025,-0.004453837603703141
1772643965366239700,6.65923974609375,0.09819324772655963,-0.0072294763294979926,0.0001228317952249199
1772643965376280800,6.66928076171875,0.10163432809114456,0.0023929047522135076,-0.009969596217339859
1772643965386321700,6.67932177734375,0.09265782543122768,0.003961067384388298,0.004922788556013256
1772643965396362800,6.68936279296875,0.08996668665111064,0.002352517942897975,0.0033497944850940254
1772643965406402600,6.699402587890625,0.10148819761872291,0.00010283931996673344,0.003848492121696472
1772643965416443600,6.709443603515625,0.0998415994554758,0.00040076282061636445,-0.0016498404331039636
1772643965426484500,6.719484375,0.08846797252595424,-0.007645071393065154,0.006737308898381889
1772643965436525600,6.729525634765625,0.09774375039339064,0.006915843803063035,-0.0035304391484707594
1772643965446566700,6.739566650390625,0.09744038353264331,0.009557590483501553,-0.004363318909192457
1772643965456607700,6.749607666015625,0.09549275659620761,0.01917604430876672,0.00035071313381195067
1772643965466647600,6.7596474609375,0.08651450037062168,-0.006107431763317435,-0.008625999588659033
1772643965476688600,6.769688720703125,0.09250058904290198,0.008712664091959595,-0.002549008629377931
1772643965486729700,6.779729736328125,0.10148059883415698,0.01005227866526693,-0.007322333111567422
1772643965496770600,6.7897705078125,0.09504559735059738,-0.0068599306310527025,-0.00980361026697792
1772643965506811600,6.799811767578125,0.10567103626132011,-0.007204488018713891,-0.00771960706715472
1772643965516851700,6.809851806640625,0.09983516971468925,0.0025099004616960883,0.004142534031672403
1772643965526892500,6.819892578125,0.10671966853141784,0.009816277952305972,-0.012775401752535253
1772643965536933600,6.82993359375,0.09220423644483089,0.004711209898255765,0.000466128807561472
1772643965546974700,6.839974609375,0.09998363827466965,0.003761270495969802,0.0014314941078424452
1772643965557015600,6.850015625,0.09250175808668136,0.0022609306693077086,0.0063838101524394
1772643965567056600,6.860056640625,0.10312485890984535,0.00781461927369237,0.002811769485101104
1772643965577096700,6.8700966796875,0.09489303713738918,0.008587174548767507,-0.002772542586410418
1772643965587137800,6.8801376953125,0.09219546861648559,0.011385134704224765,0.004461472920887172
1772643965597178600,6.8901787109375,0.09683131172358989,0.003926781522296369,-0.000031555048888549207
1772643965607219700,6.9002197265625,0.09383739060461521,0.0021482092761434613,-0.0035559663153719155
1772643965617260800,6.9102607421875,0.08695289178788661,-0.0067900619989261024,0.0009316548269242048
1772643965627301600,6.920301513671875,0.08964695317745208,-0.006051354194525629,0.001220783099764958
1772643965637341700,6.930341796875,0.09143851276934147,0.013065854332782328,-0.0005247179938480258
1772643965647382800,6.9403828125,0.08694821561276912,0.0008556121823377907,-0.0013554605964105576
1772643965657423600,6.950423583984375,0.08993746055662631,0.0004946333828382194,-0.0033953689261805265
1772643965667464700,6.960464599609375,0.08185819899737834,-0.001938767776545137,0.0018724793409928679
1772643965677505800,6.970505859375,0.10579963107705116,-0.0002909275042824447,-0.010654071350162848
1772643965687545900,6.9805458984375,0.09906710795164107,-0.00675588573468849,-0.005577772732870653
1772643965697586700,6.990586669921875,0.0947223567456007,-0.0027167298790998756,0.01152194935902953
1772643965707627800,7.000627685546875,0.101305242267251,-0.0023775793189182875,-0.001824009689921513
1772643965717668900,7.0106689453125,0.08619359785318374,0.004961275669187307,-0.0019466405557468532
1772643965727709700,7.020709716796875,0.10714286237955092,0.004357281894050539,0.001506440773885697
1772643965737750800,7.030750732421875,0.09846621944904327,0.0053257068010978395,0.011817443440575151
1772643965747790800,7.040790771484375,0.09487550148069858,0.007994597216788678,-0.005061904765758663
1772643965757832000,7.05083203125,0.08709609965085983,-0.0013300430273637176,-0.006146941789798438
1772643965767872800,7.060872802734375,0.08634732711017132,0.0036138065829873084,-0.000699088180065155
1772643965777913900,7.070913818359375,0.08949088583290576,0.0037461642583832143,-0.003755005151964724
1772643965787954700,7.08095458984375,0.10116203440427779,0.007070285446103662,-0.002013778374670073
1772643965797994500,7.090994384765625,0.08724690629839897,-0.003440057451277971,-0.0058769018099177625
1772643965808035600,7.10103564453125,0.09053776453733443,-0.002373652062471956,-0.002099977087089792
1772643965818076700,7.11107666015625,0.09667524437904357,0.006083849958330392,0.0062601107075344765
1772643965828117500,7.121117431640625,0.0941337432026863,0.004661781265959143,0.005079522620839998
1772643965838158600,7.13115869140625,0.09009411242306233,0.017955325141083448,0.007608593573886901
1772643965848199700,7.14119970703125,0.09249006764888763,0.004280307667702436,0.002705331702250987
1772643965858239700,7.15123974609375,0.09907704482376575,0.002539583213906735,0.004629203303763643
1772643965868280600,7.161280517578125,0.09204583101272583,-0.0013962583976797759,0.004448476441996172
1772643965878321700,7.17132177734375,0.09458967027664184,-0.00829562598997727,0.0008999262480996549
1772643965888362800,7.18136279296875,0.09204349292516707,-0.005114603067375719,0.004289495621155947
1772643965898403600,7.191403564453125,0.09144318894445895,0.001094846032001078,0.006632515083346516
1772643965908443600,7.201443603515625,0.09518529808223247,0.010146551086287946,-0.0015099753046873955
1772643965918484700,7.211484619140625,0.08980068243443966,0.005137527285236865,0.010136340219527482
1772643965928525600,7.221525634765625,0.0923474443078041,0.009256963569112122,0.008449866703618317
1772643965938566700,7.231566650390625,0.09878186126947403,0.0020711254519410432,-0.0005254943119827657
1772643965948607700,7.241607666015625,0.0983382091552019,-0.00012446662988513707,-0.005447479150397703
1772643965958648600,7.251648681640625,0.09385025008618832,-0.004167604540847241,0.0001363031981512904
1772643965968688000,7.261688232421875,0.07604571332633495,0.006838157190661877,-0.00019217070438899098
1772643965978729200,7.271729248046875,0.10642156236767768,-0.002436981355957687,-0.007775839899573474
1772643965988770300,7.281770263671875,0.1016325745254755,0.0013336780228652059,0.0013407379513140766
1772643965998811100,7.29181103515625,0.09519932660758494,-0.009292290610820054,-0.009662055504973977
1772643966008852200,7.301852294921875,0.09310498467683792,0.0004494425342418253,-0.01051315590897575
1772643966018893300,7.311893310546875,0.0959463455826044,0.006797843446582555,-0.0014027977363206445
1772643966028933000,7.32193310546875,0.09160919316112995,0.0031058387945406135,-0.009400829019211233
1772643966038974000,7.331973876953125,0.09026011663973331,0.004805701514985412,0.0009504873915575444
1772643966049015000,7.34201513671875,0.08188099535107612,0.0041928120473399754,0.0018625150694046167
1772643966059056000,7.35205615234375,0.08457271865308284,-0.005182754666451364,0.002009631922515109
1772643966069097000,7.362096923828125,0.09699380880892276,-0.0022121961567550894,0.008870101409684866
1772643966079137000,7.372136962890625,0.09400105673372745,-0.0031342977040447295,-0.004879798797657713
1772643966089178000,7.38217822265625,0.08412731297314166,0.01654485555496067,-0.007714044976048171
1772643966099219200,7.39221923828125,0.09819383224844933,0.008299023523461074,-0.005777478289743885
1772643966109260000,7.402260009765625,0.10597615668773651,0.002894132272619754,-0.011642698795022442
1772643966119301000,7.412301025390625,0.0972971756696701,-0.005180306981038302,-0.002538286305963993
1772643966129342000,7.422342041015625,0.08652385272085666,0.009923921311553566,-0.005240914594475179
1772643966139382000,7.432382080078125,0.08742167834341526,-0.0006994535062462091,0.010910950454371049
1772643966149423000,7.442423095703125,0.08667232128083706,-0.0015686740888282656,-0.004957047018641606
1772643966159464200,7.452464111328125,0.09490355853140353,-0.006384549937956035,-0.00019268216104246675
1772643966169505000,7.462505126953125,0.08892039246857165,-0.006623290597274899,-0.011193064464535564
1772643966179546000,7.472546142578125,0.0917635069400072,0.010593545935116707,-0.011682839009165762
1772643966189586200,7.482586181640625,0.09101590344309807,-0.005887213141378015,-0.001374594555143267
1772643966199627300,7.492627197265625,0.09056699063181876,0.003121894880197942,0.0026196718459483236
1772643966209668000,7.502668212890625,0.0931096608519554,-0.0026692374755628405,-0.0006722275726031512
1772643966219709200,7.512709228515625,0.09400573290884494,-0.0023200221790932118,-0.0009624974897596985
1772643966229750300,7.522750244140625,0.08098550781607627,-0.0018037066874094306,0.0052692273735068735
1772643966239791000,7.532791015625,0.09056348350048064,-0.0019667882946319878,0.007158365588355809
1772643966249831200,7.5428310546875,0.1074707791596651,-0.008380509528145194,0.005597646477119997
1772643966259872300,7.552872314453125,0.08981471095979213,0.005798237949982285,-0.004711310362955555
1772643966269913000,7.5629130859375,0.08637187702953815,0.0002789082729257643,-0.0012336425813380628
1772643966279954200,7.5729541015625,0.11016659411489962,0.006061199735105037,0.0023064046456944196
1772643966289995300,7.582995361328125,0.09101414987742901,0.005440163493622094,-0.001633619950665161
1772643966300035300,7.593035400390625,0.08622399299144744,0.007727562044747173,0.002304678479488939
1772643966310076200,7.603076171875,0.09999240610301494,0.011128255600016564,0.0007729114681016653
1772643966320117200,7.6131171875,0.09385609530508518,0.004417012724652886,-0.0027904983682092276
1772643966330158300,7.623158447265625,0.09789572608470916,-0.004389047005493194,0.0003433609444182366
1772643966340199200,7.63319921875,0.1028349360525608,-0.0005459617112763225,0.00769040837213397
1772643966350240300,7.643240234375,0.08861994821727276,-0.004589282285328954,0.006185903827007859
1772643966360280300,7.6532802734375,0.09116495652496814,-0.001314498398359865,0.006139753997186199
1772643966370321200,7.663321044921875,0.09281038564443587,-0.010280242202244699,-0.0035637751624919473
1772643966380362200,7.6733623046875,0.10418167448639869,0.004415770615637302,-0.006255772459134459
1772643966390403300,7.6834033203125,0.08368015372753143,0.004007500342000276,-0.008654714226489887
1772643966400444200,7.693444091796875,0.08622516203522682,-0.003664422525372356,-0.0010395995802711694
1772643966410484000,7.70348388671875,0.0905658215880394,-0.00652487172409892,0.0016058186282869428
1772643966420525000,7.713525146484375,0.08862053273916244,0.0015455306752584874,-0.0007621434789150953
1772643966430566100,7.723566162109375,0.10223697015941142,0.004092237749695778,0.0036076599699910727
1772643966440607000,7.73360693359375,0.0881733734935522,0.00659757163412869,-0.000948925622133538
1772643966450648000,7.74364794921875,0.0793459239155054,-0.00029702845150604844,0.0010964808666612952
1772643966460689200,7.753689208984375,0.09625614218413829,0.0030639724141918122,0.0008651106630451977
1772643966470729200,7.763729248046875,0.09700491472482681,-0.000579334257915616,-0.004586259211180731
1772643966480770000,7.77377001953125,0.09012041590809822,0.0013618812040425837,-0.0022513773896731433
1772643966490811100,7.78381103515625,0.0919160671532154,-0.011206727663706987,0.002415509309666231
1772643966500852200,7.793852294921875,0.09326455915272236,0.00446220357324928,0.002073892797762528
1772643966510893000,7.80389306640625,0.07650222492218017,0.0068089676287956535,-0.0027355167779605834
1772643966520934100,7.81393408203125,0.09984919824004172,0.0007472199044190347,0.003444687960622832
1772643966530974200,7.82397412109375,0.09565817629098891,0.00824864504309371,-0.010583243736810981
1772643966541015000,7.83401513671875,0.09565759176909923,0.002585577780101448,-0.009357318671047688
1772643966551056100,7.84405615234375,0.09146481625437736,-0.005224401851091533,-0.0050747003152500835
1772643966561097200,7.85409716796875,0.09535188682079315,0.0026508981012739238,-0.00026314444821327925
1772643966571138000,7.864137939453125,0.10642273141145706,-0.002480126377940178,-0.008267358876718207
1772643966581178000,7.87417822265625,0.09325637584626674,-0.004296710813231766,0.00901358326729387
1772643966591219200,7.88421923828125,0.09116144939363002,-0.00473919388372451,0.01678835458778776
1772643966601260300,7.89426025390625,0.10088906268179416,0.008369714139495044,0.0013971534468233584
1772643966611301000,7.904301025390625,0.09849369197785854,0.010190079700760543,0.0033988577912095934
1772643966621342200,7.91434228515625,0.07829319999217986,-0.0003199892019852996,-0.008250161146745085
1772643966631382300,7.92438232421875,0.09265548734366894,0.002452854778524488,-0.00433228445011191
1772643966641423000,7.934423095703125,0.09385258817374706,0.004869049074780195,0.0055152288906741885
1772643966651464200,7.944464111328125,0.09788695825636386,-0.0032115093924105164,-0.006835307646449655
1772643966661505300,7.95450537109375,0.09085223731398583,-0.007198387071490287,-0.007538067354634404
1772643966671546000,7.964546142578125,0.09204758457839489,0.004502206790074706,-0.004666612704703584
1772643966681587200,7.974587158203125,0.09743746092319489,0.004739614008832722,-0.0014389010961633176
1772643966691627300,7.984627197265625,0.10731529633700847,-0.005964644025452434,0.003855122791882604
1772643966701668400,7.99466845703125,0.09609422962069511,0.006091229547187686,-0.000004740107199177146
1772643966711709200,8.004709228515624,0.08816285209953785,-0.003782258485071361,0.0024324056455399838
1772643966721750300,8.014750244140625,0.10372574741244316,-0.00667980655748397,0.002669401872344315
1772643966731791400,8.024791259765625,0.09654197338819503,-0.00306112286997959,0.002245769632793963
1772643966741831200,8.0348310546875,0.0820259567797184,-0.009484908839780837,-0.0007053809235338122
1772643966751872000,8.0448720703125,0.09085223731398583,0.009873908157367259,-0.008132361719664185
1772643966761913000,8.0549130859375,0.1047697035074234,0.0075543061033822596,-0.0037225093881599605
1772643966771954200,8.0649541015625,0.08965162935256958,-0.0043101730830036105,-0.005715025779092684
1772643966781995000,8.0749951171875,0.10162088408768176,-0.0014533406134694814,-0.002602035724557936
1772643966792036000,8.0850361328125,0.09802724350988865,0.0047283436961472036,-0.0023934344751760364
1772643966802076200,8.095076171875,0.09009645051062107,0.000353361748624593,-0.004569463340006769
1772643966812117000,8.105116943359375,0.09443418745398521,0.010894684306159615,0.001701095696305856
1772643966822158000,8.115157958984375,0.0894938084423542,-0.0018880239699967205,0.0011011205091606825
1772643966832199200,8.12519921875,0.08814473192095756,0.0031204518417827782,-0.0005309011394623666
1772643966842240000,8.135239990234375,0.10011281761229038,-0.0023547281662933527,-0.004952882300177589
1772643966852280000,8.145280029296876,0.08993629151284695,0.00020637275967746972,-0.0028223000122699887
1772643966862321200,8.155321044921875,0.09188041131794453,0.003994786990899593,-0.013025494922930375
1772643966872362200,8.1653623046875,0.10085866754353046,0.002499470399226993,-0.003137092449329793
1772643966882403000,8.175403076171875,0.10310147803425788,0.007322177847940474,0.001543630979117006
1772643966892444200,8.185444091796874,0.09831365923583507,-0.003177972448989749,-0.00877645917632617
1772643966902485200,8.1954853515625,0.09696633628010749,-0.0025635668776929376,0.0009758684279862791
1772643966912525000,8.205525146484375,0.09472060317993164,0.005090601137280464,-0.00721683604363352
1772643966922566100,8.215566162109376,0.09771160168945789,0.0042144028246402735,-0.008207436249870807
1772643966932607200,8.225607177734375,0.09876023395955562,0.007200725159049033,0.0028243458388838914
1772643966942648000,8.23564794921875,0.08274842583537101,0.013802790305204688,0.0004372863055672496
1772643966952689200,8.245689208984375,0.09172434397339821,-0.005894592730235308,0.0004596077352296561
1772643966962729200,8.255729248046874,0.09022679889202118,0.0005817819433286786,-0.0047549394421279425
1772643966972770300,8.265770263671875,0.10114800587892532,-0.0025046762973070145,0.003197416934976354
1772643966982811100,8.27581103515625,0.10249649787843226,-0.0065915802847594015,0.006754104769555852
1772643966992852200,8.285852294921876,0.09980185196697712,-0.004917893185187131,-0.0018919968922156839
1772643967002893300,8.295893310546875,0.0987526351749897,0.004414583305548876,-0.005911123739928007
1772643967012934100,8.30593408203125,0.08229249876141548,-0.00514397529233247,-0.003870749619277194
1772643967022974200,8.31597412109375,0.08423837213218212,-0.0066759706325829025,-0.004276334745483472
1772643967033015300,8.326015380859374,0.1033925699353218,0.007829031391534954,-0.004579911668784916
1772643967043056000,8.33605615234375,0.09531097028851508,0.00231541906921193,0.006648589435312897
1772643967053097200,8.34609716796875,0.09276888459026814,0.0034567345914430915,0.0033628366297576576
1772643967063138300,8.35613818359375,0.09725684365928172,0.0023080577466636893,0.00588049113964662
1772643967073178400,8.366178466796875,0.08633271406292915,0.006968249843735248,0.001707251442456618
1772643967083219200,8.37621923828125,0.07451192788779736,0.0041092802160419524,-0.0017498393420130012
1772643967093260300,8.38626025390625,0.0915723682820797,0.008559610688406974,0.00043580673453398047
1772643967103301400,8.39630126953125,0.10249591335654258,-0.0029422091980464754,0.003103875166317448
1772643967113342200,8.40634228515625,0.08528758892416953,0.005892035446967929,0.0033583157182671126
1772643967123383300,8.41638330078125,0.0966606313318014,-0.0019055048277601598,-0.0027601580288726833
1772643967133423400,8.42642333984375,0.0995019922375679,-0.0070831449276767666,-0.006065665847668424
1772643967143464400,8.43646435546875,0.10009995813071727,0.0005744023544713854,-0.00026149134724400935
1772643967153505300,8.44650537109375,0.09800386263430118,-0.003264171161409467,-0.0032916893559973683
1772643967163546400,8.45654638671875,0.0945610287040472,0.006959134955517947,-0.00555729620042257
1772643967173587200,8.466587158203126,0.08618073837161064,-0.006778115832805633,0.002966128929750994
1772643967183627300,8.476627197265625,0.10443594150841236,-0.002275233189295977,0.005658701615128666
1772643967193668400,8.48666845703125,0.09037292936444281,-0.0005654153304174542,0.0022017478279769418
1772643967203709400,8.49670947265625,0.08513385966718197,-0.0012572152531705797,0.0021894454688299444
1772643967213750300,8.506750244140624,0.09006956250369548,0.0025684257159009575,-0.003037723728083074
1772643967223791400,8.516791259765625,0.09410743971765041,0.005158296078629792,-0.003896843041758984
1772643967233831200,8.5268310546875,0.08707154973149299,0.0005989340075291693,0.0021603015727363526
1772643967243872300,8.536872314453126,0.09305530031621456,-0.004007829135563224,0.0020345106354448944
1772643967253913000,8.5469130859375,0.10323065737187861,-0.005052534149214625,0.003409589247778058
1772643967263954400,8.556954345703126,0.09170914640426635,-0.009094740478415042,0.004703437583753839
1772643967273995500,8.56699560546875,0.08108487653732299,0.009030771864112466,-0.0025364688082132486
1772643967284036400,8.577036376953124,0.10233458531498908,0.00752615772113204,-0.004522993849776685
1772643967294076200,8.587076171875,0.09948796371221542,0.0028519188323989507,0.009234240280650556
1772643967304117200,8.5971171875,0.09170739283859729,0.00013889701403677464,0.0008329071601852774
1772643967314158000,8.607157958984375,0.10472411080002784,-0.0027776297534815963,0.014716918608592823
1772643967324199200,8.61719921875,0.102028880366683,0.009862071589101105,0.007652825441258028
1772643967334240300,8.627240234375,0.09259995776414871,0.011558189716190099,-0.009849933626735582
1772643967344280300,8.6372802734375,0.09798749602138995,0.006757858496066182,-0.005376258811401203
1772643967354321200,8.647321044921876,0.10247603961229323,-0.005361618364695459,-0.005932787582464516
1772643967364362200,8.6573623046875,0.10262567721605301,-0.004311433458328247,-0.0013061598282773047
1772643967374403300,8.6674033203125,0.09050678487718104,-0.0034220834031701087,0.00803558681430295
1772643967384444200,8.677444091796875,0.09080547556281089,0.0069175973687320945,0.004738033973099663
1772643967394484200,8.687484130859374,0.08975859685838222,0.011253927806299179,0.0033492008300498124
1772643967404525300,8.697525390625,0.08931143761277198,-0.002554159728530794,0.0033053342888597396
1772643967414566400,8.70756640625,0.10322948832809925,-0.0009633468731306493,0.000172397424839437
1772643967424607200,8.717607177734376,0.09500000464320182,0.006484375316929072,0.005600605619186535
1772643967434648300,8.7276484375,0.08976210398972034,-0.003397332554403692,0.0031005324317608025
1772643967444689200,8.737689208984374,0.09335165291428565,0.0027744879483245313,-0.0044956765845883635
1772643967454729200,8.747729248046875,0.08856266507208346,-0.0003131393360905349,0.009816369283851236
1772643967464770300,8.757770263671874,0.08646715409755706,-0.0005829875197261572,0.0012482647617347538
1772643967474811400,8.767811279296875,0.088861940279603,0.003875690655875951,0.001896892263041809
1772643967484852200,8.777852294921875,0.0914063640654087,0.016282752286363392,0.00006405994584783912
1772643967494893300,8.787893310546876,0.08571896607875823,-0.0001372165136039257,0.000510643802722916
1772643967504933400,8.797933349609375,0.09723930800259113,0.012592811727244406,0.008558532976172864
1772643967514974500,8.807974365234376,0.1017284361153841,-0.0019375439338386057,-0.004147484201425686
1772643967525015300,8.818015380859375,0.08137889104783534,-0.004533405645936728,0.0012688143594190477
1772643967535056400,8.828056396484374,0.08108136940598487,-0.00041342137278988953,-0.005264605997316539
1772643967545097500,8.838097412109375,0.10113222378790378,0.00017161197355017066,0.0034891116242390125
1772643967555138300,8.84813818359375,0.10187924276292323,0.006325074835680425,0.0035500662975478914
1772643967565178400,8.858178466796875,0.10487082579433918,0.0008309709314256906,-0.005760883347969502
1772643967575219500,8.868219482421875,0.09289747940599918,0.01304872053489089,0.002418039193470031
1772643967585260300,8.87826025390625,0.09050620035529136,0.0044681949226185675,0.0018865078663453459
1772643967595301400,8.88830126953125,0.08422142099738121,0.0052178625124506646,0.007264958634832873
1772643967605342500,8.898342529296874,0.08152852865159511,0.0036174598447978492,0.0015764920691028236
1772643967615382300,8.90838232421875,0.09290040201544761,-0.0018571539076976478,-0.004808277064561843
1772643967625423000,8.918423095703124,0.1033750342786312,0.0033852402578108012,-0.0066175458430778236
1772643967635464200,8.928464111328125,0.08766250136196613,0.0023134645741432905,-0.013570853846007957
1772643967645505300,8.93850537109375,0.09125205028653144,0.0012357888726517558,-0.004086383397644385
1772643967655546000,8.948546142578126,0.0800303990483284,0.006106938572973013,0.004511540874000639
