time,seconds_elapsed,z,y,x
1772643958759373300,0.052373291015625,0.0015318960649892688,-0.0026711593382060528,-0.0011708324309438467
1772643958769413000,0.0624130859375,0.0011849801521748304,-0.0012336360523477197,-0.0006563356146216393
1772643958779454200,0.0724541015625,0.0028989906422793865,-0.0019076821627095342,-0.001131709897890687
1772643958789495300,0.082495361328125,0.00039880041731521487,-0.0033701525535434484,-0.0004065609537065029
1772643958799536000,0.0925361328125,0.0019799191504716873,-0.0026087546721100807,-0.0021325554698705673
1772643958809577200,0.1025771484375,0.0024987799115478992,-0.007561334874480963,-0.0004248875193297863
1772643958819618300,0.112618408203125,0.0022612260654568672,-0.0032336984295397997,0.0014390589203685522
1772643958829658400,0.122658447265625,0.0024082958698272705,0.005348577164113522,-0.0015790814068168402
1772643958839699200,0.13269921875,0.0020471711177378893,0.0005338482442311943,-0.0013383314944803715
1772643958849740300,0.142740234375,0.00042785448022186756,-0.00094192149117589,-0.0006340944673866034
1772643958859781400,0.152781494140625,-0.0007399417227134109,-0.0014234210830181837,0.0014271922409534454
1772643958869822200,0.162822265625,0.0008928367169573903,-0.0007840549224056304,-0.0003429057542234659
1772643958879863300,0.17286328125,0.0008981630671769381,0.0011707053054124117,0.0009878757409751415
1772643958889903400,0.1829033203125,-0.0017726115183904767,0.0024256661999970675,0.0004749569343402982
1772643958899944200,0.192944091796875,-0.0013068245025351644,0.0017897032666951418,0.001149535644799471
1772643958909985300,0.2029853515625,-0.0007480606436729431,0.0010447966633364558,0.0005135306855663657
1772643958920026400,0.2130263671875,0.0020735585130751133,0.003950837999582291,0.0011875767959281802
1772643958930067200,0.223067138671875,-0.00036401848774403334,0.003344298340380192,0.0008184922626242042
1772643958940108300,0.2331083984375,-0.001982155255973339,0.0016598488437011838,0.0008163617458194494
1772643958950149400,0.2431494140625,0.000450720835942775,0.004408990498632193,0.001948601333424449
1772643958960189400,0.253189453125,-0.0025296227540820837,0.006582662463188171,0.0020367519464343786
1772643958970230300,0.263230224609375,-0.002465283265337348,0.005501482170075178,0.0023123056162148714
1772643958980271400,0.273271240234375,-0.003497524419799447,0.0040750931948423386,0.002814045175909996
1772643958990312400,0.2833125,-0.0025988805573433638,0.0032651741057634354,0.002101622289046645
1772643959000353300,0.293353271484375,-0.003721669316291809,0.002552778460085392,0.0021503581665456295
1772643959010394400,0.303394287109375,-0.001646815799176693,0.007225040812045336,0.001531330170109868
1772643959020434400,0.313434326171875,-0.0023893050383776426,0.005712098907679319,0.0012788624735549092
1772643959030475300,0.323475341796875,-0.0018925319891422987,0.0012515181442722678,0.0014902902767062187
1772643959040516400,0.333516357421875,-0.003610004670917988,0.002184157259762287,0.0010932129807770252
1772643959050557400,0.343557373046875,-0.004219492897391319,0.004274551756680012,0.0014916285872459412
1772643959060598300,0.353598388671875,-0.0022045448422431946,0.0002241500187665224,0.00001517217606306076
1772643959070639400,0.363639404296875,-0.005350991152226925,0.005411681719124317,0.0006211709696799517
1772643959080679200,0.37367919921875,-0.003479854203760624,0.0032670381478965282,0.0020390378776937723
1772643959090720300,0.38372021484375,-0.0005423859693109989,-0.0030567769426852465,0.0005868980661034584
1772643959100761000,0.393760986328125,-0.0008281432092189789,0.00021678057964891195,0.000272644916549325
1772643959110802200,0.40380224609375,-0.0020509902387857437,-0.0002574289683252573,0.0016189210582524538
1772643959120843300,0.41384326171875,-0.0028816298581659794,0.002238751854747534,0.0011813637102022767
1772643959130884000,0.423884033203125,-0.003013566369190812,0.004072791896760464,-0.0008234705310314894
1772643959140924200,0.433924072265625,-0.002658300567418337,0.0003643398522399366,0.0010508622508496046
1772643959150965200,0.44396533203125,-0.0024888606276363134,0.00005431979661807418,0.0008325185626745224
1772643959161006300,0.45400634765625,-0.0034968669060617685,0.005502614658325911,-0.0008873508777469397
1772643959171047200,0.464047119140625,0.0005994823877699673,0.0000420022988691926,-0.0002930336631834507
1772643959181088300,0.474088134765625,0.0031108432449400425,-0.0008072797791101038,-0.0005196686834096909
1772643959191129000,0.484129150390625,0.002655238378793001,0.0036336362827569246,0.00016752304509282112
1772643959201170200,0.494170166015625,0.0033444645814597607,0.0021792841143906116,-0.0004942724481225014
1772643959211210200,0.504210205078125,0.0013827801449224353,-0.0016977458726614714,0.0011302558705210686
1772643959221251300,0.514251220703125,0.002086387248709798,0.0018549110973253846,0.0019803368486464024
1772643959231292200,0.524292236328125,-0.00008571811486035585,0.0006204170640558004,-0.0005641896277666092
1772643959241333200,0.534333251953125,-0.0029587363824248314,-0.0016137086786329746,0.0003838958218693733
1772643959251374300,0.544374267578125,-0.0022409670054912567,0.00232255132868886,0.00029520015232264996
1772643959261415200,0.554415283203125,-0.0024958315771073103,-0.0004894803278148174,-0.0005591418594121933
1772643959271455200,0.564455322265625,-0.000034366268664598465,-0.0008881051326170564,-0.0005213003605604172
1772643959281496300,0.574496337890625,0.0007499346975237131,0.0022384459152817726,0.0009855162352323532
1772643959291537400,0.584537353515625,0.0008681024191901088,-0.0006897988496348262,-0.00014877156354486942
1772643959301578200,0.594578125,0.0005115051753818989,-0.0028656013309955597,-0.0008382641244679689
1772643959311619300,0.604619384765625,-0.00004053732845932245,-0.0008167135529220104,-0.00003571202978491783
1772643959321660200,0.61466015625,0.0015688108978793025,-0.002247363794595003,-0.0005265327636152506
1772643959331700200,0.6247001953125,-0.00009018124546855688,-0.0002218420268036425,0.0013661703560501337
1772643959341741300,0.6347412109375,-0.000587659771554172,0.0024615591391921043,0.0008279454195871949
1772643959351782400,0.644782470703125,-0.0003579552285373211,-0.0004197844536975026,-0.0014068318996578455
1772643959361823200,0.6548232421875,0.0022165225818753242,-0.0009819776751101017,0.00001742667518556118
1772643959371864300,0.6648642578125,0.0006614553276449442,0.0005652105319313705,0.00016151554882526398
1772643959381905400,0.674905517578125,0.0006148500251583755,-0.00029658840503543615,0.0008952163625508547
1772643959391945500,0.684945556640625,0.0007501420332118869,-0.0002003178815357387,0.001513954484835267
1772643959401986300,0.694986328125,-0.0005641279276460409,-0.00047382450429722667,0.0006385734304785728
1772643959412027400,0.70502734375,-0.0019004270434379578,-0.0007016946910880506,0.0005992032820358872
1772643959422068500,0.715068359375,-0.0017686006613075733,-0.0018553761765360832,-0.0003994822036474943
1772643959432109300,0.725109375,0.0005921037518419325,-0.001341691822744906,0.00026270956732332706
1772643959442150400,0.735150390625,0.00028237811056897044,-0.0015177266905084252,0.00034287082962691784
1772643959452190500,0.7451904296875,0.0018898147391155362,0.000012683740351349115,0.000058723846450448036
1772643959462231300,0.755231201171875,0.001088469522073865,0.000767956196796149,-0.0006917549762874842
1772643959472272400,0.7652724609375,0.001610779669135809,-0.0004458138137124479,0.00011768029071390629
1772643959482313500,0.7753134765625,0.0013623067643493414,-0.0011803137604147196,0.00023059849627315998
1772643959492354300,0.785354248046875,-0.0004063464002683759,0.0005839215591549873,0.0004721584264189005
1772643959502395400,0.7953955078125,-0.000013530137948691845,-0.0007931990548968315,-0.0002876413054764271
1772643959512435200,0.805435302734375,-0.0007036952301859856,-0.0006200240459293127,-0.0007583692204207182
1772643959522476300,0.815476318359375,-0.000707689905539155,-0.0002865962451323867,-0.00007074093446135521
1772643959532517000,0.82551708984375,-0.00013451592531055212,0.000024963519535958767,0.0007639107061550021
1772643959542558200,0.83555810546875,0.00036962045123800635,-0.0000445449841208756,0.0003133038990199566
1772643959552599300,0.845599365234375,0.001990215852856636,0.00010163331171497703,0.0005293042631819844
1772643959562640100,0.85564013671875,0.0015728985890746117,0.00025636295322328806,0.0006118622841313481
1772643959572680200,0.86568017578125,0.001169305993244052,0.0011003779945895076,-0.0002433138433843851
1772643959582721300,0.87572119140625,0.0007147043943405151,0.0009419199777767062,0.00001368112862110138
1772643959592762000,0.88576220703125,-0.0009153072023764253,0.001351326471194625,0.0003878609277307987
1772643959602803200,0.89580322265625,-0.0003083727788180113,-0.00003484881017357111,0.0006150285480543971
1772643959612844300,0.90584423828125,0.0010730874491855502,-0.00014620827278122306,0.0010194267379119992
1772643959622885000,0.915885009765625,0.000011018826626241207,0.00016990897711366415,0.0017145117744803429
1772643959632926200,0.92592626953125,0.0013801640598103404,-0.0006310418830253184,0.0009214514866471291
1772643959642966300,0.93596630859375,0.00008373719174414873,0.001086696982383728,0.00004047784022986889
1772643959653007400,0.94600732421875,0.0005086683668196201,-0.0011720089241862297,0.0007805645000189543
1772643959663048200,0.956048095703125,0.0007840392063371837,0.0005715625593438745,0.00014619948342442513
1772643959673089300,0.96608935546875,-0.0007032717112451792,0.001087516313418746,-0.00004171812906861305
1772643959683130400,0.97613037109375,-0.00004334037657827139,0.0014430483570322394,0.0007005048682913184
1772643959693171200,0.986171142578125,-0.0013950210995972157,0.0011218013241887093,0.00037840940058231354
1772643959703211300,0.996211181640625,0.00006119546014815569,-0.0009322947589680552,0.000457238988019526
1772643959713252400,1.00625244140625,0.0011355498572811484,-0.0001512056915089488,0.0002252408303320408
1772643959723293200,1.016293212890625,0.0012002646690234542,0.0006671837763860822,-0.0001254973467439413
1772643959733334300,1.026334228515625,0.0021321787498891354,-0.0002496478846296668,-0.0005893774796277285
1772643959743375400,1.036375244140625,-0.00007025548256933689,0.001207101158797741,-0.00014809169806540012
1772643959753416200,1.046416259765625,-0.0011744939256459475,0.0007132638711482286,-0.001089943340048194
1772643959763456300,1.056456298828125,0.00023058982333168387,-0.0011647974606603384,-0.00010324222967028618
1772643959773497300,1.066497314453125,0.00037410372169688344,-0.0005481266998685896,-0.0015345660503953695
1772643959783538400,1.076538330078125,-0.0010504210367798805,0.0008614844991825521,0.0003735888749361038
1772643959793579300,1.086579345703125,-0.0007922998629510403,0.00021936511620879173,-0.0000543652568012476
1772643959803620400,1.096620361328125,0.0005810922593809664,0.0005304223159328103,-0.0013531891163438559
1772643959813661400,1.106661376953125,-0.0012857528636232018,-0.0003930439706891775,0.0005678905872628093
1772643959823701500,1.116701416015625,0.00035848282277584076,0.0004146927676629275,-0.00023931358009576797
1772643959833742300,1.126742431640625,0.0003111878177151084,-0.00010001746704801917,0.0008509900653734803
1772643959843783400,1.136783447265625,-0.0007572723552584648,0.0009005321189761162,-0.0002499606925994158
1772643959853824300,1.14682421875,-0.0003682461101561785,-0.0010880199261009693,-0.00018765940330922604
1772643959863865300,1.156865234375,0.00020380091154947877,0.0007338485447689891,0.0010957180056720972
1772643959873906400,1.166906494140625,0.0001752405660226941,-0.0015057031996548176,-0.00034302310086786747
1772643959883946200,1.1769462890625,0.0008849730365909636,0.001311122439801693,0.001475915894843638
1772643959893987000,1.186987060546875,0.0003013883833773434,-0.0003734889905899763,0.00009971112012863159
1772643959904028200,1.197028076171875,0.0002515872474759817,0.0007884481456130743,-0.0010339964646846056
1772643959914069200,1.2070693359375,-0.0005460401298478246,-0.0007998716901056468,-0.0006582639180123806
1772643959924110000,1.217110107421875,-0.00009277008939534426,-0.00016790354857221246,0.00020220340229570866
1772643959934151200,1.227151123046875,-0.00003458966966718435,-0.0017615988617762923,0.00023765815421938896
1772643959944191200,1.237191162109375,0.0012575761647894979,0.0004773206892423332,0.00009331479668617249
1772643959954232300,1.247232421875,0.000024439767003059387,0.000043136707972735167,0.00019355653785169125
1772643959964273700,1.257273681640625,-0.0011681237956508994,-0.0008673980482853949,0.000769598176702857
1772643959974314800,1.267314697265625,-0.0006571548292413354,0.003090239129960537,-0.0008835829794406891
1772643959984355600,1.27735546875,-0.0018555773422122002,-0.002551401499658823,0.00011057499796152115
1772643959994396700,1.287396728515625,0.0011799067724496126,-0.0025568678975105286,-0.00023933756165206432
1772643960004436500,1.2974365234375,0.00021371192997321486,0.0009555750875733793,0.0005119401030242443
1772643960014477600,1.3074775390625,0.0011956194648519158,0.0008125633466988802,0.00008849753066897392
1772643960024518400,1.317518310546875,-0.0029892718885093927,-0.0009200892527587712,0.000716470880433917
1772643960034559500,1.3275595703125,-0.0003649928839877248,0.0005803356762044132,-0.0007059234194457531
1772643960044600600,1.3376005859375,0.0005157144041731954,0.00008179189171642065,0.0010240660049021244
1772643960054641400,1.347641357421875,0.00040643353713676333,-0.0007957199704833329,-0.000005202600732445717
1772643960064681500,1.357681396484375,0.0010439942125231028,0.0005451816250570118,0.0007673804648220539
1772643960074722600,1.36772265625,0.0013045606901869178,0.0004366035864222795,0.00046991114504635334
1772643960084763600,1.377763671875,0.00001532444730401039,-0.001554375747218728,0.0006661862134933472
1772643960094804500,1.387804443359375,0.00021238229237496853,-0.0006550154648721218,-0.0010942749213427305
1772643960104845600,1.397845458984375,-0.0011530204210430384,0.0013492796570062637,-0.0011310265399515629
1772643960114886400,1.407886474609375,-0.0009134176652878523,0.0003581999335438013,-0.00004909932613372803
1772643960124926500,1.417926513671875,-0.0011858590878546238,0.0004881621862296015,-0.00034098164178431034
1772643960134967600,1.427967529296875,-0.0010084289824590087,0.001028349157422781,0.0013667370658367872
1772643960145008600,1.438008544921875,-0.0007122854003682733,-0.0013333420502021909,-0.0011962892021983862
1772643960155049500,1.448049560546875,0.0002871513715945184,-0.00020853144815191627,0.0012796634109690785
1772643960165090600,1.458090576171875,0.0015822466230019927,0.000482558854855597,0.000056473538279533386
1772643960175131600,1.468131591796875,0.0014450799208134413,0.00023023015819489956,0.0007035932503640652
1772643960185171700,1.478171630859375,-0.00018557358998805285,-0.00038016634061932564,-0.00035874173045158386
1772643960195212500,1.488212646484375,0.000019097235053777695,0.0008671885589137673,-0.00012157321907579899
1772643960205253600,1.498253662109375,-0.00001286074984818697,-0.000033492513466626406,0.0009114668937399983
1772643960215294700,1.508294677734375,-0.0012722671963274479,-0.001363114221021533,0.0003974689170718193
1772643960225335600,1.51833544921875,-0.000023244530893862247,0.001529078814201057,0.0003814899828284979
1772643960235376600,1.528376708984375,0.0012496737763285637,0.00038623891305178404,-0.000343583058565855
1772643960245416700,1.538416748046875,0.0012555327266454697,0.00003629951970651746,-0.0014693012926727533
1772643960255457500,1.54845751953125,0.0014630220830440521,0.0002586642513051629,0.0006277314387261868
1772643960265498600,1.55849853515625,-0.0010640514083206654,0.00009860825957730412,-0.0006218238268047571
1772643960275539700,1.568539794921875,0.0011589375790208578,-0.0006763858837075531,0.0007139297667890787
1772643960285580500,1.57858056640625,0.00010405946522951126,0.0001867446699179709,-0.0005180486477911472
1772643960295621600,1.58862158203125,-0.0007889278931543231,0.000525898183695972,-0.0004088408313691616
1772643960305661700,1.59866162109375,-0.001449391944333911,-0.00016359426081180573,-0.00048713781870901585
1772643960315702800,1.608702880859375,0.0021510589867830276,-0.0003814019146375358,-0.0007229829207062721
1772643960325743600,1.61874365234375,0.001817098818719387,0.0006255393382161856,0.0002474728971719742
1772643960335784700,1.62878466796875,0.0003780146362259984,-0.0008135662646964192,0.00046084600035101175
1772643960345825800,1.63882568359375,0.0011231671087443829,0.0001819233293645084,0.0011830952716991305
1772643960355866600,1.64886669921875,0.000013447599485516548,0.00023770338157191873,0.00015611201524734497
1772643960365906400,1.658906494140625,-0.0011255863355472684,-0.00018227705731987953,-0.0001456241589039564
1772643960375947500,1.668947509765625,-0.0017593579832464457,-0.0012190770357847214,-0.00004760478623211384
1772643960385988400,1.67898828125,-0.0009548170492053032,-0.00006752618355676532,0.0017047552391886711
1772643960396029400,1.689029541015625,-0.000037296442314982414,-0.0002736852620728314,0.0007004939252510667
1772643960406070500,1.699070556640625,0.0014093326171860099,-0.0008169700740836561,0.0006451001390814781
1772643960416111400,1.709111328125,0.0011311416747048497,-0.0003010369837284088,-0.0010731653310358524
1772643960426151400,1.7191513671875,0.0005684157949872315,0.0005535713862627745,0.0017886675195768476
1772643960436192500,1.729192626953125,0.0005369768477976322,0.0003688875585794449,0.0001689051277935505
1772643960446233600,1.739233642578125,-0.001058256602846086,-0.0003938418230973184,0.0003891487140208483
1772643960456274400,1.7492744140625,-0.0008300660410895944,-0.00024254899471998215,-0.0007159614469856024
1772643960466315500,1.7593154296875,-0.000787189113907516,-0.0008047423325479031,-0.00018226401880383492
1772643960476356600,1.769356689453125,-0.0014729893300682306,-0.0005828870926052332,0.0001003313809633255
1772643960486396700,1.779396728515625,-0.0006197126349434257,-0.0007828904781490564,-0.000567323062568903
1772643960496437500,1.7894375,0.0018623198848217726,0.00004430615808814764,0.0003613610751926899
1772643960506478600,1.799478515625,0.0006769468309357762,-0.000677676813211292,-0.0005907188169658184
1772643960516519400,1.80951953125,0.0006768847815692425,0.0004352875694166869,0.0002676001749932766
1772643960526560500,1.819560546875,0.00074106699321419,0.000919183949008584,-0.0009116476867347956
1772643960536601600,1.8296015625,-0.000033347983844578266,0.0003789966576732695,-0.0011538174003362656
1772643960546641700,1.8396416015625,-0.0009582638740539551,0.0018581163603812456,-0.00029121944680809975
1772643960556682500,1.8496826171875,0.00008189049549400806,-0.0003917745780199766,-0.0006172631401568651
1772643960566723600,1.8597236328125,0.0005231762770563364,0.000657244585454464,0.001656277570873499
1772643960576764700,1.8697646484375,-0.00004887697286903858,-0.00017486244905740023,0.00009184423834085464
1772643960586805500,1.879805419921875,0.0010736454278230667,-0.00025315931998193264,0.0010939916828647256
1772643960596846600,1.8898466796875,-0.00011725886724889278,-0.00024014024529606104,-0.001243714476004243
1772643960606886700,1.89988671875,-0.0002815758343786001,0.00025494140572845936,0.0006963983178138733
1772643960616927700,1.909927734375,-0.0013099370989948511,0.000560339423827827,-0.00008650729432702065
1772643960626968600,1.919968505859375,-0.0003687760327011347,0.0006926985224708915,0.000120153883472085
1772643960637009700,1.930009765625,-0.00104638806078583,0.0005543895531445742,0.00006974535062909126
1772643960647050500,1.940050537109375,0.0009648312698118389,-0.0008333837031386793,0.0005666912766173482
1772643960657091600,1.950091552734375,-0.0011268503731116652,-0.0006853508530184627,0.0005773389711976051
1772643960667131600,1.960131591796875,-0.0003678493667393923,-0.00008613953832536936,0.0006471137749031186
1772643960677172700,1.9701728515625,0.0008291994454339147,-0.0009163955110125244,-0.00042145373299717903
1772643960687213600,1.980213623046875,0.00034290621988475323,-0.0007989501464180648,0.001065921736881137
1772643960697254700,1.990254638671875,0.0008017247309908271,0.0008490913896821439,0.0005021336255595088
1772643960707295700,2.000295654296875,-0.00043691147584468126,0.0001886274549178779,-0.00006725010462105274
1772643960717335600,2.01033544921875,0.00017586990725249052,0.0005060199182480574,0.0005614960100501776
1772643960727376400,2.02037646484375,0.0018592539709061384,0.0007121485541574657,0.0008014468476176262
1772643960737417500,2.03041748046875,0.0012341269757598639,0.0008749166736379266,0.0012046191841363907
1772643960747458600,2.04045849609375,0.00016912887804210186,0.0001947453711181879,0.000022974563762545586
1772643960757499400,2.05049951171875,-0.00022522779181599617,0.0010557138593867421,0.0009587118402123451
1772643960767540700,2.060540771484375,0.0012080855667591095,-0.000010615854989737272,-0.0012099002487957478
1772643960777580500,2.07058056640625,0.000004355679266154766,0.0008425490232184529,-0.00033264560624957085
1772643960787621400,2.080621337890625,0.00024537177523598075,0.0006068592774681747,-0.0008445051498711109
1772643960797662500,2.090662353515625,0.0007602515397593379,0.0002822703681886196,-0.001476577715948224
1772643960807703600,2.10070361328125,0.0007378809968940914,0.000034063763450831175,0.00039802142418920994
1772643960817744400,2.110744384765625,-0.00004456890746951103,-0.0003967726952396333,0.0011105339508503675
1772643960827785500,2.120785400390625,-0.00032846187241375446,-0.00005322496872395277,0.0008032051846385002
1772643960837825500,2.130825439453125,0.0003877531853504479,-0.001651036087423563,0.00014875596389174461
1772643960847866600,2.14086669921875,0.00006604334339499474,-0.00014661630848422647,0.0008094862569123507
1772643960857907500,2.150907470703125,0.00043609633576124907,0.00015531620010733604,0.0007840667385607958
1772643960867948500,2.160948486328125,0.00019454763969406486,0.000684752652887255,0.00012200488708913326
1772643960877989600,2.17098974609375,-0.0014564411249011755,0.0006906607886776328,0.00012628920376300812
1772643960888030500,2.181030517578125,-0.00027639453765004873,-0.0003775330842472613,-0.0003413618542253971
1772643960898070500,2.191070556640625,-0.001285213977098465,-0.0011584998574107885,0.0004234691150486469
1772643960908111600,2.201111572265625,0.000026392750442028046,0.00030144507763907313,0.0005536976968869567
1772643960918152400,2.21115234375,-0.0014379543717950583,0.001308075268752873,-0.0010927899274975061
1772643960928193500,2.221193603515625,-0.000964178005233407,0.0010106002446264029,0.00019112019799649715
1772643960938234600,2.231234619140625,-0.0000049173831939697266,0.0006629535928368568,-0.000578591600060463
1772643960948275500,2.241275390625,0.00009042373858392239,0.0000877107959240675,-0.0008787298575043678
1772643960958315500,2.2513154296875,-0.0008409405127167702,-0.0008036547224037349,0.00006575044244527817
1772643960968355800,2.26135595703125,0.0003199313650839031,0.0003598803887143731,0.0005914584035053849
1772643960978397000,2.27139697265625,-0.00008582905866205692,-0.0005691262194886804,0.0006659161299467087
1772643960988438000,2.28143798828125,0.00019859656458720565,-0.000612802105024457,0.0011783083900809288
1772643960998478800,2.291478759765625,-0.0010967355920001864,-0.0004755643894895911,-0.00017927959561347961
1772643961008520000,2.30152001953125,0.0016220854595303535,-0.00021137890871614218,0.00014749029651284218
1772643961018559700,2.311559814453125,0.0004497076733969152,0.0000553792342543602,0.0012737932847812772
1772643961028600600,2.3216005859375,0.002072904258966446,0.00009665824472904205,0.00011585070751607418
1772643961038641700,2.3316416015625,0.0007248726906254888,0.000033775693736970425,-0.0004335446283221245
1772643961048682800,2.341682861328125,0.00047426921082660556,-0.0007878094329498708,0.000023187603801488876
1772643961058723600,2.3517236328125,-0.000059209996834397316,0.0001495135948061943,0.0010730160865932703
1772643961068764700,2.3617646484375,0.0014364212984219193,0.00104140629991889,-0.001141402404755354
1772643961078804700,2.3718046875,-0.0004919640487059951,-0.0006386280292645097,0.0011340728960931301
1772643961088845800,2.381845703125,0.0009496050770394504,-0.0014407722046598792,0.00047920155338943005
1772643961098886700,2.39188671875,-0.0008885578718036413,-0.0004323466564528644,-0.0005171236116439104
1772643961108927700,2.401927734375,-0.00026457919739186764,0.00016819621669128537,-0.0002412202302366495
1772643961118968800,2.41196875,0.0007361869211308658,-0.0011183889582753181,0.0004961581435054541
1772643961129009700,2.422009765625,0.0011228779330849648,0.0007628679741173983,-0.0005153103265911341
1772643961139049700,2.4320498046875,0.0012125528883188963,0.0008062366396188736,0.0009915389819070697
1772643961149090800,2.4420908203125,0.000455948815215379,-0.0003445151960477233,0.0002059063408523798
1772643961159131600,2.452131591796875,-0.00007051241118460894,-0.00003491714596748352,0.0005380986258387566
1772643961169172700,2.4621728515625,-0.0002867610892280936,-0.0016807506326586008,0.000738634611479938
1772643961179213800,2.4722138671875,0.000730494037270546,0.00026559625985100865,-0.0003136103041470051
1772643961189254700,2.482254638671875,0.00003967003431171179,-0.001143215922638774,0.0002605672925710678
1772643961199294700,2.492294677734375,0.0005870891036465764,0.0009336778894066811,0.0003071068786084652
1772643961209335800,2.502335693359375,-0.0003862963058054447,-0.000351829978171736,-0.0007397816516458988
1772643961219377000,2.512376953125,0.0007610023021697998,-0.000257485662586987,-0.0003000912256538868
1772643961229417700,2.522417724609375,-0.0004384854109957814,0.00023413385497406125,0.0006916698766872287
1772643961239458800,2.532458740234375,0.00014384841779246926,0.00031759432749822736,0.000026657478883862495
1772643961249500000,2.5425,0.0005254793795756996,-0.0006818900583311915,-0.0014894800260663033
1772643961259540000,2.5525400390625,-0.0010026296367868781,0.000429040112067014,-0.00011579529382288456
1772643961269580800,2.562580810546875,-0.000986916827969253,0.00047005279338918626,0.00024426402524113655
1772643961279622000,2.572621826171875,0.0011782330693677068,-0.0006665843538939953,0.0006807561730965972
1772643961289662700,2.582662841796875,-0.00004682107828557491,-0.0013459566980600357,-0.00016852584667503834
1772643961299703800,2.592703857421875,-0.00052718969527632,0.0000850613578222692,-0.000523420749232173
1772643961309745000,2.602744873046875,-0.0010758008575066924,0.0000680171069689095,-0.0007135702762752771
1772643961319785000,2.612784912109375,-0.001183894812129438,-0.00034305767621845007,0.0005230758106335998
1772643961329825800,2.62282568359375,-0.001008126069791615,0.00014536600792780519,0.0003089576493948698
1772643961339867000,2.632866943359375,0.0005563009181059897,-0.0009014236857183278,-0.0005861709360033274
1772643961349908000,2.642907958984375,0.0004953144816681743,-0.0007389708771370351,0.0006183768855407834
1772643961359948800,2.65294873046875,0.0023938873782753944,-0.00022765615722164512,0.0009621219942346215
1772643961369988600,2.662988525390625,-0.0017963300924748182,0.0005662321927957237,0.0007386828074231744
1772643961380029700,2.67302978515625,0.0013195856008678675,-0.0010311403311789036,-0.00009557139128446579
1772643961390070800,2.68307080078125,0.0014143940061330795,0.00037181301740929484,-0.001116094645112753
1772643961400111600,2.693111572265625,-0.0003494174452498555,0.0008730199187994003,-0.0007989122532308102
1772643961410152700,2.703152587890625,-0.0007712622173130512,0.000021341023966670036,0.00009218137711286545
1772643961420193800,2.71319384765625,0.000523802766110748,-0.0005146044422872365,-0.0006046420894563198
1772643961430233600,2.723233642578125,0.0006971745751798153,-0.000011267024092376232,0.0006393204675987363
1772643961440274700,2.733274658203125,0.0012431048089638352,-0.0006371018826030195,0.00023360596969723701
1772643961450315800,2.743315673828125,0.0000468128127977252,0.0005887511651962996,-0.0005331181455403566
1772643961460356600,2.753356689453125,0.0002586733317002654,0.00008468539454042912,-0.00037778913974761963
1772643961470397700,2.763397705078125,0.00002298352774232626,0.00006577698513865471,-0.0003674030303955078
1772643961480438800,2.773438720703125,0.0001269313506782055,0.0003229919821023941,0.0013740723952651024
1772643961490478800,2.783478759765625,0.0002624862245284021,0.00018317601643502712,0.0002845730632543564
1772643961500519700,2.793519775390625,-0.0007225645240396261,-0.00007850886322557926,-0.0013298408593982458
1772643961510560800,2.803560791015625,-0.001445346511900425,-0.00024655426386743784,-0.001140490174293518
1772643961520601900,2.813601806640625,0.0008048198651522398,-0.0008053157944232225,-0.00011648796498775482
1772643961530642700,2.823642578125,-0.001015450689010322,-0.0010953339515253901,-0.00033353548496961594
1772643961540683800,2.833683837890625,0.0012582946801558137,0.0011369579005986452,0.0017495722277089953
1772643961550723800,2.843723876953125,-0.0006277560023590922,-0.0013728050980716944,0.0011053535854443908
1772643961560764700,2.8537646484375,-0.00023507210426032543,-0.001136109116487205,0.0004453703295439482
1772643961570805800,2.8638056640625,-0.000424422905780375,0.0008937523816712201,0.000492241932079196
1772643961580846800,2.873846923828125,0.0016843766206875443,-0.0005591907538473606,0.00030076480470597744
1772643961590887700,2.8838876953125,0.0010814369888976216,0.001033912179991603,-0.0007501186337321997
1772643961600928800,2.8939287109375,-0.0005874807247892022,-0.0004729533102363348,0.0005780645878985524
1772643961610968800,2.90396875,0.000513736333232373,-0.0014599208952859044,0.0018704966641962528
1772643961621010000,2.914010009765625,0.0004602530971169472,-0.00013102160301059484,-0.0007440217304974794
1772643961631050800,2.92405078125,-0.0006492198444902897,-0.0001749638468027115,-0.0001083251554518938
1772643961641091800,2.934091796875,0.0005602675955742598,-0.0007063410012051463,0.0017026748973876238
1772643961651133000,2.9441328125,0.0004161905962973833,0.00062151113525033,-0.00005447864532470703
1772643961661173800,2.954173828125,0.0009499365696683526,-0.0007272695074789226,-0.0001911078579723835
1772643961671213800,2.9642138671875,0.0003163705114275217,-0.0011741479393094778,-0.0008430497255176306
1772643961681255000,2.9742548828125,-0.00034134811721742153,-0.001288172323256731,-0.0013854941353201866
1772643961691295700,2.984295654296875,-0.0006814338266849518,0.00109455781057477,-0.00004698941484093666
1772643961701336800,2.9943369140625,-0.000060391263104975224,0.00024087849305942655,0.0005526613676920533
1772643961711378000,3.0043779296875,0.0004999378579668701,-0.000029965012799948454,-0.0005727906245738268
1772643961721418800,3.014418701171875,-0.0015164848882704973,-0.00017703213961794972,0.000530324294231832
1772643961731458800,3.024458740234375,-0.00010474317241460085,-0.0008995477692224085,-0.0005224233027547598
1772643961741500000,3.0345,-0.0009212342556566,0.00029725913191214204,-0.001019407995045185
1772643961751541000,3.044541015625,-0.0005622400203719735,-0.002020223531872034,-0.0002569449134171009
1772643961761581800,3.054581787109375,0.0007979967631399632,-0.00031165702966973186,-0.00013578985817730427
1772643961771623000,3.064622802734375,0.0008102473802864552,-0.0003034012042917311,0.000501238158904016
1772643961781664000,3.0746640625,0.0004440958146005869,-0.0008349154959432781,-0.0009934070985764265
1772643961791703800,3.084703857421875,0.0003895010449923575,-0.0009262619423680007,0.0002761217765510082
1772643961801744600,3.09474462890625,-0.00012509874068200588,-0.00036531686782836914,0.0002693403512239456
1772643961811785700,3.10478564453125,-0.00007449858821928501,-0.00031098839826881886,-0.0013519921340048313
1772643961821826800,3.114826904296875,0.0007835474680177867,0.00031989155104383826,0.0001418802421540022
1772643961831867600,3.12486767578125,0.0006906031630933285,0.00028074311558157206,-0.00010632630437612534
1772643961841908700,3.13490869140625,0.0009299741359427571,0.00037967931712046266,-0.00038526440039277077
1772643961851948800,3.14494873046875,-0.000629573012702167,0.0008039208478294313,-0.0007242849096655846
1772643961861989600,3.15498974609375,0.0007871572743169963,-0.00036147545324638486,-0.00003893952816724777
1772643961872030700,3.16503076171875,-0.001555092865601182,0.0019304410088807344,0.0010138079524040222
1772643961882071800,3.17507177734375,-0.0005580506986007094,-0.001193531323224306,0.00023733149282634258
1772643961892112600,3.185112548828125,-0.0017817732878029346,0.0009907932253554463,-0.0020481934770941734
1772643961902153700,3.19515380859375,-0.00035841320641338825,-0.0006821605493314564,0.0011837261263281107
1772643961912193800,3.20519384765625,-0.0013823986519128084,-0.0012422234285622835,-0.00040671369060873985
1772643961922235000,3.21523486328125,-0.0011967113241553307,-0.000782895484007895,0.0004945874679833651
1772643961932275700,3.225275634765625,-0.0017099026590585709,-0.0007160501554608345,-0.0005349905695766211
1772643961942316800,3.23531689453125,-0.0009640573989599943,-0.00009537284495308995,-0.00017928658053278923
1772643961952358000,3.24535791015625,-0.0012684566900134087,-0.0012133677955716848,0.0007919683121144772
1772643961962397700,3.255397705078125,0.0002772364532575011,0.00014795869356021285,-0.0006651983130723238
1772643961972440000,3.265440185546875,-0.001382978167384863,-0.0003966577351093292,-0.00014135451056063175
1772643961982481000,3.27548095703125,0.0012019629357382655,0.00005991727812215686,-0.0017094856593757868
1772643961992522000,3.28552197265625,0.00003549829125404358,0.0010977510828524828,-0.00014407956041395664
1772643962002563000,3.29556298828125,0.0012488227803260088,0.0007279999554157257,0.000906818313524127
1772643962012604000,3.30560400390625,0.0009462876478210092,0.0006433114176616073,-0.00224982644431293
1772643962022643700,3.315643798828125,0.000013421289622783661,-0.0009047896601259708,0.000041607068851590157
1772643962032684800,3.325684814453125,-0.0013746182667091489,0.00018710637232288718,-0.0005970189813524485
1772643962042726000,3.335725830078125,0.0012372730998322368,-0.00039974821265786886,-0.0007494492456316948
1772643962052766700,3.3457666015625,-0.0009209525305777788,-0.00014834583271294832,0.0004716101102530956
1772643962062807800,3.355807861328125,0.001093714963644743,0.00007022847421467304,0.0011450588935986161
1772643962072849000,3.365848876953125,0.0003613456501625478,0.00009419693378731608,-0.0008757477626204491
1772643962082889000,3.375888916015625,0.0000966761726886034,0.00048359006177634,-0.00044761435128748417
1772643962092929800,3.3859296875,-0.0008809702703729272,0.0004902479704469442,0.001825926243327558
1772643962102971000,3.395970947265625,-0.0005330127896741033,0.0007077798945829272,-0.0003695669583976269
1772643962113011700,3.40601171875,0.0012132219271734357,-0.000014735735021531582,0.0003638674970716238
1772643962123052800,3.416052734375,-0.0015665446408092976,-0.00025673245545476675,0.00014813104644417763
1772643962133094000,3.426093994140625,0.0003093860577791929,-0.0005430222954601049,0.00038648396730422974
1772643962143134000,3.436134033203125,0.00032908254070207477,0.0010042368667200208,0.0008601982844993472
1772643962153174800,3.4461748046875,0.0002654329873621464,-0.0005526470486074686,-0.00002184067852795124
1772643962163216000,3.4562158203125,-0.0008052571211010218,-0.0011781443608924747,0.0012209494598209858
1772643962173257000,3.466257080078125,-0.00041696825064718723,0.0017547948518767953,0.0002768589183688164
1772643962183297800,3.4762978515625,0.0004194619250483811,0.000364044273737818,0.00029673543758690357
1772643962193339000,3.4863388671875,0.00033450708724558353,-0.0001715174876153469,-0.0003378959372639656
1772643962203379000,3.49637890625,-0.0014371821889653802,0.0012439496349543333,0.000011468073353171349
1772643962213420000,3.506419921875,0.00041664420859888196,-0.000011198222637176514,-0.00040371879003942013
1772643962223460900,3.5164609375,0.00015934056136757135,0.0003551894915290177,0.0009558539604768157
1772643962233502000,3.526501953125,0.0006882443558424711,0.00018794293282553554,0.00067728734575212
1772643962243542800,3.536542724609375,0.0010080310748890042,0.0017549816984683275,-0.0006570618133991957
1772643962253584000,3.546583984375,-0.00014059024397283792,0.00006920064333826303,0.00009181885980069637
1772643962263624000,3.5566240234375,-0.00080725341103971,-0.00022361497394740582,0.00003116391599178314
1772643962273665000,3.5666650390625,-0.0008682397892698646,0.0012379278196021914,-0.0006969443056732416
1772643962283705900,3.576705810546875,-0.00034242740366607904,-0.0007311194203794003,0.0008044542046263814
1772643962293747000,3.586746826171875,-0.00032804638613015413,0.0010542637901380658,0.00014239223673939705
1772643962303788000,3.5967880859375,0.001608684309758246,-0.00005162914749234915,0.00002971314825117588
1772643962313828900,3.606828857421875,0.00023103103740140796,-0.000016475445590913296,0.00014422927051782608
1772643962323869000,3.616868896484375,0.0015609120018780231,0.0014156473334878683,0.000609718612395227
1772643962333910000,3.626909912109375,-0.00004577299114316702,-0.0005372486775740981,0.0008123851148411632
1772643962343951000,3.636951171875,-0.0013102873926982284,0.00022317637922242284,-0.0000761707779020071
1772643962353992000,3.646991943359375,0.0008553952211514115,-0.0001323556061834097,-0.00010226969607174397
1772643962364033000,3.657032958984375,-0.00023112556664273143,0.001086942502297461,0.000279758358374238
1772643962374072800,3.66707275390625,-0.00014563818695023656,-0.00026141596026718616,0.0008608602220192552
1772643962384114000,3.677114013671875,-0.00031054060673341155,-0.0007557976059615612,0.000320665305480361
1772643962394155000,3.687155029296875,-0.001086319563910365,-0.00024580222088843584,-0.0014767022803425789
1772643962404196000,3.697196044921875,0.000587020069360733,0.00015103991609066725,0.0011781814973801374
1772643962414237000,3.70723681640625,-0.0004521454102359712,0.0005494488286785781,0.0013946965336799622
1772643962424278000,3.717278076171875,0.0003564567887224257,0.000038421363569796085,0.000218547647818923
1772643962434317800,3.72731787109375,0.00008641229942440987,0.00018862367141991854,-0.0005218111909925938
1772643962444359000,3.73735888671875,-0.001205531763844192,-0.0008145141182467341,-0.0000979879405349493
1772643962454399700,3.747399658203125,-0.0013397549046203494,0.00015354488277807832,-0.0006982644554227591
1772643962464440800,3.75744091796875,-0.00036104361061006784,-0.000394021044485271,0.001059076632373035
1772643962474482000,3.76748193359375,0.0005103426519781351,0.0003061240422539413,-0.00037530180998146534
1772643962484522800,3.777522705078125,-0.0011874436168000102,0.0003721279790624976,0.000018490012735128403
1772643962494562800,3.787562744140625,0.00006504106568172574,-0.00023187696933746338,-0.0005881781689822674
1772643962504604000,3.79760400390625,-0.0003459664876572788,0.0006365204462781549,-0.0013476714957505465
1772643962514644700,3.807644775390625,0.000411969143897295,-0.0015110527165234089,0.001098708133213222
1772643962524685800,3.817685791015625,0.0007347310893237591,0.00035845115780830383,-0.0004415081348270178
1772643962534727000,3.827726806640625,-0.001244263956323266,0.001593358931131661,0.00024372339248657227
1772643962544767700,3.837767822265625,0.001091752084903419,0.0009182840003632009,0.0005573136731982231
1772643962554807800,3.847807861328125,-0.00003742816625162959,0.0003076212015002966,-0.0014347308315336704
1772643962564849000,3.857848876953125,-0.0012661763466894627,0.0003952650004066527,0.0007328828796744347
1772643962574890000,3.867889892578125,-0.000949526613112539,0.0005752946599386632,0.0005539184203371406
1772643962584930800,3.877930908203125,-0.001890385989099741,0.0011461017420515418,-0.0008419237565249205
1772643962594972000,3.887971923828125,-0.000888238602783531,0.0005029482999816537,-0.0005114255473017693
1772643962605013000,3.898012939453125,-0.0010232547065243125,-0.00135117769241333,0.00035829958505928516
1772643962615053000,3.908052978515625,-0.0006248457357287407,-0.00032745860517024994,0.00040597026236355305
1772643962625094000,3.918093994140625,-0.0002500657574273646,-0.0003700979286804795,0.0008307668613269925
1772643962635135000,3.928135009765625,-0.00022236892255023122,-0.00019912293646484613,-0.00009148591198027134
1772643962645175800,3.93817578125,0.00023094471544027328,0.0004286724142730236,0.0002058674581348896
1772643962655217000,3.948216796875,-0.0007504301611334085,0.0005772768054157495,-0.00007509603165090084
1772643962665258000,3.958258056640625,-0.00024537486024200916,-0.00036739755887538195,-0.0008309208787977695
1772643962675298000,3.968298095703125,-0.0007785396883264184,-0.00034236384090036154,-0.0008666072972118855
1772643962685339000,3.9783388671875,-0.000011926400475203991,-0.0008577117696404457,-0.00021789898164570332
1772643962695380000,3.9883798828125,0.00023681280435994267,-0.001134946825914085,0.0008092822972685099
1772643962705421000,3.998421142578125,-0.0004868990508839488,0.0007597504882141948,-0.0010848480742424726
1772643962715462000,4.0084619140625,0.00044174521462991834,-0.0012053961399942636,0.00048428645823150873
1772643962725502000,4.018501953125,-0.0003719156375154853,0.0009528961381874979,0.0005293443100526929
1772643962735543000,4.02854296875,-0.00022730592172592878,0.0007201358675956726,0.0003567715175449848
1772643962745584000,4.038584228515625,-0.002299004467204213,-0.0006532757543027401,0.00010124314576387405
1772643962755625000,4.048625,-0.00007633032510057092,-0.0012405028101056814,-0.0006082230247557163
1772643962765666000,4.058666015625,-0.0006865470204502344,0.0006814568769186735,0.0005022467812523246
1772643962775707000,4.068706787109375,-0.00008653674740344286,-0.0004863392096012831,0.00016349274665117264
1772643962785746700,4.07874658203125,0.00002166593912988901,0.00034860672894865274,0.0006664927350357175
1772643962795787800,4.088787841796875,0.00015349237946793437,-0.0005323669174686074,0.000522415735758841
1772643962805828900,4.098828857421875,0.001063619740307331,0.00000902742613106966,0.00018070172518491745
1772643962815869700,4.10886962890625,0.0004817190347239375,0.000013022101484239101,-0.00017589563503861427
1772643962825910800,4.118910888671875,0.00004975544288754463,0.0009098093723878264,-0.001227261032909155
1772643962835951900,4.128951904296875,-0.0007081802468746901,0.0006807775353081524,-0.0008711963891983032
1772643962845992000,4.138991943359375,-0.0005441680550575256,-0.0008756009628996253,-0.00004392839036881924
1772643962856032800,4.14903271484375,0.0009131136466749012,-0.00019276642706245184,0.00042958161793649197
1772643962866073900,4.159073974609375,-0.00018016464309766889,0.0002139813732355833,-0.0004329762887209654
1772643962876115000,4.169114990234375,0.0014989584451541305,0.0001410107361152768,-0.0003509507514536381
1772643962886155800,4.17915576171875,-0.0007335045957006514,-0.0003177480539306998,0.00038001895882189274
1772643962896196900,4.18919677734375,0.0006699812947772443,0.00007986190030351281,-0.0005062809213995934
1772643962906237000,4.19923681640625,0.0011468552984297276,-0.00012578244786709547,-0.000732123851776123
1772643962916277800,4.20927783203125,0.0012240869691595435,-0.0002940942067652941,-0.0003172033466398716
1772643962926318800,4.21931884765625,0.0002936124219559133,0.0009378261165693402,-0.0008911527693271637
1772643962936360000,4.22935986328125,-0.0007082688389346004,0.0012403612490743399,-0.0004440080374479294
1772643962946400800,4.23940087890625,-0.0011761202476918697,-0.00024359289091080427,0.0012869042111560702
1772643962956441900,4.24944189453125,-0.0006813050713390112,0.00042033317731693387,-0.00042843795381486416
1772643962966481400,4.2594814453125,0.0007019344484433532,0.00023548363242298365,-0.0005688394885510206
1772643962976522500,4.2695224609375,-0.0006030144868418574,-0.0000018040300346910954,-0.0001853443682193756
1772643962986563300,4.279563232421875,0.0003095539868809283,-0.0004278235137462616,-0.0003536185249686241
1772643962996604400,4.2896044921875,0.0000810547498986125,-0.0003841477446258068,0.0005052509950473905
1772643963006645500,4.2996455078125,-0.001475114026106894,0.0012792188208550215,-0.0006774512585252523
1772643963016686300,4.309686279296875,-0.0012476801639422774,-0.0003271999303251505,-0.0006092744879424572
1772643963026726400,4.319726318359375,0.0007134457118809223,-0.0010205397848039865,-0.0005348538979887962
1772643963036767500,4.329767578125,-0.00010973738972097635,-0.00030121993040665984,-0.0008230078965425491
1772643963046808600,4.33980859375,-0.0004725927719846368,-0.00010530982399359345,0.0005776423495262861
1772643963056849400,4.349849365234375,-0.0016126919072121382,0.0006217331974767148,-0.0005459452513605356
1772643963066890500,4.359890380859375,0.0014132659416645765,0.0011453008046373725,0.0001257411204278469
1772643963076931600,4.369931640625,0.0002340182545594871,0.0007021508645266294,0.0008589094504714012
1772643963086971600,4.3799716796875,-0.0006197895854711533,-0.000528768403455615,0.0007637628586962819
1772643963097012500,4.390012451171875,0.0001437387545593083,-0.001400154666043818,0.00033286353573203087
1772643963107053600,4.400053466796875,-0.0018468969501554966,-0.0009837846737354994,0.00033148075453937054
1772643963117094400,4.410094482421875,0.00021012872457504272,0.0003363442374393344,0.0005541210994124413
1772643963127135500,4.420135498046875,-0.0010515491012483835,-0.0008631399250589311,-0.00017130980268120766
1772643963137175600,4.430175537109375,-0.0013737916015088558,-0.00031878979643806815,-0.0009851718787103891
1772643963147216600,4.440216552734375,0.00013491354184225202,-0.0004334928235039115,-0.00021006888709962368
1772643963157257500,4.450257568359375,-0.00011568993795663118,-0.00014320830814540386,-0.0010409753303974867
1772643963167298600,4.460298583984375,-0.00090543192345649,0.0009690150618553162,-0.0016425054054707289
1772643963177339600,4.470339599609375,-0.0006047609494999051,-0.00034498865716159344,-0.002167148282751441
1772643963187380500,4.48038037109375,0.0003531018737703562,-0.0012758529046550393,0.0002689871471375227
1772643963197420500,4.490420654296875,-0.0006149571854621172,-0.0004702467704191804,0.0005550107453018427
1772643963207461600,4.500461669921875,-0.00016739475540816784,0.0010210081236436963,-0.0011934535577893257
1772643963217502700,4.510502685546875,-0.0013120215153321624,-0.0015923518221825361,-0.00045922002755105495
1772643963227543600,4.52054345703125,0.0004465201054699719,0.0004526027478277683,-0.0010966022964566946
1772643963237584600,4.530584716796875,0.00006701966049149632,0.001081907656043768,-0.0013533311430364847
1772643963247625500,4.54062548828125,-0.0011912217596545815,0.0007588337175548077,-0.0005084392614662647
1772643963257665500,4.55066552734375,-0.0013486145762726665,-0.00014983676373958588,0.0008439139928668737
1772643963267706600,4.56070654296875,0.00003577407915145159,0.00040658703073859215,-0.00139235844835639
1772643963277747700,4.570747802734375,-0.0007514562457799911,0.00042709335684776306,0.0005693259881809354
1772643963287788500,4.58078857421875,-0.000019685481674969196,-0.00032019318314269185,0.0011967136524617672
1772643963297829600,4.59082958984375,-0.0007214284269139171,0.000393534020986408,0.00035355682484805584
1772643963307870700,4.60087060546875,-0.00021976639982312918,0.0005353802116587758,-0.0008389581926167011
1772643963317910500,4.61091064453125,0.0003746511647477746,0.000812881626188755,-0.0011494827922433615
1772643963327951400,4.620951416015625,-0.000006821006536483765,-0.00045867153676226735,-0.00028033764101564884
1772643963337992400,4.630992431640625,0.000947655935306102,0.0005775644676759839,0.0004517653724178672
1772643963348033500,4.641033447265625,-0.0011998384725302458,-0.00013855716679245234,0.0012379271211102605
1772643963358074400,4.651074462890625,0.000056640885304659605,-0.001548168365843594,-0.0009272228926420212
1772643963368115500,4.661115478515625,0.0003027913626283407,0.0007085283868946135,0.00023402739316225052
1772643963378155500,4.671155517578125,0.0012074671685695648,0.0002291593700647354,-0.000011516036465764046
1772643963388196400,4.6811962890625,0.00021265388932079077,0.0003561425837688148,-0.0013541083317250013
1772643963398237400,4.691237548828125,0.00042890256736427546,0.0004453584551811218,0.0009343461133539677
1772643963408278500,4.701278564453125,0.001754894619807601,0.0006204921519383788,0.0005860460223630071
1772643963418319400,4.7113193359375,-0.0003639162750914693,-0.0010530384024605155,0.000395097304135561
1772643963428360400,4.7213603515625,-0.0003984760260209441,-0.001186928479000926,-0.0009954955894500017
1772643963438400500,4.731400390625,-0.0010858378373086452,-0.000701700453646481,-0.0006008150521665812
1772643963448441600,4.741441650390625,-0.0012445143656805158,0.0008345688693225384,-0.0008503883145749569
1772643963458482400,4.751482421875,-0.0013758082641288638,0.0006058033322915435,0.0012606993550434709
1772643963468523500,4.7615234375,0.000692688743583858,-0.00008388108108192682,0.0001338697038590908
1772643963478564600,4.771564697265625,0.00017497019143775105,0.0002671235706657171,-0.0002570822834968567
1772643963488605400,4.78160546875,0.001246425323188305,0.0008838060894049704,-0.0006652993615716696
1772643963498645500,4.7916455078125,0.0001923461095429957,-0.0007372600957751274,-0.0006357382517307997
1772643963508686600,4.8016865234375,-0.000038191559724509716,-0.001259203301742673,0.00037868390791118145
1772643963518727400,4.8117275390625,0.0006931123789399862,0.0007400317117571831,0.0012514018453657627
1772643963528768500,4.8217685546875,-0.00016960548236966133,0.0001422005007043481,-0.0001166975125670433
1772643963538809600,4.8318095703125,0.00017846969421952963,-0.0016927175456658006,-0.0004341462627053261
1772643963548849700,4.841849609375,-0.0008745010709390044,-0.0004013627767562866,0.0012500855373218656
1772643963558890500,4.851890380859375,0.0017662893515080214,-0.00037819333374500275,-0.000040215905755758286
1772643963568931600,4.861931640625,0.000949992798268795,-0.0009379741968587041,-0.0003879372961819172
1772643963578972700,4.87197265625,0.0006890030344948173,0.0009587291860952973,0.00016653281636536121
1772643963589013500,4.882013427734375,0.0015677701449021697,-0.0007451318670064211,-0.0005272813141345978
1772643963599054600,4.8920546875,-0.000014946446754038334,-0.0016785698244348168,-0.0005166286136955023
1772643963609094700,4.9020947265625,-0.00004589674063026905,0.000625169777777046,0.0004555806517601013
1772643963619135700,4.9121357421875,0.0007679652771912515,0.00005045963916927576,-0.0006962365005165339
1772643963629176600,4.922176513671875,-0.000239489134401083,0.001827626139856875,0.0006196420872583985
1772643963639217700,4.9322177734375,-0.0004080672515556216,-0.0008006475400179625,-0.0010738621931523085
1772643963649258500,4.942258544921875,-0.000432622036896646,0.00002704397775232792,0.0025008132215589285
1772643963659299600,4.952299560546875,-0.000030218390747904778,0.000943437684327364,-0.0012409279588609934
1772643963669339400,4.96233935546875,0.0010111997835338116,0.00028432748513296247,0.0004482683725655079
1772643963679380500,4.97238037109375,-0.00115315115544945,-0.0016699000261723995,-0.0001850314438343048
1772643963689421300,4.98242138671875,0.00009817053796723485,0.00010491698049008846,-0.0006135546136647463
1772643963699462700,4.992462646484375,0.00007260421989485621,0.0008319600019603968,0.001104184309951961
1772643963709503700,5.002503662109375,0.0004558787913993001,0.00021944777108728886,0.0005630895029753447
1772643963719544600,5.012544677734375,-0.0008762343786656857,-0.00036937708500772715,-0.0006779434625059366
1772643963729584400,5.02258447265625,-0.0013130416627973318,0.0006927022477611899,-0.0001866789534687996
1772643963739625500,5.03262548828125,0.0002398474607616663,1.4086253941059113e-8,0.0004439575131982565
1772643963749666600,5.04266650390625,0.0013521997025236487,0.0002573654055595398,-0.00005351449362933636
1772643963759707400,5.052707275390625,0.00041476701153442264,0.00019478111062198877,-0.0007800247985869646
1772643963769748500,5.06274853515625,-0.0011517126113176346,-0.0006823332514613867,0.0007474046433344483
1772643963779788500,5.07278857421875,0.0020472765900194645,0.0002550994395278394,-0.0003737863153219223
1772643963789829400,5.082829345703125,0.00043502007611095905,0.00042652490083128214,-0.00045341462828218937
1772643963799870500,5.092870361328125,-0.00026379339396953583,-0.0011314243311062455,-0.0009133424609899521
1772643963809911600,5.10291162109375,0.0008948526810854673,-0.0001639930997043848,-0.0002234610728919506
1772643963819952400,5.112952392578125,-0.0006982502527534962,0.00024986208882182837,-0.000534252030774951
1772643963829993500,5.122993408203125,0.0005426700226962566,0.0005306315142661333,0.00005888123996555805
1772643963840033500,5.133033447265625,-0.0008807895937934518,-0.0020867232233285904,-0.0002764107193797827
1772643963850074600,5.14307470703125,-0.00040373578667640686,0.00036388024454936385,0.0007352950051426888
1772643963860115500,5.153115478515625,-0.0004010726697742939,0.0008994418894872069,0.0015707286074757576
1772643963870156500,5.163156494140625,0.0011913126800209284,0.001361366012133658,0.0005845946725457907
1772643963880197600,5.17319775390625,-0.0003517228178679943,-0.0002615642733871937,0.00010202988050878048
1772643963890238500,5.183238525390625,0.0014416371705010533,-0.0016639321111142635,0.0007500417996197939
1772643963900278500,5.193278564453125,-0.0005440156674012542,-0.0001986607676371932,0.0004954435862600803
1772643963910319600,5.203319580078125,0.00032467040000483394,0.00007702334551140666,-0.0011424478143453598
1772643963920360400,5.2133603515625,0.0008935216465033591,-0.00006652099546045065,0.0005534531082957983
1772643963930401500,5.223401611328125,0.00030208774842321873,0.0007223465945571661,-0.00015644915401935577
1772643963940442600,5.233442626953125,-0.0008947368478402495,0.00024803756969049573,-0.0002858787775039673
1772643963950483500,5.2434833984375,0.0005756086902692914,0.0003373456420376897,0.0000731530599296093
1772643963960523500,5.2535234375,-0.0012593092396855354,0.0007597229559905827,-0.00021233782172203064
1772643963970563800,5.263563720703125,0.0011248828377574682,-0.0008252675179392099,0.0004428492393344641
1772643963980605000,5.27360498046875,-0.0004700843128375709,-0.0010982415406033397,0.000469747232273221
1772643963990645800,5.283645751953125,0.0002546680043451488,0.0005691621918231249,0.0007093304302543402
1772643964000686800,5.293686767578125,-0.00036451691994443536,0.0013436094159260392,0.0004507375415414572
1772643964010727000,5.303726806640625,0.00032515189377591014,0.00010063208173960447,-0.000059785088524222374
1772643964020768000,5.31376806640625,-0.00042532692896202207,0.00022393639665096998,0.0004355628043413162
1772643964030808800,5.323808837890625,-0.001911710249260068,-0.0004474635934457183,-0.0002981817815452814
1772643964040850000,5.333849853515625,0.0012270912993699312,0.0005189974908716977,0.0012389948824420571
1772643964050891000,5.34389111328125,0.0007109414436854422,0.0003109034732915461,-0.000724525423720479
1772643964060931800,5.353931884765625,-0.0003945367061533034,0.0009929389925673604,-0.0005863073747605085
1772643964070972000,5.363971923828125,0.0002944176085293293,0.0003974802093580365,0.0005486038280650973
1772643964081013000,5.374012939453125,-0.00007735972758382559,0.0006704542320221663,-0.0001432853750884533
1772643964091054000,5.38405419921875,-0.0006673911702819169,-0.0010100927902385592,0.00034468923695385456
1772643964101095000,5.394094970703125,0.0003701763926073909,0.0006264196708798409,0.000027506845071911812
1772643964111136000,5.404135986328125,-0.0008963568834587932,-0.0005691804690286517,-0.000048447633162140846
1772643964121176800,5.4141767578125,0.00020166439935564995,-0.00003281980752944946,0.0006724700797349215
1772643964131217000,5.424216796875,0.00013970216969028115,0.0004451954155229032,-0.00019021844491362572
1772643964141258000,5.434258056640625,0.0002571475924924016,-0.0018621673807501793,0.0003967422526329756
1772643964151299000,5.444299072265625,0.0015045343898236752,0.00019369699293747544,0.000579648301936686
1772643964161340000,5.45433984375,-0.001119744498282671,0.00010075268801301718,-0.0005260962061583996
1772643964171381000,5.464381103515625,-0.0008088268805295229,-0.0007301878649741411,0.0007709930650889874
1772643964181422000,5.474422119140625,-0.0018695640610530972,0.00040431879460811615,0.0007574108894914389
1772643964191462000,5.4844619140625,0.0003729206509888172,-0.0005200689192861319,0.0012353589991107583
1772643964201502700,5.494502685546875,0.00009169080294668674,-0.000737116439267993,0.0005059191025793552
1772643964211543800,5.504543701171875,-0.002347867237403989,0.000017865386325865984,0.0008229271043092012
1772643964221585000,5.5145849609375,0.0007821460021659732,-0.0004937277990393341,-0.0001411372795701027
1772643964231625700,5.524625732421875,-0.0005520834238268435,-0.0014318040339276195,-0.001053695334121585
1772643964241666800,5.534666748046875,0.0000010551884770393372,-0.0007063589291647077,-0.001101099420338869
1772643964251707000,5.544706787109375,-0.000017886050045490265,0.0005497762467712164,0.0013153761392459273
1772643964261747700,5.554747802734375,0.0009653529850766063,0.00030955910915508866,-0.0008005052804946899
1772643964271788800,5.564788818359375,-0.0008322491776198149,0.0030863448046147823,-0.001105261966586113
1772643964281830000,5.574829833984375,0.0010455456795170903,0.000139823358040303,-0.0001198924146592617
1772643964291870700,5.58487060546875,-0.0008561500580981374,0.0014631683006882668,-0.0004466113168746233
1772643964301910800,5.594910888671875,-0.000012726988643407822,-0.00008945458102971315,-0.000526239862665534
1772643964311952000,5.604951904296875,0.00041316598071716726,-0.001208948320709169,0.0004300156142562628
1772643964321993000,5.614992919921875,-0.0007623533019796014,0.0007958794012665749,0.000501920934766531
1772643964332033800,5.62503369140625,0.00030378205701708794,-0.0002589205396361649,-0.0018048319034278393
1772643964342075000,5.635074951171875,0.00047236017417162657,0.001356553053483367,0.0008945481386035681
1772643964352116000,5.645115966796875,-0.0007058135233819485,0.00028376729460433125,0.0008999028941616416
1772643964362156800,5.65515673828125,-0.000002738961484283209,-0.00063022953690961,0.0014599657151848078
1772643964372198000,5.665197998046875,-0.001027656951919198,0.0002964170998893678,-0.0010080572683364153
1772643964382238000,5.675238037109375,0.00020565290469676256,0.0011616781121119857,-0.0005731629207730293
1772643964392278800,5.68527880859375,0.0006998479948379099,0.00025109900161623955,-0.0010553947649896145
1772643964402320000,5.69531982421875,-0.0009595676092430949,0.0010186219587922096,0.00035102060064673424
1772643964412361000,5.70536083984375,-0.0002729552797973156,0.00014629476936534047,0.0006323909619823098
1772643964422401800,5.71540185546875,0.00013583985855802894,-0.00071816734271124,0.000995379756204784
1772643964432441900,5.72544189453125,-0.0004935305914841592,0.0004553643229883164,-0.0001107943244278431
1772643964442483000,5.73548291015625,-0.00029485876439139247,0.000958169111981988,0.000034081749618053436
1772643964452524000,5.74552392578125,-0.0007876009913161397,-0.0006917972350493073,0.0006004672031849623
1772643964462564900,5.75556494140625,-0.0010970602743327618,-0.00039405585266649723,0.00031071528792381287
1772643964472606000,5.76560595703125,0.00047812104457989335,-0.00024342740653082728,-0.0020096891093999147
1772643964482647000,5.77564697265625,-0.000156510213855654,0.000007442315109074116,-0.00136333960108459
1772643964492687000,5.78568701171875,-0.0005856947973370552,-0.0009107672958634794,0.0002134938258677721
1772643964502728000,5.79572802734375,0.000527506519574672,-0.00018319167429581285,0.0000699495431035757
1772643964512769000,5.80576904296875,0.00011142902076244354,0.0018466366454958916,-0.0018077986314892769
1772643964522809900,5.815809814453125,-0.0013823378831148148,-0.00010492774890735745,-0.00026289885863661766
1772643964532851000,5.825850830078125,0.0009151656413450837,0.0006920818705111742,-0.0009123301133513451
1772643964542892000,5.83589208984375,-0.00024890201166272163,-0.000027504225727170706,-0.00012483331374824047
1772643964552932000,5.84593212890625,0.00020461156964302063,-0.0012805736623704433,0.0008807041449472308
1772643964562973000,5.855972900390625,-0.00098715303465724,0.0010845796205103397,0.00047643634025007486
1772643964573014000,5.866013916015625,0.00016354379476979375,-0.0001961914822459221,-0.0015487775672227144
1772643964583055000,5.87605517578125,-0.0007067772094160318,-0.0002135019749403,-0.000011601019650697708
1772643964593096000,5.886095947265625,-0.0006400374113582075,0.00019333482487127185,0.0002841032110154629
1772643964603137000,5.896136962890625,-0.00028610328445211053,0.000436215108493343,-0.0006892820820212364
1772643964613176800,5.9061767578125,-0.0010520678479224443,-0.00004832661943510175,0.0007450856501236558
1772643964623218000,5.916218017578125,-0.0011151847429573536,-0.001485634595155716,0.0008132625371217728
1772643964633258800,5.9262587890625,0.00023227615747600794,-0.00044336053542792797,0.00009156041778624058
1772643964643299800,5.9362998046875,-0.000916078919544816,-0.000007400987669825554,-0.0007433404680341482
1772643964653341000,5.9463408203125,0.00032707006903365254,-0.00026866019470617175,0.001104546943679452
1772643964663381800,5.9563818359375,0.0017649107612669468,0.00029060360975563526,0.0006936212303116918
1772643964673421800,5.966421875,-0.0012388406321406364,-0.0008289454854093492,-0.0006578352767974138
1772643964683463000,5.976462890625,-0.000990634085610509,-0.00005476456135511398,0.0018729667644947767
1772643964693503700,5.986503662109375,0.0003371082420926541,0.0006128150271251798,0.0007266901666298509
1772643964703544800,5.996544921875,0.000036969955544918776,0.00017179560381919146,0.000703787081874907
1772643964713586000,6.0065859375,-0.0019810358062386513,0.0002634712145663798,0.0007866662926971912
1772643964723626000,6.0166259765625,0.0005582883022725582,-0.0009061891469173133,-0.0009553073905408382
1772643964733666800,6.026666748046875,-0.00043707783333957195,0.0010122647508978844,-0.0011219095904380083
1772643964743708000,6.0367080078125,-0.0004298873245716095,-0.0005675223655998707,-0.0009317600633949041
1772643964753749000,6.0467490234375,0.000050573202315717936,0.0009494235273450613,0.0008809786522760987
1772643964763789800,6.056789794921875,-0.0008916531223803759,-0.001077774679288268,-0.0002559248823672533
1772643964773831000,6.066830810546875,-0.00003541918704286218,0.0010389983654022217,-0.0004347458016127348
1772643964783871000,6.07687109375,-0.0005025375867262483,0.0003305975697003305,-0.0008539273403584957
1772643964793911800,6.086911865234375,-0.00012111308751627803,0.00039415108039975166,0.00040966342203319073
1772643964803953000,6.096952880859375,-0.0012122101616114378,-0.00010599056258797646,-0.00034054904244840145
1772643964813994000,6.106993896484375,-0.0014469128800556064,-0.00012694543693214655,0.00141160620842129
1772643964824034800,6.117034912109375,-0.00004848709795624018,0.0004200678667984903,-0.0000033311080187559128
1772643964834075000,6.127074951171875,0.0006519369781017303,0.0006492336979135871,-0.000701758312061429
1772643964844116000,6.137115966796875,0.00015685532707720995,-0.0013848886592313647,0.0010886848904192448
1772643964854157000,6.147156982421875,0.00009224592940881848,-0.0009274213807657361,-0.0003317424561828375
1772643964864198000,6.157197998046875,0.0005457822699099779,-0.000346852233633399,0.000013935845345258713
1772643964874239000,6.167239013671875,0.0008337134495377541,0.000294534838758409,-0.0008754660375416279
1772643964884280000,6.177280029296875,0.000274183286819607,0.0006466047489084303,0.0007333495886996388
1772643964894320000,6.187320068359375,0.0006450212094932795,-0.0002942693536169827,0.001626745332032442
1772643964904361000,6.19736083984375,-0.00027510093059390783,0.0007717940025031567,-0.0002507832832634449
1772643964914402000,6.207402099609375,-0.00011115992674604058,-0.0003061036695726216,0.0015452062943950295
1772643964924443000,6.21744287109375,-0.000642194296233356,0.0004222708521410823,0.0009704962139949203
1772643964934484000,6.22748388671875,0.0001763323089107871,0.00047753684339113533,0.0012899469584226608
1772643964944525000,6.237525146484375,-0.0003951821126975119,-0.0002292660647071898,-0.0008227387443184853
1772643964954564900,6.24756494140625,0.0006507893558591604,0.00001914077438414097,-0.0006831141654402018
1772643964964606700,6.257606689453125,0.0004941954975947738,-0.0003433154197409749,-0.0006799183320254087
1772643964974647800,6.267647705078125,0.0003505159402266145,-0.00018409790936857462,0.0008263741619884968
1772643964984688600,6.277688720703125,0.00018140522297471762,-0.00009781145490705967,-0.00019068713299930096
1772643964994729700,6.287729736328125,-0.00040896423161029816,-0.00034837209386751056,-0.0011079362593591213
1772643965004770800,6.297770751953125,-0.00030589988455176353,0.00067960808519274,-0.000146535225212574
1772643965014811000,6.307810791015625,-0.00009345990838482976,-0.0009126376826316118,0.0002826994750648737
1772643965024851700,6.317851806640625,-0.000528354081325233,-0.0007134332554414868,0.00011998042464256287
1772643965034892800,6.327892822265625,-0.00024546519853174686,0.0003792569041252136,-0.0008532137144356966
1772643965044934000,6.337933837890625,0.001125530106946826,0.0007632847409695387,-0.0002579973079264164
1772643965054974700,6.347974609375,-0.0008139149285852909,-0.0011089728213846684,0.0011609072098508477
1772643965065014500,6.3580146484375,0.0002470883773639798,0.00020050333114340901,-0.00034297979436814785
1772643965075055600,6.3680556640625,-0.0004390138201415539,0.00037175591569393873,-0.0016828898806124926
1772643965085096700,6.3780966796875,-0.0006414140807464719,-0.0005627473001368344,-0.0009731573518365622
1772643965095137500,6.388137451171875,0.00010924349771812558,0.0007196180522441864,-0.0002420439850538969
1772643965105178600,6.3981787109375,0.0011406857520341873,0.0005217451835051179,-0.0021667105611413717
1772643965115219700,6.4082197265625,-0.0010030679404735565,0.00007451558485627174,0.0006457231938838959
1772643965125259500,6.418259521484375,0.000830784672871232,-0.000349992245901376,-0.0001641439739614725
1772643965135300600,6.428300537109375,0.0015591373667120934,0.0018268125131726265,0.000005322275683283806
1772643965145341700,6.438341796875,-0.0003863018937408924,-0.0001567099243402481,-0.00027777161449193954
1772643965155382500,6.448382568359375,-0.0009745306451804936,0.0003961334004998207,-0.0024893435183912516
1772643965165423600,6.458423583984375,0.0011115234810858965,-0.00022171990713104606,0.000537605257704854
1772643965175464700,6.468464599609375,0.00037170571158640087,0.0007499931380152702,-0.00002356385812163353
1772643965185504800,6.4785048828125,-0.0004480152274481952,-0.0009901162702590227,0.0007247844478115439
1772643965195545600,6.488545654296875,-0.0010227123275399208,-0.00023832585429772735,0.0008036938961595297
1772643965205586700,6.498586669921875,0.00037944200448691845,-0.0008183622849173844,0.0005525577580556273
1772643965215627800,6.508627685546875,-0.00043802481377497315,-0.00019592541502788663,0.0006239525973796844
1772643965225668600,6.518668701171875,-0.0007884968654252589,-0.0005874101188965142,0.000019681407138705254
1772643965235708700,6.528708740234375,-0.0003928187070414424,-0.0005672856350429356,-0.00010452861897647381
1772643965245749800,6.538749755859375,-0.0003028038190677762,-0.0005875257193110883,-0.0007836348377168179
1772643965255790600,6.54879052734375,0.0005474678473547101,0.0008569046040065587,-0.0008912174962460995
1772643965265831700,6.558831787109375,-0.001850975095294416,-0.00003418908454477787,-0.0011884262785315514
1772643965275872800,6.568872802734375,0.0012050708755850792,0.000732468324713409,-0.000028001610189676285
1772643965285913600,6.57891357421875,-0.0010194675996899605,-0.0005530395428650081,-0.0005699549801647663
1772643965295953700,6.58895361328125,-0.00010251894127577543,-0.0015799247194081545,0.00010181614197790623
1772643965305994800,6.598994873046875,0.0006479598814621568,0.0004874871810898185,0.00010075094178318977
1772643965316035800,6.609035888671875,-0.00018503522733226418,-0.000021837069652974606,0.0010959755163639784
1772643965326076700,6.61907666015625,-0.0016657526139169931,-0.0002649836242198944,0.0004296526312828064
1772643965336117800,6.62911767578125,-0.0002723771031014621,-0.00093070202274248,0.0009464090690016747
1772643965346157800,6.63915771484375,-0.0010044800583273172,0.00011352344881743193,-0.001268541906028986
1772643965356199000,6.649198974609375,-0.0008073515491560102,-0.0004675722448155284,0.0003875838592648506
1772643965366239700,6.65923974609375,-0.0004547489807009697,0.0016246071318164468,0.0006301976973190904
1772643965376280800,6.66928076171875,0.0006533404812216759,0.0004944890970364213,-0.0005989822093397379
1772643965386321700,6.67932177734375,-0.0009267129935324192,-0.001219254918396473,-0.0011063143610954285
1772643965396362800,6.68936279296875,-0.0012845402816310525,-0.0006716683856211603,-0.0003204410895705223
1772643965406402600,6.699402587890625,0.000847320188768208,-0.0002468942548148334,-0.00016651046462357044
1772643965416443600,6.709443603515625,0.002216824796050787,0.00011189724318683147,0.000560466549359262
1772643965426484500,6.719484375,-0.0009667179547250271,-0.0011749421246349812,0.00016844924539327621
1772643965436525600,6.729525634765625,0.00029854680178686976,-0.0009122046758420765,0.0011549812043085694
1772643965446566700,6.739566650390625,-0.002447172300890088,-0.00018010166240856051,0.0011773518053814769
1772643965456607700,6.749607666015625,0.0008709690882824361,0.0007001754129305482,0.0005199670558795333
1772643965466647600,6.7596474609375,0.00046536969603039324,-0.0005107639590278268,-0.00018816743977367878
1772643965476688600,6.769688720703125,0.0006828593323007226,0.0006539017776958644,-0.0010098670609295368
1772643965486729700,6.779729736328125,-0.0009792194468900561,0.0009175547165796161,-0.0003584579098969698
1772643965496770600,6.7897705078125,-0.00020012026652693748,-0.000424438389018178,-0.0007573410402983427
1772643965506811600,6.799811767578125,0.0002278496976941824,0.0005934217479079962,0.0003502678591758013
1772643965516851700,6.809851806640625,-0.00034998415503650904,-0.0004464341909624636,0.00047800166066735983
1772643965526892500,6.819892578125,-0.00009511969983577728,0.0008816842455416918,-0.0002543677110224962
1772643965536933600,6.82993359375,-0.0001317232963629067,-0.00038595707155764103,0.0006845761090517044
1772643965546974700,6.839974609375,-0.0006276039057411253,0.0015533568803220987,0.000276047270745039
1772643965557015600,6.850015625,-0.0005598858115263283,0.0001772299874573946,0.000603698892518878
1772643965567056600,6.860056640625,-0.000728463928680867,-0.0013634087517857552,-0.0001323989126831293
1772643965577096700,6.8700966796875,-0.0009624987724237144,-0.0008602460147812963,0.00122318125795573
1772643965587137800,6.8801376953125,-0.00009563984349370003,-0.00038993172347545624,0.0017398345516994596
1772643965597178600,6.8901787109375,-0.0004011603305116296,-0.0019611516036093235,-0.0015367933083325624
1772643965607219700,6.9002197265625,-0.00045815191697329283,0.00007936230394989252,0.0013303658924996853
1772643965617260800,6.9102607421875,0.0006545183132402599,0.0002988835913129151,-0.0007115441840142012
1772643965627301600,6.920301513671875,-0.0019231552723795176,-0.0007336239796131849,0.0019050117116421461
1772643965637341700,6.930341796875,0.0016185457352548838,-0.00018918333807960153,-0.00003840262070298195
1772643965647382800,6.9403828125,0.0007506216061301529,0.0009485190385021269,0.0021395303774625063
1772643965657423600,6.950423583984375,-0.0002853875048458576,-0.0008171614608727396,-0.0006414644885808229
1772643965667464700,6.960464599609375,0.00033699325285851955,-0.0005380622460506856,0.0005742686334997416
1772643965677505800,6.970505859375,-0.00024399644462391734,0.0006726841093041003,-0.0006409476045519114
1772643965687545900,6.9805458984375,-0.0002647691289894283,0.00032833736622706056,-0.0005820917431265116
1772643965697586700,6.990586669921875,-0.0002585911424830556,0.000304605346173048,0.0011250494280830026
1772643965707627800,7.000627685546875,-0.0007030727574601769,0.0016697417013347149,-0.00034687970764935017
1772643965717668900,7.0106689453125,-0.0002564885653555393,0.0009836409008130431,0.0007754277903586626
1772643965727709700,7.020709716796875,0.00039492067298851907,0.0005271751433610916,-0.0011977083049714565
1772643965737750800,7.030750732421875,-0.0007463661604560912,-0.0007988051511347294,-0.0007989888545125723
1772643965747790800,7.040790771484375,-0.00011439801892265677,0.00039109529461711645,-0.0003052388783544302
1772643965757832000,7.05083203125,-0.00020842032972723246,0.00013763911556452513,-0.00014738133177161217
1772643965767872800,7.060872802734375,-0.00016634236089885235,0.0006494986591860652,0.0008454452035948634
1772643965777913900,7.070913818359375,0.001523070503026247,0.0006907718488946557,-0.0016289586201310158
1772643965787954700,7.08095458984375,-0.0003323537530377507,0.00009315850911661983,0.000809697899967432
1772643965797994500,7.090994384765625,0.0005291896522976458,-0.00010866299271583557,-0.00013067619875073433
1772643965808035600,7.10103564453125,0.00024289987049996853,0.00031078484607860446,-0.0009400108829140663
1772643965818076700,7.11107666015625,0.00009004311868920922,-0.00030407856684178114,-0.0004680932033807039
1772643965828117500,7.121117431640625,-0.0007856042357161641,0.00015797984087839723,0.00020701810717582703
1772643965838158600,7.13115869140625,-0.0007310360088013113,0.0002536911051720381,-0.0007105802651494741
1772643965848199700,7.14119970703125,0.0009539459715597332,-0.0006613710429519415,-0.000051181530579924583
1772643965858239700,7.15123974609375,0.00023969064932316542,0.00021749257575720549,-0.000004238449037075043
1772643965868280600,7.161280517578125,-0.00004819710738956928,-0.0004994303453713655,-0.00047322106547653675
1772643965878321700,7.17132177734375,0.0003746586153283715,-0.00016588752623647451,-0.00021827546879649162
1772643965888362800,7.18136279296875,-0.00017634942196309566,-0.00083114521112293,0.0016869499813765287
1772643965898403600,7.191403564453125,0.0010312773520126939,0.00018174696015194058,-0.00029207044281065464
1772643965908443600,7.201443603515625,-0.0004776696441695094,-0.0008355805184692144,-0.00045292521826922894
1772643965918484700,7.211484619140625,0.0011348107364028692,0.00019295007223263383,-0.0007589992601424456
1772643965928525600,7.221525634765625,-0.0004921143408864737,0.0001751069212332368,0.0008823068346828222
1772643965938566700,7.231566650390625,0.0010039617773145437,0.0009857355616986752,-0.0005342601798474789
1772643965948607700,7.241607666015625,0.002849265933036804,0.0010706904577091336,-0.0011877999641001225
1772643965958648600,7.251648681640625,0.0012629454722627997,0.0004967081476934254,-0.0004970519803464413
1772643965968688000,7.261688232421875,-0.0004337544087320566,8.275965228676796e-7,-0.0014968025498092175
1772643965978729200,7.271729248046875,0.0009447886841371655,0.00022817286662757397,0.00043870951049029827
1772643965988770300,7.281770263671875,0.0010095034958794713,0.00023376545868813992,0.0004568189615383744
1772643965998811100,7.29181103515625,0.0011872765608131886,-0.00018960877787321806,-0.00063892244361341
1772643966008852200,7.301852294921875,0.00012334372149780393,0.0011044212151318789,0.0003808019682765007
1772643966018893300,7.311893310546875,-0.00009459746070206165,-0.00004629860632121563,0.0003007699269801378
1772643966028933000,7.32193310546875,0.0006199286435730755,-0.001481742481701076,-0.0006132270209491253
1772643966038974000,7.331973876953125,0.0012133552227169275,-0.0001495900796726346,-0.0006363647989928722
1772643966049015000,7.34201513671875,-0.00041942880488932133,-0.0008087224559858441,0.0005561987636610866
1772643966059056000,7.35205615234375,0.0016204945277422667,-0.000152026885189116,-0.00016674073413014412
1772643966069097000,7.362096923828125,-0.00010203802958130836,0.0002695515286177397,-0.0004889832343906164
1772643966079137000,7.372136962890625,0.0010714129311963916,-0.0006608584662899375,-0.0010262280702590942
1772643966089178000,7.38217822265625,-0.00031982234213501215,0.000010258168913424015,-0.0007668361067771912
1772643966099219200,7.39221923828125,0.0017875689081847668,-0.0005766673712059855,-0.00007876218296587467
1772643966109260000,7.402260009765625,0.0004895442398265004,0.0005740845226682723,0.0006011428777128458
1772643966119301000,7.412301025390625,0.0005048477905802429,-0.000305324443615973,-0.000023996923118829727
1772643966129342000,7.422342041015625,0.00013440207112580538,0.00024808035232126713,-0.00033345608972012997
1772643966139382000,7.432382080078125,-0.0005418078508228064,-0.0006787569727748632,-0.0005926869343966246
1772643966149423000,7.442423095703125,-0.0004693698137998581,0.0002669315435923636,-0.0005487448070198298
1772643966159464200,7.452464111328125,0.0008551659411750734,-0.000555709470063448,-0.00029963022097945213
1772643966169505000,7.462505126953125,0.0003598179901018739,-0.0013970020227134228,-0.00012998678721487522
1772643966179546000,7.472546142578125,-0.0004855315200984478,0.0011048982851207256,0.00004557124339044094
1772643966189586200,7.482586181640625,-0.0001505059190094471,0.0004335154080763459,-0.0008950573392212391
1772643966199627300,7.492627197265625,0.000008006347343325615,-0.000132804736495018,0.001322740106843412
1772643966209668000,7.502668212890625,-0.000288403476588428,0.0008871859754435718,0.0008601490408182144
1772643966219709200,7.512709228515625,0.0015263105742633343,0.0003507797373458743,0.0007942587835714221
1772643966229750300,7.522750244140625,0.0017313739517703652,0.0004285440663807094,0.00010183686390519142
1772643966239791000,7.532791015625,0.0013419210445135832,0.00016841304022818804,-0.0006162028294056654
1772643966249831200,7.5428310546875,-0.00007088587153702974,-0.0009826051536947489,0.0009305611019954085
1772643966259872300,7.552872314453125,0.0005040507530793548,-0.00014807377010583878,0.0003558066673576832
1772643966269913000,7.5629130859375,0.0002443925477564335,-0.0006929566152393818,-0.0000308845192193985
1772643966279954200,7.5729541015625,-0.0015370316104963422,0.0013351517263799906,0.0007001073099672794
1772643966289995300,7.582995361328125,0.0011652777902781963,-0.0008632877143099904,-0.0007126997224986553
1772643966300035300,7.593035400390625,0.0005947033641859889,0.0006879079155623913,-0.0003043061587959528
1772643966310076200,7.603076171875,0.0006799245020374656,-0.00013926997780799866,-0.0004976517520844936
1772643966320117200,7.6131171875,0.0012926068156957626,-0.0013168815057724714,-0.000801237067207694
1772643966330158300,7.623158447265625,-0.0001345811178907752,0.0006783587741665542,-0.0006140167824923992
1772643966340199200,7.63319921875,0.00008892209734767675,-0.00038315559504553676,-0.0004744448233395815
1772643966350240300,7.643240234375,0.00025377178099006414,-0.000012443575542420149,-0.0008914957288652658
1772643966360280300,7.6532802734375,0.00028593698516488075,-0.0004581825342029333,0.0014086102601140738
1772643966370321200,7.663321044921875,-0.00040888169314712286,-0.0002959959674626589,0.0004884882364422083
1772643966380362200,7.6733623046875,-0.00024566089268773794,0.0004664247389882803,0.0001153347548097372
1772643966390403300,7.6834033203125,-0.000023819622583687305,-0.0008795368485152721,0.000787783064879477
1772643966400444200,7.693444091796875,0.00014285463839769363,0.0007795161800459027,-0.0012343553826212883
1772643966410484000,7.70348388671875,-0.00041134911589324474,0.00024155766004696488,0.00040455383714288473
1772643966420525000,7.713525146484375,0.0015752867329865694,0.00006214372115209699,-0.0002865171991288662
1772643966430566100,7.723566162109375,0.0009297365322709084,0.00009250373113900423,-0.0007155523635447025
1772643966440607000,7.73360693359375,-0.00023550796322524548,0.00023530633188784122,0.000030392315238714218
1772643966450648000,7.74364794921875,-0.0006488305516541004,0.00024968740763142705,-0.0009581730701029301
1772643966460689200,7.753689208984375,-0.0006369486218318343,-0.0011912310728803277,0.00021899095736443996
1772643966470729200,7.763729248046875,-0.0003812852082774043,-0.0007217156235128641,-0.001116317929700017
1772643966480770000,7.77377001953125,-0.0012639283668249846,-0.0008388310088776052,-0.00047160242684185505
1772643966490811100,7.78381103515625,-0.0008476763032376766,-0.0009221879881806672,-0.0009738747030496597
1772643966500852200,7.793852294921875,-0.0015396573580801487,0.0006988461245782673,0.0011653010733425617
1772643966510893000,7.80389306640625,-0.0008352512959390879,0.0013246890157461166,0.00003026193007826805
1772643966520934100,7.81393408203125,0.00020535296062007546,0.00010804820340126753,-0.0009306177962571383
1772643966530974200,7.82397412109375,-0.0013533951714634895,-0.0006150000263005495,-0.0002781434450298548
1772643966541015000,7.83401513671875,-0.001243162085302174,0.0005741045461036265,-0.00004234304651618004
1772643966551056100,7.84405615234375,0.0006386274471879005,0.0010923556983470917,0.0019848551601171494
1772643966561097200,7.85409716796875,-0.0004895993042737246,0.0006515764980576932,0.0008104202570393682
1772643966571138000,7.864137939453125,-0.00019931478891521692,0.0006726154824718833,-0.0005656350404024124
1772643966581178000,7.87417822265625,0.0005263646598905325,0.0004546485433820635,0.00010268623009324074
1772643966591219200,7.88421923828125,0.00014233682304620743,0.000591535004787147,-0.0006304818671196699
1772643966601260300,7.89426025390625,-0.00006305042188614607,0.00029971421463415027,-0.001012733904644847
1772643966611301000,7.904301025390625,-0.000019374536350369453,0.0003218184574507177,0.000876246253028512
1772643966621342200,7.91434228515625,-0.000807348289526999,-0.0009958497248589993,-0.000019912375137209892
1772643966631382300,7.92438232421875,0.0010241075651720166,0.0003210833529010415,0.00048156094271689653
1772643966641423000,7.934423095703125,0.0010742355370894074,-0.0003127425443381071,0.0011136906687170267
1772643966651464200,7.944464111328125,-0.00021233747247606516,-0.0002381739905104041,0.001370153040625155
1772643966661505300,7.95450537109375,0.001008601044304669,-0.000007350696250796318,-0.00039616948924958706
1772643966671546000,7.964546142578125,-0.000412994297221303,0.0005425920826382935,-0.001092053484171629
1772643966681587200,7.974587158203125,-0.0010797891300171614,-0.00020131742348894477,-0.0010178275406360626
1772643966691627300,7.984627197265625,0.0005916106747463346,-0.00024818902602419257,-0.0015869447961449623
1772643966701668400,7.99466845703125,-0.0001817699521780014,0.00007685524178668857,-0.0007639394607394934
1772643966711709200,8.004709228515624,-0.0003652616869658232,0.00007951841689646244,0.00018680887296795845
1772643966721750300,8.014750244140625,0.000018212012946605682,-0.0012495307018980384,-0.0005249958485364914
1772643966731791400,8.024791259765625,0.00006881204899400473,0.00039017750532366335,0.00016156700439751148
1772643966741831200,8.0348310546875,-0.000013096374459564686,0.0007185653666965663,0.0003283030819147825
1772643966751872000,8.0448720703125,0.0011717439629137516,-0.0008412481402046978,0.00032430817373096943
1772643966761913000,8.0549130859375,-0.00028955982998013496,0.00014986027963459492,0.0004636738449335098
1772643966771954200,8.0649541015625,-0.00014628178905695677,-0.002259235130622983,0.0006780583644285798
1772643966781995000,8.0749951171875,0.0007742482121102512,0.0001743492903187871,-0.00008177338168025017
1772643966792036000,8.0850361328125,0.0021297973580658436,-0.0010312637314200401,0.0014026727294549346
1772643966802076200,8.095076171875,0.0003919529845006764,0.00040810767677612603,0.0015296631027013063
1772643966812117000,8.105116943359375,0.0016183386323973536,-0.00003264547558501363,-0.0005686415825039148
1772643966822158000,8.115157958984375,0.0011657298309728503,-0.0002170448424294591,0.0012011441867798567
1772643966832199200,8.12519921875,0.00011591176735237241,0.00022450723918154836,0.00013561337254941463
1772643966842240000,8.135239990234375,-0.0004896862665191293,-0.0008579124114476144,0.0009805430890992284
1772643966852280000,8.145280029296876,-0.0013885030057281256,0.0003168079419992864,0.0016801555175334215
1772643966862321200,8.155321044921875,0.000028668553568422794,0.00048646313371136785,-0.00041503855027258396
1772643966872362200,8.1653623046875,0.00026276044081896544,0.00017460697563365102,0.0002736549358814955
1772643966882403000,8.175403076171875,0.001858860719949007,-0.0005858392105437815,0.0012035717954859138
1772643966892444200,8.185444091796874,-0.000619743368588388,-0.0011312544811517,-0.0007322798483073711
1772643966902485200,8.1954853515625,-0.0006425523897632957,0.000390595116186887,-0.0008647188078612089
1772643966912525000,8.205525146484375,0.00033243087818846107,-0.0007178124506026506,0.0015214735176414251
1772643966922566100,8.215566162109376,-0.00018879061099141836,-0.0001286701881326735,-0.000844490947201848
1772643966932607200,8.225607177734375,-0.0008314113365486264,0.00021780707174912095,0.0000223678071051836
1772643966942648000,8.23564794921875,0.0014772306894883513,-0.0008013963233679533,0.00026285508647561073
1772643966952689200,8.245689208984375,-0.00027646077796816826,0.00001193309435620904,-0.00016191904433071613
1772643966962729200,8.255729248046874,0.000221074849832803,-0.0005129030323587358,0.00042958464473485947
1772643966972770300,8.265770263671875,0.000131858978420496,0.00024157052394002676,-0.0012841594871133566
1772643966982811100,8.27581103515625,-0.0005834163166582584,-0.0002922185231000185,-0.0000937003642320633
1772643966992852200,8.285852294921876,0.0002083414001390338,0.0004398844321258366,0.0011787578696385026
1772643967002893300,8.295893310546875,0.0011115603847429156,0.000567908282391727,-0.000002445187419652939
1772643967012934100,8.30593408203125,0.00145777128636837,0.0007777653518132865,-0.0002477222587913275
1772643967022974200,8.31597412109375,-0.000008722767233848572,-0.0004989728331565857,0.000053126364946365356
1772643967033015300,8.326015380859374,-0.0012058137217536569,-0.0006632899167016149,-0.000501343747600913
1772643967043056000,8.33605615234375,0.0019854684360325336,0.00031778833363205194,-0.0003347697202116251
1772643967053097200,8.34609716796875,-0.0015701178926974535,-0.0016540160868316889,-0.000023712636902928352
1772643967063138300,8.35613818359375,0.0008172424859367311,-0.0002246332005597651,-0.0007275077514350414
1772643967073178400,8.366178466796875,0.0005218979204073548,-0.0002936090459115803,-0.0006814352236688137
1772643967083219200,8.37621923828125,-0.0009480712469667196,0.0006457098643295467,-0.00035340525209903717
1772643967093260300,8.38626025390625,0.0005164010217413306,0.0005722065689042211,-0.0005664580967277288
1772643967103301400,8.39630126953125,-0.00030981702730059624,-0.00047309190267696977,-0.0005033344496041536
1772643967113342200,8.40634228515625,-0.0008728093234822154,-0.00012741360114887357,0.0000173135194927454
1772643967123383300,8.41638330078125,-0.000475994311273098,-0.0005397511995397508,0.00047920155338943005
1772643967133423400,8.42642333984375,-0.001011822372674942,-0.00015066337073221803,0.0004584288690239191
1772643967143464400,8.43646435546875,0.0005305787781253457,0.0011005083797499537,0.0003967336378991604
1772643967153505300,8.44650537109375,-0.0003024579491466284,0.00048824763507582247,0.00024866173043847084
1772643967163546400,8.45654638671875,-0.0010161842219531536,-0.0003534167190082371,-0.00012392550706863403
1772643967173587200,8.466587158203126,0.0015276671620085835,0.00027029565535485744,0.0005645016208291054
1772643967183627300,8.476627197265625,0.00017518759705126286,-0.00048183149192482233,-0.000517185777425766
1772643967193668400,8.48666845703125,0.0004657384706661105,0.0008875659550540149,-0.0007430219557136297
1772643967203709400,8.49670947265625,-0.0007090041181072593,0.0006633459706790745,0.00013474700972437859
1772643967213750300,8.506750244140624,-0.00038303318433463573,-0.0010083202505484223,0.001445022295229137
1772643967223791400,8.516791259765625,0.0016197455115616322,-0.00007189367897808552,0.000855913502164185
1772643967233831200,8.5268310546875,0.0008234603446908295,-0.0011834970209747553,0.00013845786452293396
1772643967243872300,8.536872314453126,-0.0005557462573051453,0.000038655707612633705,0.0006324928253889084
1772643967253913000,8.5469130859375,0.00005624810000881553,-0.0005009006708860397,-0.0005851045716553926
1772643967263954400,8.556954345703126,-0.000011675641871988773,0.0011078764218837023,-0.00015367032028734684
1772643967273995500,8.56699560546875,-0.000571738462895155,-0.00027989677619189024,0.0011422238312661648
1772643967284036400,8.577036376953124,0.00198486540466547,-0.00016496668104082346,0.00006261072121560574
1772643967294076200,8.587076171875,0.00045274902367964387,0.00024302961537614465,0.0014218881260603666
1772643967304117200,8.5971171875,-0.00018410140182822943,0.00042627856601029634,-0.00046469015069305897
1772643967314158000,8.607157958984375,-0.00042884598951786757,0.0003818037803284824,0.0000940409954637289
1772643967324199200,8.61719921875,-0.0018522313330322504,0.00047981610987335443,0.00022188294678926468
1772643967334240300,8.627240234375,-0.0012721947859972715,-0.00044776289723813534,-0.0009885237086564302
1772643967344280300,8.6372802734375,-0.00017767422832548618,-0.0010458386968821287,0.0007850914262235165
1772643967354321200,8.647321044921876,0.00007479341002181172,0.0007509961724281311,0.00048388796858489513
1772643967364362200,8.6573623046875,0.0002820624504238367,0.0005963722942396998,-0.0013102253433316946
1772643967374403300,8.6674033203125,0.0016019251197576523,-0.00027714448515325785,0.0009185741655528545
1772643967384444200,8.677444091796875,0.0003017491544596851,0.0014827949926257133,0.0004556272178888321
1772643967394484200,8.687484130859374,-0.0006860173307359219,0.0005256548756733537,0.000052158255130052567
1772643967404525300,8.697525390625,-0.00026493368204683065,0.00017030950402840972,-0.00014550937339663506
1772643967414566400,8.70756640625,0.0005891420878469944,0.0014193321112543344,-0.0003652202431112528
1772643967424607200,8.717607177734376,-0.00015711190644651651,0.0007401981856673956,-0.00027549127116799355
1772643967434648300,8.7276484375,-0.00098322459962219,-0.0008571657817810774,0.00003796280361711979
1772643967444689200,8.737689208984374,0.0021046362817287445,-0.00008108158363029361,-0.0003979515749961138
1772643967454729200,8.747729248046875,0.0011126087047159672,0.000893635384272784,0.0007669151527807117
1772643967464770300,8.757770263671874,-0.00035113818012177944,-0.0009991126134991646,-0.0007794338744133711
1772643967474811400,8.767811279296875,-0.0013085446553304791,0.00007094541797414422,-0.00021404470317065716
1772643967484852200,8.777852294921875,0.0006758469389751554,0.0002900068066082895,0.00012518186122179031
1772643967494893300,8.787893310546876,0.0005394931067712605,-0.0009507599752396345,-0.0005206346977502108
1772643967504933400,8.797933349609375,-0.0011153408559039235,-0.0002779411734081805,0.00014799507334828377
1772643967514974500,8.807974365234376,-0.001208817702718079,0.0004285954055376351,-0.0008376408368349075
1772643967525015300,8.818015380859375,0.0000515411957167089,-0.0011845568660646677,-0.0004514292813837528
1772643967535056400,8.828056396484374,0.0013687405735254288,-0.00043354532681405544,-0.0018210932612419128
1772643967545097500,8.838097412109375,-0.0004705515457317233,-0.000362565740942955,-0.00031648087315261364
1772643967555138300,8.84813818359375,-0.000019145780242979527,0.00034583505475893617,0.000303769251331687
1772643967565178400,8.858178466796875,0.0019215266220271587,0.000498761422932148,0.0010380358435213566
1772643967575219500,8.868219482421875,0.0005393459578044713,0.0017163585871458054,-0.0005308324471116066
1772643967585260300,8.87826025390625,-0.0012910349760204554,-0.0001084613031707704,-0.0009431103244423866
1772643967595301400,8.88830126953125,0.0004679829580709338,0.001281975070014596,0.0002265500370413065
1772643967605342500,8.898342529296874,-0.0010589567245915532,-0.0007192884222604334,0.0004456618335098028
1772643967615382300,8.90838232421875,0.001044407719746232,0.000731069128960371,-0.0000997534953057766
1772643967625423000,8.918423095703124,0.00040028314106166363,0.00017762149218469858,0.0012476410483941436
1772643967635464200,8.928464111328125,-0.0012085323687642813,0.00009266659617424011,-0.0009617174509912729
1772643967645505300,8.93850537109375,0.00009430974023416638,-0.0023782155476510525,-0.0008156863041222095
1772643967655546000,8.948546142578126,-0.0011986548779532313,-0.0012562258634716272,-0.0007539009675383568
