time,seconds_elapsed,z,y,x
1772643958745567200,0.038567138671875,-0.0011638014111667871,-0.0023318638559430838,-0.0020237360149621964
1772643958755608300,0.0486083984375,0.0002146507758880034,-0.003055178327485919,-0.0028333370573818684
1772643958765648400,0.0586484375,-0.0001347559446003288,-0.0012575446162372828,-0.004338555503636599
1772643958775689500,0.068689453125,0.0016943031223490834,-0.004071973264217377,-0.003326288191601634
1772643958785730300,0.078730224609375,0.0004239752306602895,-0.004309527110308409,-0.0038687740452587605
1772643958795771400,0.088771484375,0.0009121326729655266,-0.005167065188288689,-0.00410419749096036
1772643958805812500,0.0988125,0.001787779969163239,0.0003038666909560561,-0.003771835006773472
1772643958815853300,0.108853271484375,-0.0001155811914941296,0.0025158883072435856,-0.0030956584960222244
1772643958825893400,0.118893310546875,0.00032916670897975564,-0.004455734975636005,-0.0015512913232669234
1772643958835934500,0.1289345703125,0.0018034926615655422,-0.006637662649154663,-0.0034024545457214117
1772643958845975300,0.138975341796875,-0.0007134608458727598,-0.004442685283720493,-0.0025238776579499245
1772643958856016400,0.149016357421875,-0.0007294398383237422,-0.0007475492893718183,-0.0021169467363506556
1772643958866057500,0.159057373046875,0.00006764429417671636,0.002270344877615571,-0.002091380301862955
1772643958876098300,0.169098388671875,-0.0013699301052838564,0.002877279184758663,-0.004194478504359722
1772643958886138400,0.179138427734375,-0.0015571502735838294,-0.0021976404823362827,-0.0026317357551306486
1772643958896179500,0.189179443359375,-0.003260508179664612,-0.003760383464396,-0.000030892668291926384
1772643958906220500,0.199220458984375,-0.0008777778712101281,0.0008964200387708843,-0.0024554345291107893
1772643958916261400,0.209261474609375,-0.002511893631890416,0.0014911039033904672,-0.004028830211609602
1772643958926302500,0.219302490234375,-0.001990446588024497,-0.00010626012954162434,-0.002301770029589534
1772643958936343600,0.229343505859375,-0.0005755090969614685,0.0018309232546016574,-0.002439189236611128
1772643958946384400,0.23938427734375,-0.0013017531018704176,0.0037116475868970156,0.00016298545233439654
1772643958956424200,0.249424072265625,-0.002846652874723077,0.003108441596850753,-0.00020399813365656883
1772643958966465300,0.25946533203125,-0.004204598721116781,0.004540956113487482,0.0004370247188489884
1772643958976506000,0.269506103515625,-0.004730839282274246,0.004958007019013166,0.0017182715237140656
1772643958986547200,0.279547119140625,-0.004972121678292751,0.0007028082036413252,-0.00123783724848181
1772643958996588300,0.28958837890625,-0.005215800832957029,0.001752093667164445,-0.0008008125587366521
1772643959006629000,0.299629150390625,-0.003483681008219719,0.008300806395709515,0.0015273229219019413
1772643959016669200,0.309669189453125,-0.004267981741577387,0.000734766130335629,-0.0009315737406723201
1772643959026710300,0.319710205078125,-0.001606685109436512,0.0003933488915208727,-0.0017600831342861056
1772643959036751400,0.32975146484375,-0.003653058083727956,0.003640541108325124,-0.0011049455497413874
1772643959046792200,0.339792236328125,-0.004858671221882105,0.004201136529445648,-0.0018471685471013188
1772643959056833300,0.349833251953125,-0.0049734534695744514,0.0030836742371320724,0.00020346550445538014
1772643959066874400,0.359874267578125,-0.004486094694584608,-0.0016231966437771916,-0.0009590042755007744
1772643959076914400,0.36991455078125,-0.003947603516280651,-0.002740392694249749,-0.0025574336759746075
1772643959086955300,0.379955322265625,-0.002814695006236434,0.00006604639202123508,-0.0010167949367314577
1772643959096996400,0.389996337890625,-0.003999002743512392,0.002085787709802389,-0.0025214808993041515
1772643959107037200,0.400037109375,-0.004224838688969612,0.00039281626231968403,-0.0019659455865621567
1772643959117078300,0.410078369140625,-0.00227833422832191,0.0017928400775417686,-0.0015686018159613013
1772643959127119400,0.420119384765625,-0.004501008428633213,-0.00010892329009948298,-0.0033457293175160885
1772643959137159400,0.430159423828125,-0.004056260455399752,-0.002264219569042325,-0.002602973720058799
1772643959147200300,0.4402001953125,-0.00458729499951005,0.0023395870812237263,-0.0010492854053154588
1772643959157241300,0.450241455078125,-0.0051835766062140465,0.0005142564186826348,-0.001439971150830388
1772643959167282400,0.460282470703125,-0.002141980454325676,-0.002579271560534835,-0.002261023735627532
1772643959177323300,0.4703232421875,-0.0007843009079806507,0.0007712514488957822,-0.0028399948496371508
1772643959187364400,0.4803642578125,-0.0010570086305961013,0.0020564929582178593,-0.0021944446489214897
1772643959197405400,0.490405517578125,0.00017443705291952938,-0.0020959076937288046,-0.001657285145483911
1772643959207445500,0.500445556640625,0.0015038870042189956,0.000007723167072981596,-0.0030125677585601807
1772643959217486300,0.510486328125,0.00009267800487577915,0.0011968245962634683,-0.0028216191567480564
1772643959227527400,0.52052734375,-0.000547279603779316,-0.0017566210590302944,-0.0021291973534971476
1772643959237568300,0.530568359375,-0.0026756778825074434,-0.0008442220860160887,-0.00236275652423501
1772643959247609300,0.540609375,-0.0025856629945337772,-0.0005225121858529747,-0.001984587637707591
1772643959257650400,0.550650390625,-0.003317233407869935,-0.0026008430868387222,-0.002126534003764391
1772643959267690200,0.560690185546875,-0.0018937737913802266,0.0006327670416794717,-0.0016932378057390451
1772643959277731000,0.57073095703125,-0.00025220136740244925,-0.0011640676530078053,-0.0018402442801743746
1772643959287772200,0.580772216796875,0.00030866035376675427,-0.002365419641137123,-0.0032024511601775885
1772643959297813200,0.590813232421875,-0.00042264367220923305,-0.00011930961773032323,-0.0030104373581707478
1772643959307854000,0.60085400390625,-0.0012546151410788298,-0.00036192359402775764,-0.002404035534709692
1772643959317895200,0.610895263671875,0.0002788329729810357,-0.00006711165769957006,-0.002832538215443492
1772643959327935200,0.620935302734375,-0.00170761882327497,0.00038642468280158937,-0.003082342678681016
1772643959337976300,0.630976318359375,-0.00008681904728291556,-0.0021086910273879766,-0.0027025758754462004
1772643959348017200,0.64101708984375,-0.0015622102655470371,-0.0018349179299548268,-0.0025656893849372864
1772643959358058200,0.651058349609375,-0.0009100021561607718,0.00022556974727194756,-0.0023521038237959146
1772643959368099300,0.661099365234375,-0.000904409505892545,-0.0005158542771823704,-0.0018399780383333564
1772643959378140200,0.67114013671875,-0.0006609965930692852,-0.0018692727899178863,-0.002548911375924945
1772643959388180200,0.68118017578125,-0.0004237089306116104,-0.0007728493656031787,-0.002956641372293234
1772643959398221300,0.69122119140625,-0.0007241134881041944,-0.0010572749888524413,-0.0017715347930788994
1772643959408262100,0.70126220703125,-0.003498594742268324,-0.00101173494476825,-0.0035111114848405123
1772643959418303200,0.71130322265625,-0.003433080855756998,-0.00155262288171798,-0.0023337281309068203
1772643959428344300,0.72134423828125,-0.002261556452140212,-0.0004809668753296137,-0.0034346787724643946
1772643959438385200,0.73138525390625,-0.00019041601626668125,-0.00195129809435457,-0.0007334345718845725
1772643959448425200,0.74142529296875,0.0002724413643591106,-0.0015779229579493403,-0.002326803747564554
1772643959458466300,0.75146630859375,0.0009201221400871873,0.00010998855577781796,-0.0008253136184066534
1772643959468507400,0.76150732421875,0.0015880429418757558,-0.0014623417519032955,-0.0026082999538630247
1772643959478548200,0.77154833984375,0.000013848437447450124,-0.0007107976707629859,-0.0032200280111283064
1772643959488589300,0.78158935546875,-0.001032507512718439,-0.0010341054294258356,-0.003142263740301132
1772643959498630400,0.79163037109375,-0.0016053534345701337,-0.0019113506423309445,-0.002418150193989277
1772643959508670200,0.801670166015625,-0.0024884575977921486,-0.0008788431296125054,-0.0023409186396747828
1772643959518711300,0.811711181640625,-0.002784334821626544,-0.0009038768475875258,-0.0009347695158794522
1772643959528752400,0.82175244140625,-0.0011254518758505583,-0.0019169433508068323,-0.0008197209681384265
1772643959538793200,0.831793212890625,-0.001674861996434629,-0.0005757753970101476,-0.0026264095213264227
1772643959548834300,0.841834228515625,0.000502804818097502,-0.000568052229937166,-0.003051982494071126
1772643959558875400,0.85187548828125,-0.0007209177128970623,-0.0005779059720225632,-0.0022985744290053844
1772643959568915500,0.86191552734375,0.00038242992013692856,-0.0008402272942475975,-0.0022514364682137966
1772643959578956300,0.871956298828125,-0.0006601976347155869,0.0002181128947995603,-0.002543585142120719
1772643959588997400,0.881997314453125,-0.002508697798475623,-0.001113201375119388,-0.00333214714191854
1772643959599038500,0.89203857421875,-0.0009526127250865102,-0.0013076120521873236,-0.0018706043483689427
1772643959609079300,0.902079345703125,-0.0013795174891129136,-0.0008482168195769191,-0.0020306603983044624
1772643959619120400,0.912120361328125,-0.0023731428664177656,-0.0012301141396164894,-0.002624012529850006
1772643959629161500,0.922161376953125,-0.0006207828409969807,-0.0016772588714957237,-0.0013912353897467256
1772643959639201300,0.932201171875,0.0024588967207819223,-0.000809068325906992,-0.002484995638951659
1772643959649242400,0.942242431640625,0.0010929612908512354,0.00005805691034765914,-0.0011824434623122215
1772643959659283500,0.952283447265625,0.00021997711155563593,-0.0018104169284924865,-0.001614940818399191
1772643959669324300,0.96232421875,-0.00370179396122694,-0.0010189254535362124,-0.0015185344964265823
1772643959679365400,0.972365478515625,-0.0011534150689840317,-0.0015478292480111122,-0.0018841864075511694
1772643959689406500,0.982406494140625,-0.0013962953817099333,0.0011635350529104471,-0.0005645901546813548
1772643959699446300,0.9924462890625,-0.00022903185163158923,-0.001988049829378724,-0.00152306177187711
1772643959709487000,1.002487060546875,0.0007262440049089491,0.00008122641156660393,-0.0032629049383103848
1772643959719528200,1.012528076171875,-0.00025007082149386406,-0.0013616742799058557,-0.0007922904333099723
1772643959729569300,1.0225693359375,0.0020602215081453323,-0.0005491438205353916,-0.0021369203459471464
1772643959739610000,1.032610107421875,-0.00004021373388241045,-0.0007621967233717442,-0.002101234160363674
1772643959749651200,1.042651123046875,-0.0016476977616548538,-0.0007009439868852496,-0.0018756643403321505
1772643959759691300,1.052691162109375,-0.0018961706664413214,-0.0014303837670013309,-0.0011116034584119916
1772643959769732400,1.062732421875,-0.0005882922559976578,-0.002484462922438979,-0.0028911277186125517
1772643959779773200,1.072773193359375,-0.0007821703911758959,-0.00040187101694755256,-0.000892425247002393
1772643959789814300,1.082814208984375,-0.0021015002857893705,-0.0009209210984408855,-0.0030802120454609394
1772643959799855400,1.09285546875,0.0002615224220789969,-0.002688727341592312,-0.0029225528705865145
1772643959809896200,1.102896240234375,-0.0018343853298574686,-0.0011558119440451264,-0.0024732777383178473
1772643959819936300,1.112936279296875,-0.0006775081856176257,-0.000011451592399680521,-0.0034176346380263567
1772643959829977300,1.122977294921875,-0.0006900250446051359,-0.0006679208017885685,-0.0021584921050816774
1772643959840018200,1.13301806640625,-0.0015028218040242791,-0.000550475378986448,-0.0034999263007193804
1772643959850059300,1.143059326171875,-0.0004596615908667445,-0.0002378202771069482,-0.0018189389957115054
1772643959860100400,1.153100341796875,-0.0016767261549830437,-0.0012492889072746038,-0.002484196564182639
1772643959870141200,1.16314111328125,-0.0008037420338951051,-0.0013938985066488385,-0.0023276028223335743
1772643959880181200,1.17318115234375,0.0006729807937517762,-0.00013635384675581008,-0.002722283359616995
1772643959890222300,1.183222412109375,-0.0019118833588436246,-0.000603738590143621,-0.0015949672088027
1772643959900263400,1.193263427734375,-0.0003757720405701548,0.00012543488992378116,-0.0017326525412499905
1772643959910304300,1.20330419921875,-0.0010130665032193065,-0.0008010788587853312,-0.0006620618514716625
1772643959920345300,1.213345458984375,-0.0020775320008397102,-0.001421861699782312,-0.0037734329234808683
1772643959930386400,1.223386474609375,-0.0005195827106945217,-0.00129695946816355,-0.0021915151737630367
1772643959940426200,1.23342626953125,-0.0013992248568683863,-0.0008980178972706199,-0.0018631474813446403
1772643959950467300,1.24346728515625,-0.0030216225422918797,-0.0016261261189356446,-0.0010727213229984045
1772643959960508700,1.2535087890625,-0.0002777676854748279,-0.000648479734081775,-0.0015805860748514533
1772643959970549500,1.263549560546875,-0.0010223875287920237,-0.0015297196805477142,-0.002049036091193557
1772643959980590600,1.273590576171875,-0.0008287757518701255,-0.002180596347898245,-0.0027915253303945065
1772643959990631700,1.283631591796875,-0.0010207896120846272,-0.00028762139845639467,-0.0022895196452736855
1772643960000671700,1.293671630859375,-0.0015422365395352244,-0.0015598133904859424,-0.0013379721203818917
1772643960010712600,1.303712646484375,-0.00036218989407643676,-0.0020594224333763123,-0.0016698020044714212
1772643960020753700,1.313753662109375,-0.0004218447138555348,-0.002216815249994397,-0.002423742786049843
1772643960030794500,1.32379443359375,-0.002226136391982436,-0.001222657272592187,-0.0007805725326761603
1772643960040835600,1.333835693359375,-0.00224877311848104,-0.0006053365068510175,-0.002537193475291133
1772643960050876700,1.343876708984375,-0.00047936898772604764,-0.0003755057114176452,-0.002177933230996132
1772643960060916700,1.353916748046875,0.000021837920940015465,0.00011877698125317693,-0.003054911969229579
1772643960070957600,1.36395751953125,0.001449025934562087,-0.0015520902816206217,-0.0020690099336206913
1772643960080998700,1.37399853515625,-0.0011406318517401814,-0.0010452907299622893,-0.00239205127581954
1772643960091039700,1.384039794921875,-0.0013664679136127234,0.00016058860637713224,-0.003840810852125287
1772643960101080600,1.39408056640625,-0.0028567728586494923,-0.0014772554859519005,-0.002374474424868822
1772643960111121700,1.40412158203125,-0.0011518171522766352,-0.001088966615498066,-0.0015962987672537565
1772643960121161500,1.414161376953125,-0.002802710747346282,-0.0015534218400716782,-0.0031316110398620367
1772643960131202600,1.42420263671875,-0.002495914464816451,0.00001864212754298933,-0.002094309777021408
1772643960141243400,1.434243408203125,-0.0018482337472960353,-0.003227751236408949,-0.0022921827621757984
1772643960151284500,1.444284423828125,-0.0011259844759479165,0.00022556974727194756,-0.0020578245166689157
1772643960161325600,1.45432568359375,0.00034967303508892655,-0.001531850197352469,-0.002493251347914338
1772643960171366700,1.46436669921875,-0.0005201153689995408,-0.0009440905996598303,-0.0018932411912828684
1772643960181406500,1.474406494140625,-0.001785383210517466,-0.001386175281368196,-0.0025627599097788334
1772643960191447600,1.484447509765625,-0.0016889767721295357,-0.00023329291434492916,-0.0022833943367004395
1772643960201488400,1.49448828125,-0.002523345174267888,-0.0009496832499280572,-0.0016189356101676822
1772643960211529500,1.504529541015625,-0.0016905746888369322,-0.0008237157016992569,-0.0013976269401609898
1772643960221570600,1.514570556640625,-0.001208009896799922,0.0003246393462177366,-0.0028133634477853775
1772643960231611400,1.524611328125,-0.0005811017472296953,-0.00227913330309093,-0.0024919197894632816
1772643960241651500,1.5346513671875,-0.0005816344055347145,-0.001520398654974997,-0.0017326525412499905
1772643960251692500,1.544692626953125,-0.0005837649223394692,-0.0006878945278003812,-0.002540655666962266
1772643960261733600,1.554733642578125,-0.0006940197781659663,-0.002159024588763714,-0.00282055395655334
1772643960271774500,1.5647744140625,-0.0013997574569657445,-0.0016282566357403994,-0.0022303974255919456
1772643960281815600,1.574815673828125,-0.0002633866388350725,-0.0017038905061781406,-0.003674895968288183
1772643960291856600,1.584856689453125,-0.0005424859118647873,-0.000922252656891942,-0.0022029669489711523
1772643960301896400,1.594896484375,-0.0018002968281507492,-0.001258343574590981,-0.0036719664931297302
1772643960311937500,1.6049375,0.0005858954391442239,0.00007243797881528735,-0.001982190879061818
1772643960321978600,1.614978515625,-0.0019353191601112485,-0.000850879936479032,-0.0020959076937288046
1772643960332019500,1.62501953125,-0.0005795038305222988,-0.0009209210984408855,-0.0031281490810215473
1772643960342060500,1.635060546875,-0.00006924218905624002,-0.0001781654718797654,-0.002156361471861601
1772643960352101600,1.6451015625,-0.0017188041238114238,0.0004394215648062527,-0.002615490462630987
1772643960362141700,1.6551416015625,-0.00276169809512794,-0.0004498079069890082,-0.0014538196846842766
1772643960372182500,1.6651826171875,-0.0009600695921108127,-0.0012157330056652427,-0.00173771264962852
1772643960382223600,1.6752236328125,-0.0013781858142465353,-0.002117745578289032,-0.0006697850185446441
1772643960392264700,1.6852646484375,-0.0018498316640034318,0.00026072346372529864,-0.0016767261549830437
1772643960402305500,1.695305419921875,0.00043595946044661105,-0.000215716048842296,-0.0017387778498232365
1772643960412346600,1.7053466796875,-0.001740375766530633,-0.0007744472241029143,-0.00387276872061193
1772643960422386700,1.71538671875,-0.00044607947347685695,-0.0012367720482870936,-0.0029321403708308935
1772643960432427500,1.725427490234375,-0.001119060325436294,-0.0007728493656031787,-0.0019504991360008717
1772643960442468600,1.735468505859375,-0.001228782464750111,-0.00036139096482656896,-0.0022564963437616825
1772643960452509700,1.745509765625,-0.0012966931099072099,-0.0008519452530890703,-0.002231462625786662
1772643960462550500,1.755550537109375,-0.0006404902087524533,-0.000368847802747041,-0.003674363251775503
1772643960472591600,1.765591552734375,-0.0017920411191880703,-0.0012120045721530914,-0.001939580193720758
1772643960482631700,1.775631591796875,-0.0009379653492942452,-0.00196381495334208,-0.0036884781438857317
1772643960492672800,1.7856728515625,-0.0002924150903709233,-0.0009350358741357923,-0.002808836055919528
1772643960502713600,1.795713623046875,-0.0005829659639857709,-0.0009265137487091124,-0.002567553659901023
1772643960512754700,1.805754638671875,-0.0006085322820581496,-0.0015952334506437182,-0.0016402408946305513
1772643960522795800,1.815795654296875,0.001455151243135333,-0.001913481275551021,-0.0036495958920568228
1772643960532836600,1.825836669921875,-0.002365153282880783,-0.0012844426091760397,-0.002260491019114852
1772643960542876400,1.83587646484375,-0.000752875639591366,-0.0023529028985649347,-0.0026019082870334387
1772643960552917500,1.84591748046875,-0.0009323726990260184,-0.001782453735359013,-0.002368082758039236
1772643960562958600,1.85595849609375,-0.001356614287942648,-0.0011608719360083342,-0.004002997186034918
1772643960572999400,1.86599951171875,-0.0007997472421266139,0.0001816275907913223,-0.0023880566004663706
1772643960583040500,1.87604052734375,-0.0014181332662701607,-0.00006524744821945205,-0.0012636699248105288
1772643960593081600,1.88608154296875,-0.0010732539230957627,-0.00025033715064637363,-0.0028128307312726974
1772643960603121400,1.896121337890625,-0.0012543488992378116,-0.002301770029589534,-0.003683151677250862
1772643960613162500,1.90616259765625,-0.0017539578257128596,-0.0004117247008252889,-0.0026296053547412157
1772643960623203600,1.91620361328125,-0.0012988236267119646,-0.00003888214996550232,-0.0025393241085112095
1772643960633244400,1.926244384765625,-0.0013366405619308352,-0.0016668725293129683,-0.0019225359428673983
1772643960643285500,1.936285400390625,-0.0005203816690482199,-0.001240766723640263,-0.0018013621447607875
1772643960653326600,1.94632666015625,-0.0010604707058519125,-0.0006250438746064901,-0.003436276689171791
1772643960663366700,1.95636669921875,-0.000690291344653815,-0.002540922025218606,-0.002749447477981448
1772643960673407500,1.966407470703125,-0.000600809114985168,-0.0015912387752905488,-0.0016458334866911173
1772643960683448600,1.976448486328125,-0.0001400822657160461,-0.002281263703480363,-0.001975532853975892
1772643960693489700,1.98648974609375,-0.0014761901693418622,-0.0009068063227459788,-0.0022860574536025524
1772643960703530500,1.996530517578125,-0.0031007183715701103,-0.000800279900431633,-0.0023220102302730083
1772643960713570600,2.006570556640625,-0.0018809906905516982,-0.0014759238110855222,-0.0013275857781991363
1772643960723611600,2.016611572265625,-0.0015222628135234118,-0.0012144014472141862,-0.002226402750238776
1772643960733652500,2.026652587890625,-0.0023302659392356873,-0.00037230990710668266,-0.0027987160719931126
1772643960743693600,2.036693603515625,-0.0014093448407948017,0.00006338323146337643,-0.002463423879817128
1772643960753734700,2.046734619140625,0.0006807039608247578,-0.00009693906031316146,-0.0019020296167582273
1772643960763775500,2.056775390625,0.00017949705943465233,-0.0009369000908918679,-0.0032615733798593283
1772643960773815600,2.066815673828125,0.0009616674506105483,-0.001910285442136228,-0.001160339335910976
1772643960783856600,2.076856689453125,-0.0004324973560869694,0.0001525991247035563,-0.003519101068377495
1772643960793897700,2.086897705078125,-0.0015992282424122095,-0.00024314661277458072,-0.0031824775505810976
1772643960803938600,2.0969384765625,-0.0006945523782633245,-0.001547030289657414,-0.0020836573094129562
1772643960813979600,2.106979736328125,-0.000401604687795043,-0.0011406318517401814,-0.002653307281434536
1772643960824020700,2.117020751953125,-0.0013028184184804559,-0.002290318487212062,-0.0019302591681480408
1772643960834060500,2.127060546875,-0.0019837887957692146,-0.00019760655413847417,-0.003049053018912673
1772643960844101600,2.1371015625,-0.0010511496802791953,-0.001216265605762601,-0.0022807312197983265
1772643960854142700,2.147142822265625,-0.0004828310920856893,-0.00037257623625919223,-0.0021465078461915255
1772643960864183600,2.15718359375,-0.00170815153978765,-0.0010692591313272715,-0.002139050979167223
1772643960874224600,2.167224609375,-0.0011938951211050153,-0.001645300886593759,-0.002141714096069336
1772643960884265700,2.177265625,-0.0008594020619057119,-0.0020237360149621964,-0.002314020646736026
1772643960894305500,2.187305419921875,-0.0008990831556729972,-0.000035420041967881843,-0.002469815546646714
1772643960904346400,2.197346435546875,-0.0011089402250945568,-0.0007744472241029143,-0.0018466358305886388
1772643960914387500,2.207387451171875,-0.001427720650099218,-0.00010386328358436003,-0.0013116068439558148
1772643960924428500,2.217428466796875,-0.0014468954177573323,-0.002123870886862278,-0.0022034994326531887
1772643960934469400,2.227469482421875,0.0002854908525478095,-0.001490304945036769,-0.002129463478922844
1772643960944510500,2.237510498046875,0.0004953479510731995,-0.00048389637959189713,-0.002086320426315069
1772643960954550500,2.247550537109375,-0.0005573995877057314,-0.00032730249222368,-0.002347842790186405
1772643960964590800,2.2575908203125,-0.000371777277905494,-0.0005555353709496558,-0.0017747305100783706
1772643960974631700,2.267631591796875,-0.000022903184799361043,-0.0013701963471248746,-0.0013552826130762696
1772643960984672800,2.2776728515625,-0.002113218419253826,-0.0013265205780044198,-0.001883387565612793
1772643960994713900,2.2877138671875,-0.0012562130577862263,-0.0023299995809793472,-0.0016375777777284384
1772643961004754700,2.297754638671875,0.00011717908637365326,-0.00015286543930415064,-0.0037713022902607918
1772643961014794800,2.307794677734375,0.0010215885704383254,-0.0014729943359270692,-0.002544117858633399
1772643961024835800,2.3178359375,0.0015158712631091475,-0.00028389296494424343,-0.002915096003562212
1772643961034877000,2.327876953125,-0.00015046859334688634,0.00008468852320220321,-0.0023212111555039883
1772643961044917800,2.337917724609375,0.00021598236344289035,-0.0016817862633615732,-0.0029736857395619154
1772643961054958800,2.347958740234375,-0.0015417039394378662,-0.001728657865896821,-0.0009914948605000973
1772643961065000000,2.358,-0.0012490225490182638,-0.0014426343841478229,-0.0026413232553750277
1772643961075039700,2.368039794921875,-0.0017512947088107467,-0.0015571502735838294,-0.001988049829378724
1772643961085080800,2.378080810546875,-0.00005166532355360687,-0.00015712650201749057,-0.0030069751664996147
1772643961095122000,2.388121826171875,-0.001449292292818427,-0.002133724745362997,-0.002968359272927046
1772643961105162800,2.398162841796875,0.0004564658156596124,-0.00129695946816355,-0.0034072482958436012
1772643961115203800,2.408203857421875,0.0002103897277265787,-0.0010341054294258356,-0.0014679343439638615
1772643961125245000,2.418244873046875,-0.0011614045361056924,-0.001377919572405517,-0.002314553363248706
1772643961135285000,2.428284912109375,-0.0007869640830904245,-0.00036139096482656896,-0.0026341325137764215
1772643961145325800,2.438325927734375,-0.0002569950302131474,-0.002122006844729185,-0.004080761689692736
1772643961155367000,2.448366943359375,-0.0004873584839515388,-0.0017587515758350492,-0.002162220422178507
1772643961165408000,2.458407958984375,-0.0021108214277774096,-0.002217081608250737,-0.001967543503269553
1772643961175448800,2.46844873046875,-0.00008362325752386823,-0.00037683729897253215,-0.0031936627347022295
1772643961185490000,2.478489990234375,-0.0008527441532351077,0.00037816885742358863,-0.0024168186355382204
1772643961195529700,2.48852978515625,-0.0026788737159222364,-0.0015848471084609628,-0.001532382913865149
1772643961205570800,2.49857080078125,-0.00037923414492979646,-0.0015249260468408465,-0.0019209380261600018
1772643961215611600,2.508611572265625,-0.0010551444720476866,-0.0028868666850030422,-0.0022152173332870007
1772643961225652700,2.51865283203125,-0.0007659250986762345,-0.0012844426091760397,-0.001820536912418902
1772643961235693600,2.528693603515625,-0.001716939965263009,-0.0016703346045687795,-0.0037297571543604136
1772643961245734700,2.538734619140625,-0.000788561999797821,-0.0012564794160425663,-0.0026783409994095564
1772643961255774700,2.548774658203125,-0.0015598133904859424,0.00017843178648035973,-0.0030890004709362984
1772643961265815800,2.55881591796875,-0.001193096162751317,-0.0003834952076431364,-0.0020812603179365396
1772643961275856600,2.568856689453125,-0.00041971419705078006,-0.0008511462947353721,-0.004248274490237236
1772643961285897700,2.578897705078125,-0.0017584852175787091,-0.0002980077115353197,-0.0035265579354017973
1772643961295938800,2.588938720703125,-0.0005289037944748998,-0.00098217383492738,-0.001835716888308525
1772643961305979600,2.598979736328125,-0.0007981493836268783,0.00004740426811622456,-0.003575559938326478
1772643961316019700,2.609019775390625,-0.0012871057260781527,-0.0009062737226486206,-0.0007339671719819307
1772643961326060800,2.619060791015625,-0.001711081014946103,-0.0016844493802636862,-0.00213612150400877
1772643961336102000,2.629101806640625,-0.0009683253592811525,-0.0016354472609236836,-0.002603506203740835
1772643961346142700,2.639142822265625,-0.000957939017098397,-0.0009661948424763978,-0.003998470026999712
1772643961356183800,2.649183837890625,-0.0013483584625646472,-0.0006892260862514377,-0.0015877765836194158
1772643961366224000,2.659223876953125,-0.0019270633347332478,-0.0019267969764769077,-0.0019523634109646082
1772643961376264700,2.6692646484375,0.00026072346372529864,-0.0012863067677244544,-0.0009230516152456403
1772643961386305800,2.679305908203125,-0.0019526296528056264,-0.0003760383406188339,-0.002170742489397526
1772643961396347000,2.689346923828125,-0.0006884271278977394,-0.00065460498444736,-0.004000067710876465
1772643961406387700,2.6993876953125,-0.001404284848831594,-0.002541188383474946,-0.0016966998809948564
1772643961416428800,2.7094287109375,-0.0001704423048067838,-0.0012895026011392474,-0.0019108180422335863
1772643961426468900,2.71946875,-0.0015584818320348859,-0.001002680161036551,-0.0021470405627042055
1772643961436510000,2.729510009765625,-0.00011132013605674729,-0.0020905814599245787,-0.0025965820532292128
1772643961446550800,2.73955078125,-0.00026312030968256295,-0.00015526228526141495,-0.002079662401229143
1772643961456592000,2.749591796875,-0.00020160128769930452,-0.00042770366417244077,-0.0022951122373342514
1772643961466633000,2.759633056640625,-0.001589108258485794,-0.0015419702976942062,-0.002031725598499179
1772643961476673800,2.769673828125,0.00014674017438665032,-0.001255680457688868,-0.002348109148442745
1772643961486713900,2.7797138671875,-0.0003171824791934341,-0.0010863033821806312,-0.003314303932711482
1772643961496755000,2.7897548828125,-0.0007808388327248394,-0.0007344998302869499,-0.002921754028648138
1772643961506795800,2.799795654296875,0.000362988852430135,-0.0016671388875693083,-0.002897519152611494
1772643961516836900,2.8098369140625,-0.0004948153509758413,-0.00022317290131468326,-0.0010775149567052722
1772643961526878000,2.8198779296875,-0.0006372944335453212,-0.0008141283178701997,-0.002398442942649126
1772643961536918800,2.829918701171875,-0.0019973707385361195,-0.0013307816116139293,-0.0013888385146856308
1772643961546958600,2.83995849609375,-0.0013044163351878524,-0.0016892430139705539,-0.002883404493331909
1772643961556999700,2.849999755859375,-0.0015062838792800903,-0.0013110742438584566,-0.0020330571569502354
1772643961567040800,2.860040771484375,-0.0014516890514642,-0.001627457677386701,-0.002237321576103568
1772643961577081600,2.87008154296875,-0.0010120011866092682,-0.0005739112384617329,-0.001347293145954609
1772643961587122700,2.880122802734375,-0.0008159925346262753,-0.0005930859479121864,-0.0018213358707726002
1772643961597163800,2.890163818359375,-0.00039840888348408043,-0.0020354539155960083,-0.0010910971323028207
1772643961607203800,2.900203857421875,-0.001362473238259554,-0.0015044197207316756,-0.0019046928500756621
1772643961617244700,2.91024462890625,-0.0012604740913957357,-0.0004189152386970818,-0.003222425002604723
1772643961627285800,2.92028564453125,-0.0018727348651736975,0.0003483414766378701,-0.002910568844527006
1772643961637326600,2.93032666015625,-0.0005374259199015796,-0.0011435613268986344,-0.0016279903938993812
1772643961647367700,2.94036767578125,-0.0013206616276875138,-0.0013936321483924985,-0.0024375913199037313
1772643961657408800,2.95040869140625,-0.0009227853151969612,-0.0007752461824566126,-0.0035079156514257193
1772643961667448800,2.96044873046875,-0.0005376922199502587,-0.001073786523193121,-0.0033457293175160885
1772643961677489700,2.97048974609375,-0.0025068335235118866,-0.0011765845119953156,-0.003838414093479514
1772643961687530800,2.98053076171875,-0.00009267800487577915,0.00011211907985853031,-0.0034043188206851482
1772643961697571800,2.99057177734375,-0.0015092133544385433,-0.0009291769238188863,-0.0011664645280689
1772643961707612700,3.00061279296875,-0.0006226470577530563,-0.000841825210954994,-0.001970206620171666
1772643961717653800,3.01065380859375,-0.0002109223569277674,-0.000036751622246811166,-0.0009704558760859072
1772643961727693800,3.02069384765625,-0.001141963410191238,-0.000642620783764869,-0.0014751249691471457
1772643961737735000,3.03073486328125,-0.0022098910994827747,-0.0011012171162292361,-0.0025531724095344543
1772643961747775700,3.040775634765625,-0.0012096078135073185,-0.0016849819803610444,-0.0024141555186361074
1772643961757816800,3.05081689453125,-0.001332912128418684,-0.0014950985787436366,-0.0026549051981419325
1772643961767857700,3.060857666015625,-0.001969673903658986,-0.001151018193922937,-0.0024434502702206373
1772643961777898800,3.070898681640625,-0.00014567491598427296,-0.002115615177899599,-0.0030338731594383717
1772643961787938800,3.080938720703125,-0.0020817930344492197,-0.0009672601008787751,-0.002681004349142313
1772643961797980000,3.09097998046875,-0.0007411577389575541,-0.0008098672842606902,-0.002156627830117941
1772643961808020700,3.101020751953125,-0.0009243832319043577,-0.001918807509355247,-0.0026607641484588385
1772643961818061800,3.111061767578125,-0.001070857048034668,-0.00044128578156232834,-0.0038866172544658184
1772643961828103000,3.12110302734375,-0.0015342470724135637,0.00004873584839515388,-0.0029411951545625925
1772643961838143700,3.131143798828125,-0.0018658105982467532,-0.0014173343079164624,-0.002058623591437936
1772643961848183800,3.141183837890625,-0.0008969526388682425,-0.0016170714516192675,-0.0021758025977760553
1772643961858225000,3.151224853515625,-0.001249821507371962,-0.0017446368001401424,-0.0004396878939587623
1772643961868266000,3.161265869140625,-0.00007776429993100464,-0.00022503710351884365,-0.0022306637838482857
1772643961878306800,3.171306884765625,-0.0004905542591586709,-0.001425057533197105,-0.002913498319685459
1772643961888348000,3.181347900390625,-0.001630120910704136,-0.001415736391209066,-0.00227913330309093
1772643961898388700,3.191388671875,-0.0014413028256967664,-0.0012865731259807944,-0.0017499631503596902
1772643961908428500,3.201428466796875,-0.0015049523208290339,-0.0010418286547064781,-0.0031459920573979616
1772643961918469600,3.2114697265625,-0.0028445222415030003,0.00007350324449362233,-0.00236222380772233
1772643961928510700,3.2215107421875,-0.0010921623324975371,-0.00039974047103896737,-0.002153431996703148
1772643961938551600,3.231551513671875,0.0002961435238830745,-0.0019558256026357412,-0.0020746025256812572
1772643961948593000,3.241593017578125,-0.0005488775204867125,-0.0012628709664568305,-0.0027049726340919733
1772643961958632700,3.2516328125,0.0005358280031941831,-0.0021696772892028093,-0.002341451123356819
1772643961968674800,3.2616748046875,-0.0017800568602979183,-0.0012040151050314307,-0.0029321403708308935
1772643961978716000,3.2717158203125,-0.0021544971968978643,-0.0005813680472783744,-0.0012476909905672073
1772643961988757000,3.281757080078125,-0.0005616606795229018,-0.001424791174940765,-0.002348109148442745
1772643961998797800,3.2917978515625,-0.0001073253879440017,-0.00004394215648062527,-0.0029648973140865564
1772643962008839000,3.3018388671875,-0.0017606157343834639,-0.0007989483419805765,-0.003447994589805603
1772643962018879000,3.31187890625,0.00013156015484128147,-0.0012974920682609081,-0.0033571808598935604
1772643962028919800,3.321919921875,0.0002069276088150218,-0.002046905690804124,-0.0031217574141919613
1772643962038961000,3.3319609375,0.0006301039247773588,-0.0025747441686689854,-0.002638926263898611
1772643962049002000,3.342001953125,-0.000559263804461807,-0.001204547705128789,-0.001669003046117723
1772643962059042800,3.352042724609375,-0.0009523464250378311,-0.001061802264302969,-0.002160090021789074
1772643962069084000,3.362083984375,-0.0009510148083791137,-0.0018138790037482977,-0.0017630126094445586
1772643962079124000,3.3721240234375,-0.000764593540225178,-0.0006258428329601884,-0.0018461032304912806
1772643962089165000,3.3821650390625,-0.0007454187725670636,-0.000391218374716118,-0.0016711335629224777
1772643962099206000,3.392205810546875,-0.002127066720277071,-0.0018674085149541497,-0.002234658459201455
1772643962109247000,3.4022470703125,-0.0007046724203974009,-0.0013707289472222328,-0.0015864450251683593
1772643962119288000,3.4122880859375,-0.00011105381418019533,-0.0007422229973599315,-0.0023379891645163298
1772643962129329000,3.422328857421875,-0.0016431703697890043,-0.0009960222523659468,-0.0029177593532949686
1772643962139369000,3.432368896484375,-0.0016298545524477959,-0.0006676545017398894,-0.0021172130946069956
1772643962149410000,3.44241015625,0.000264718197286129,-0.0009145294898189604,-0.0028360001742839813
1772643962159451000,3.452450927734375,-0.0016293219523504376,-0.0007789746159687638,-0.0012191950809210539
1772643962169492000,3.462491943359375,-0.0009672601008787751,-0.0008729841792955995,-0.0012250541476532817
1772643962179533000,3.472532958984375,0.0000852211524033919,-0.0017715347930788994,-0.0023470439482480288
1772643962189574000,3.482573974609375,-0.00015819176041986793,-0.0008918926469050348,-0.0031944618094712496
1772643962199613700,3.49261376953125,-0.0011619371362030506,-0.0017965685110539198,-0.002237587934359908
1772643962209654800,3.50265478515625,-0.0013662016717717052,-0.0010634001810103655,-0.0027531760279089212
1772643962219695900,3.51269580078125,-0.001592037733644247,-0.0005826996639370918,-0.0017595505341887474
1772643962229736700,3.52273681640625,-0.002186455298215151,0.00011771172285079956,-0.0036426717415452003
1772643962239777800,3.53277783203125,-0.0014207963831722736,-0.0007555388147011399,-0.002365153282880783
1772643962249819000,3.54281884765625,-0.0019531622529029846,-0.0015257250051945448,-0.0019417107105255127
1772643962259859000,3.55285888671875,-0.0007592672482132912,-0.0016335829859599471,-0.002175003755837679
1772643962269899800,3.562899658203125,-0.0016434367280453444,-0.0009675264009274542,-0.004809668753296137
1772643962279940900,3.57294091796875,-0.0010841728653758764,-0.0006442186422646046,-0.0019347865600138903
1772643962289982000,3.58298193359375,-0.0002854908525478095,-0.00006311691686278209,-0.002383795566856861
1772643962300022800,3.593022705078125,-0.0001400822657160461,-0.0009882990270853043,-0.0005608617211692035
1772643962310063900,3.60306396484375,-0.002357163932174444,-0.0012490225490182638,-0.0026351979468017817
1772643962320104000,3.61310400390625,-0.0014274542918428779,-0.001883121207356453,-0.0026932547334581614
1772643962330144800,3.623144775390625,0.00003222424857085571,-0.0011257182341068983,-0.00042770366417244077
1772643962340185900,3.633185791015625,-0.002569950418546796,-0.00003328951424919069,-0.0009989517275243998
1772643962350227000,3.64322705078125,-0.0006921555614098907,-0.0019888486713171005,-0.0029949909076094627
1772643962360267800,3.653267822265625,0.0007099987124092877,-0.0002668487431947142,-0.0024346618447452784
1772643962370307800,3.663307861328125,-0.00009720538218971342,-0.0012221246724948287,-0.0018218684708699584
1772643962380349000,3.673348876953125,-0.001151018193922937,-0.0026019082870334387,-0.0019347865600138903
1772643962390390000,3.68339013671875,-0.0022980417124927044,-0.0007233145297504961,-0.002296443795785308
1772643962400430800,3.693430908203125,-0.00016165387933142483,-0.0002508697798475623,-0.0021065603941679
1772643962410472000,3.703471923828125,-0.0021286646369844675,-0.0020777983590960503,-0.002427204977720976
1772643962420513000,3.713512939453125,-0.000143544384627603,-0.0006519418093375862,-0.0018229337874799967
1772643962430552800,3.723552734375,-0.0012500877492129803,-0.0007310376968234777,-0.002895655110478401
1772643962440594000,3.733593994140625,-0.0018929748330265284,-0.00018562232435215265,-0.0021736719645559788
1772643962450635000,3.743635009765625,-0.0021369203459471464,-0.0016527577536180615,-0.001633316627703607
1772643962460675800,3.75367578125,-0.0017627463676035404,-0.0000679106087773107,-0.0024655545130372047
1772643962470717000,3.763717041015625,-0.00023915186466183513,-0.0007747135823592544,-0.0021430456545203924
1772643962480758000,3.773758056640625,-0.0016695356462150812,-0.0008349010022357106,-0.0027089675422757864
1772643962490798000,3.783798095703125,-0.0004649879119824618,-0.0011382350930944085,-0.0022831279784440994
1772643962500839000,3.7938388671875,-0.00020825919636990875,-0.001139566651545465,-0.0011281149927526712
1772643962510880000,3.8038798828125,-0.0005446164286695421,-0.0015667376574128866,-0.002737463219091296
1772643962520921000,3.813921142578125,0.0003145193331874907,-0.0007478156476281583,-0.0028181569650769234
1772643962530962000,3.8239619140625,-0.0013712616637349129,-0.0008942894637584686,-0.0023883229587227106
1772643962541003000,3.8340029296875,-0.001315068919211626,-0.000046871635277057067,-0.0017449031583964825
1772643962551042800,3.844042724609375,-0.000827177835162729,-0.0004500742070376873,-0.0023318638559430838
1772643962561084000,3.854083984375,-0.0008532768115401268,-0.0011030812747776508,-0.0016961672808974981
1772643962571124700,3.864124755859375,-0.0010868359822779894,0.00039787625428289175,-0.001657551503740251
1772643962581165800,3.874165771484375,-0.002229332225397229,-0.0016415724530816078,-0.002798982197418809
1772643962591207000,3.88420703125,-0.0007238471880555153,-0.0001478054327890277,-0.001614940818399191
1772643962601248000,3.894248046875,-0.0010319749126210809,-0.00031318774563260376,-0.0018333201296627522
1772643962611287800,3.904287841796875,-0.0005081311101093888,-0.0020130835473537445,-0.002481267089024186
1772643962621329000,3.914328857421875,-0.0012567456578835845,0.00042104575550183654,-0.0019323896849527955
1772643962631369700,3.92436962890625,-0.001942776027135551,-0.000297475082334131,-0.0021843246649950743
1772643962641410800,3.934410888671875,-0.0018578211311250925,-0.0011837751371785998,-0.002379534300416708
1772643962651452000,3.944451904296875,-0.001891909632831812,-0.0006370281334966421,-0.002138784620910883
1772643962661492700,3.95449267578125,-0.002519616624340415,-0.001606152392923832,-0.002435993403196335
1772643962671532800,3.96453271484375,-0.0013792511308565736,-0.0012210593558847904,-0.0030751521699130535
1772643962681574000,3.974573974609375,-0.0006458165589720011,-0.0006021407316438854,-0.0035052525345236063
1772643962691615000,3.984614990234375,-0.0010407633380964398,-0.001219727797433734,-0.0020743361674249172
1772643962701655800,3.99465576171875,0.0008492820779792964,-0.001958488719537854,-0.001136370818130672
1772643962711697000,4.00469677734375,-0.0006087986403144896,-0.0001227717293659225,-0.002205097349360585
1772643962721737000,4.014737060546875,-0.0031140341889113188,-0.0010269149206578732,-0.001528920722194016
1772643962731777800,4.02477783203125,-0.000979244359768927,-0.0011981561547145247,-0.001713744131848216
1772643962741819000,4.03481884765625,-0.0020762004423886538,-0.0015515576815232635,-0.0023222763556987047
1772643962751860000,4.04485986328125,0.0002585929469205439,-0.0008945558220148087,-0.002885801251977682
1772643962761900800,4.05490087890625,-0.0006239786162041128,-0.0007459514308720827,-0.0023960459511727095
1772643962771942000,4.06494189453125,-0.0014942996203899384,-0.0014410364674404263,-0.002889263443648815
1772643962781982000,4.07498193359375,0.0003129214164800942,-0.0012687299167737365,-0.001802693703211844
1772643962792023000,4.08502294921875,-0.0009182579233311117,-0.0013257216196507215,-0.003168362658470869
1772643962802064000,4.09506396484375,-0.0008130630594678223,-0.0011206581257283688,-0.0030091057997196913
1772643962812105000,4.10510498046875,-0.0011648666113615036,-0.0016698020044714212,-0.0028780782595276833
1772643962822146000,4.11514599609375,-0.0014106763992458582,-0.0003587277897167951,-0.002413356676697731
1772643962832187000,4.125186767578125,-0.0011757856700569391,-0.000963797967415303,-0.0031995216850191355
1772643962842227000,4.13522705078125,-0.0035127094015479088,-0.0005342300864867866,-0.00227886694483459
1772643962852268000,4.14526806640625,-0.0006492786924354732,-0.002180596347898245,-0.0016429040115326643
1772643962862308900,4.155308837890625,-0.0013038836186751723,0.0002897519152611494,-0.0033329459838569164
1772643962872350000,4.165349853515625,-0.0014306501252576709,-0.0013281183782964945,-0.0039017973467707634
1772643962882391000,4.17539111328125,-0.001303351018577814,0.0001704423048067838,-0.0015952334506437182
1772643962892432000,4.185431884765625,-0.002103098202496767,-0.0008929579053074121,-0.003576359013095498
1772643962902472000,4.195471923828125,-0.0007371630053967237,-0.0018788601737469435,-0.002873817225918174
1772643962912513000,4.205512939453125,-0.0007680556736886501,-0.0008708536624908447,-0.0019057580502703786
1772643962922554000,4.21555419921875,-0.0008748483960516751,-0.0003808320325333625,-0.002418949268758297
1772643962932595000,4.225594970703125,-0.0009387642494402826,-0.0007060039788484573,-0.003982757218182087
1772643962942636000,4.235635986328125,-0.0008958873804658651,-0.0008189220097847283,-0.001213602488860488
1772643962952677000,4.245677001953125,-0.000761664065066725,-0.0006756439688615501,-0.0032642364967614412
1772643962962716700,4.255716552734375,-0.0016945693641901016,-0.000592287047766149,-0.0028503811918199062
1772643962972757500,4.265757568359375,-0.0016700683627277613,-0.001811748486943543,-0.0024583640042692423
1772643962982798600,4.275798583984375,-0.0009970874525606632,-0.002401372417807579,-0.00202320353128016
1772643962992839700,4.285839599609375,-0.0011496866354718804,-0.00037683729897253215,-0.0029374666046351194
1772643963002880500,4.295880615234375,-0.001528920722194016,-0.0009361011325381696,-0.0019435749854892492
1772643963012921600,4.305921630859375,-0.0013403689954429865,-0.001008539111353457,-0.002898584585636854
1772643963022961700,4.315961669921875,-0.00003009372085216455,-0.0004308994684834033,-0.001591771375387907
1772643963033002500,4.32600244140625,-0.0017475662752985954,-0.0007957525085657835,-0.0021907163318246603
1772643963043043600,4.336043701171875,-0.0006178533658385277,-0.0013108078856021166,-0.0028367992490530014
1772643963053084700,4.346084716796875,-0.0015092133544385433,-0.0013456953456625342,-0.0026008430868387222
1772643963063125500,4.35612548828125,-0.0008972189389169216,-0.000523577444255352,-0.002650644164532423
1772643963073166600,4.36616650390625,-0.0013353090034797788,-0.0007954862085171044,-0.002778209513053298
1772643963083206400,4.376206298828125,-0.00022264027211349458,-0.0008343683439306915,-0.002264752285555005
1772643963093247700,4.386247802734375,-0.0006681871018372476,-0.000535561703145504,-0.0026314693968743086
1772643963103288600,4.39628857421875,-0.0008165251929312944,-0.0020809939596801996,-0.002996056107804179
1772643963113329700,4.40632958984375,-0.0010159959783777595,-0.001686579897068441,-0.0016048208344727755
1772643963123370800,4.416370849609375,-0.0004593952908180654,-0.0014024205738678575,-0.0038035267498344183
1772643963133410600,4.42641064453125,-0.0013691311469301581,-0.0018540926976129413,-0.001927862293086946
1772643963143451400,4.436451416015625,-0.0012175972806289792,-0.0019861855544149876,-0.001957956003025174
1772643963153492500,4.446492431640625,0.0005560680292546749,-0.0014711301773786545,-0.003507649526000023
1772643963163533600,4.456533447265625,-0.0007611314067617059,-0.001612011343240738,0.00017443705291952938
1772643963173574400,4.466574462890625,-0.0018410432385280728,-0.0010556770721450448,-0.0021555626299232244
1772643963183615500,4.476615478515625,-0.0006463492172770202,-0.0017859158106148243,-0.003014165675267577
1772643963193655600,4.486655517578125,-0.000919323181733489,-0.00009960222087102011,-0.0019923108629882336
1772643963203696400,4.4966962890625,-0.00018189390539191663,-0.000480434246128425,-0.002217081608250737
1772643963213737500,4.506737548828125,-0.0011909656459465623,-0.0021528995130211115,-0.0014911039033904672
1772643963223778600,4.516778564453125,-0.0015584818320348859,-0.0014500912511721253,-0.001463939668610692
1772643963233819400,4.5268193359375,0.0001906823308672756,-0.0011867046123370528,-0.003922570031136274
1772643963243860500,4.536860595703125,-0.001118527608923614,0.0001757686259225011,-0.004196076653897762
1772643963253900500,4.546900634765625,0.0008162588928826153,-0.0023497070651501417,-0.0026341325137764215
1772643963263941600,4.556941650390625,-0.0009867012267932296,-0.000749679864384234,-0.0018239989876747131
1772643963273982500,4.566982421875,-0.001321194227784872,-0.00170761882327497,-0.0017089504981413484
1772643963284023600,4.5770234375,0.00040986048406921327,-0.0014652712270617485,-0.004283161833882332
1772643963294064600,4.587064697265625,-0.001017593895085156,-0.00012170646368758753,-0.0022652847692370415
1772643963304105500,4.59710546875,-0.0001257012045243755,-0.0015909724170342088,-0.003864246653392911
1772643963314145500,4.6071455078125,-0.0007443535141646862,-0.0006458165589720011,-0.002356098499149084
1772643963324186600,4.6171865234375,-0.000004261057711119065,-0.0010980212828144431,-0.001969940261915326
1772643963334227500,4.6272275390625,-0.0007701861904934049,-0.002680737990885973,-0.0012072109384462237
1772643963344268500,4.6372685546875,-0.0014144048327580094,-0.0013156015193089843,-0.002614957746118307
1772643963354309600,4.6473095703125,-0.0011867046123370528,-0.0009297095239162445,-0.0016189356101676822
1772643963364350500,4.6573505859375,-0.00202320353128016,-0.0011976235546171665,-0.001406947965733707
1772643963374390500,4.667390625,-0.0017204020405188203,0.00006764429417671636,-0.002389121800661087
1772643963384431600,4.677431640625,-0.0005731122801080346,-0.0006223807577043772,-0.003534547286108136
1772643963394472700,4.68747265625,-0.0021169467363506556,0.0001507349224993959,-0.001945705502294004
1772643963404513500,4.697513427734375,-0.00015872440417297184,-0.0013073458103463054,-0.000639691308606416
1772643963414554600,4.7075546875,-0.0005864280392415822,-0.00027537086862139404,-0.002401372417807579
1772643963424595700,4.717595703125,-0.0016532903537154198,-0.002007490722462535,-0.0023004384711384773
1772643963434635500,4.727635498046875,-0.0011062771081924438,-0.0012855078093707561,-0.002912166528403759
1772643963444676600,4.737676513671875,-0.0020509003661572933,-0.001115864492021501,-0.0036274916492402554
1772643963454717700,4.7477177734375,-0.0009187905816361308,-0.00010998855577781796,-0.0018836538074538112
1772643963464758500,4.757758544921875,-0.0003371562052052468,-0.0006993460701778531,-0.0036722328513860703
1772643963474799600,4.767799560546875,-0.0026261431630700827,-0.0016112125013023615,-0.0022650184109807014
1772643963484840700,4.7778408203125,-0.00037497308221645653,-0.00033209618413820863,-0.0016000272007659078
1772643963494880500,4.787880615234375,-0.0002689792599994689,-0.0019124159589409828,-0.0016676714876666665
1772643963504921300,4.79792138671875,0.00017363809456583112,-0.0015433018561452627,-0.0024024376180022955
1772643963514962400,4.80796240234375,-0.0012831110507249832,-0.0017907095607370138,-0.0019236012594774365
1772643963525003500,4.81800341796875,-0.0009872338268905878,-0.0016349145444110036,-0.002441852353513241
1772643963535044400,4.82804443359375,0.0009464874165132642,-0.0011233213590458035,-0.0014950985787436366
1772643963545084400,4.83808447265625,-0.0021789984311908484,-0.0008873652550391853,-0.0030370689928531647
1772643963555125500,4.84812548828125,0.0007179882377386093,-0.0006508765509352088,-0.002573146251961589
1772643963565166600,4.85816650390625,0.00022397184511646628,-0.00034887410583905876,-0.0022572954185307026
1772643963575207400,4.86820751953125,-0.0011044129496440291,-0.0007510114228352904,-0.0017222663154825568
1772643963585248500,4.87824853515625,-0.0014620753936469555,-0.0019494339358061552,-0.0015246596885845065
1772643963595289300,4.888289306640625,-0.0002311623829882592,-0.00025486451340839267,-0.0036365464329719543
1772643963605329400,4.898329345703125,-0.001300155185163021,-0.0015630092239007354,-0.004500475712120533
1772643963615370500,4.90837060546875,-0.000669252360239625,-0.0014562164433300495,-0.0016559535870328546
1772643963625411600,4.91841162109375,0.0010287790792062879,-0.0005597964627668262,-0.003037867834791541
1772643963635452400,4.928452392578125,-0.0013371731620281935,-0.001942509668879211,-0.0037798245903104544
1772643963645493500,4.938493408203125,-0.002118278294801712,-0.0018322548130527139,-0.0021166803780943155
1772643963655534600,4.94853466796875,-0.0016977651976048946,-0.0006487460341304541,-0.0025246767327189445
1772643963665574700,4.95857470703125,0.0005126585019752383,0.00039308256236836314,-0.0017041567480191588
1772643963675615500,4.968615478515625,-0.0002300971100339666,-0.0020327907986938953,-0.003198456484824419
1772643963685656600,4.978656494140625,0.0005605954211205244,-0.0016050871927291155,-0.0011089402250945568
1772643963695697700,4.98869775390625,0.00012223910016473383,-0.0015430354978889227,-0.0024626250378787518
1772643963705738500,4.998738525390625,-0.0002801645314320922,-0.0007451524725183845,-0.00256435782648623
1772643963715779600,5.008779541015625,-0.0011289139511063695,-0.0008665926288813353,-0.00239151855930686
1772643963725819600,5.018819580078125,-0.002159823663532734,-0.0010128001449629664,-0.002299106912687421
1772643963735860500,5.028860595703125,-0.0011579424608498812,-0.0004135889175813645,-0.0019262643763795495
1772643963745901600,5.038901611328125,-0.00035127095179632306,-0.0015795208746567369,-0.003561711637303233
1772643963755942700,5.048942626953125,-0.0011004181578755379,-0.001377919572405517,-0.002299905987456441
1772643963765983500,5.0589833984375,-0.0017132115317508578,-0.0015936355339363217,-0.0019403791520744562
1772643963776023600,5.0690234375,-0.0009257147903554142,-0.00015899071877356619,-0.002965163439512253
1772643963786064600,5.079064697265625,-0.0006729807937517762,-0.0007629956235177815,-0.0018767296569421887
1772643963796105700,5.089105712890625,-0.0002593918761704117,-0.0009054747642949224,-0.0027348001021891832
1772643963806146600,5.099146484375,-0.0006210491410456598,-0.00009081379539566115,-0.0041643851436674595
1772643963816187600,5.109187744140625,-0.0009954896522685885,-0.0011028150329366326,-0.0018189389957115054
1772643963826228700,5.119228759765625,-0.0012743226252496243,0.0007904262165538967,-0.002208026824519038
1772643963836268500,5.1292685546875,-0.0011973571963608265,-0.0006530070677399635,-0.0016450346447527409
1772643963846309400,5.139309326171875,-0.0006002765148878098,-0.00010279801790602505,-0.001505484920926392
1772643963856350500,5.1493505859375,-0.0009142631897702813,-0.0016495619202032685,-0.0022801985032856464
1772643963866391300,5.159391357421875,-0.000565122754778713,-0.0012772521004080772,-0.0033872744534164667
1772643963876432400,5.169432373046875,0.00005299690383253619,-0.0013829795643687248,-0.0020996362436562777
1772643963886473500,5.179473388671875,-0.00024527712957933545,-0.0014748586108908057,-0.0024586303625255823
1772643963896513500,5.189513427734375,-0.002026399364694953,-0.0009084042394533753,-0.002037318190559745
1772643963906554400,5.199554443359375,-0.00007936220208648592,-0.00010040117194876075,-0.002966495230793953
1772643963916595500,5.209595458984375,-0.0005456816870719194,-0.0016253271605819464,-0.0010458233300596476
1772643963926636500,5.219636474609375,-0.0010732539230957627,-0.0005526058957912028,-0.0017281252657994628
1772643963936677400,5.229677490234375,-0.0009440905996598303,-0.0009009473724290729,-0.0012551478575915098
1772643963946718500,5.239718505859375,-0.0013342436868697405,-0.000707868195604533,-0.0031915323343127966
1772643963956758500,5.249758544921875,-0.0016085492679849267,-0.00043782367720268667,-0.0019627497531473637
1772643963966799000,5.259799072265625,-0.0003992078418377787,-0.0007211840129457414,-0.0017534252256155014
1772643963976840000,5.26983984375,-0.000179230744834058,-0.002311623888090253,-0.0014231932582333684
1772643963986881000,5.279881103515625,0.00022663500567432493,-0.00042637207661755383,-0.0016594156622886658
1772643963996922000,5.289922119140625,-0.0019526296528056264,-0.0006343649583868682,-0.0026961842086166143
1772643964006962000,5.2999619140625,-0.0014146711910143495,-0.0020655477419495583,-0.0032232238445430994
1772643964020768000,5.31376806640625,-0.0013667342718690634,-0.0007960188668221235,-0.002014415105804801
1772643964030808800,5.323808837890625,-0.0028506475500762463,-0.001460477476939559,-0.0027542412281036377
1772643964040850000,5.333849853515625,0.00028815402765758336,-0.000494016392622143,-0.0012170645641162992
1772643964050891000,5.34389111328125,-0.00022210762836039066,-0.0006948187365196645,-0.0031814121175557375
1772643964060931800,5.353931884765625,-0.0013275857781991363,-0.000012783173588104546,-0.003043194068595767
1772643964070972000,5.363971923828125,-0.0006332996999844909,-0.000600809114985168,-0.0019076223252341151
1772643964081013000,5.374012939453125,-0.0010050770360976458,-0.0003278351214248687,-0.0025995115283876657
1772643964091054000,5.38405419921875,-0.0015883093001320958,-0.0020008329302072525,-0.00210709311068058
1772643964101095000,5.394094970703125,-0.0005507417372427881,-0.00036432043998502195,-0.002424275502562523
1772643964111136000,5.404135986328125,-0.0018072210950776935,-0.0015504923649132252,-0.002499376656487584
1772643964121176800,5.4141767578125,-0.0007091998122632504,-0.001014131703414023,-0.0017784589435905218
1772643964131217000,5.424216796875,-0.0007656587986275554,-0.000526506919413805,-0.002638926263898611
1772643964141258000,5.434258056640625,-0.0006482133758254349,-0.0028338697738945484,-0.0020519655663520098
1772643964151299000,5.444299072265625,0.0006050702068023384,-0.0007683219737373292,-0.0018679412314668298
1772643964161340000,5.45433984375,-0.002019208623096347,-0.0008612662786617875,-0.0029736857395619154
1772643964171381000,5.464381103515625,-0.0016951019642874599,-0.0016801883466541767,-0.0016767261549830437
1772643964181422000,5.474422119140625,-0.002755839144811034,-0.0005456816870719194,-0.0016903083305805922
1772643964191462000,5.4844619140625,-0.0004993426846340299,-0.0014567491598427296,-0.0012112056137993932
1772643964201502700,5.494502685546875,-0.0007805725326761603,-0.0016737966798245907,-0.0019406455103307962
1772643964211543800,5.504543701171875,-0.003203782718628645,-0.0009054747642949224,-0.001621332485228777
1772643964221585000,5.5145849609375,-0.00007376955909421667,-0.0014170679496601224,-0.002585396869108081
1772643964231625700,5.524625732421875,-0.0013949638232588768,-0.0023393207229673862,-0.0034972631838172674
1772643964241666800,5.534666748046875,-0.000841825210954994,-0.0016138756182044744,-0.0035446672700345516
1772643964251707000,5.544706787109375,-0.0008487494196742773,-0.0003427488263696432,-0.001127582392655313
1772643964261747700,5.554747802734375,0.00013448962999973446,-0.0005829659639857709,-0.0032434638123959303
1772643964271788800,5.564788818359375,-0.0016519587952643633,0.002204298507422209,-0.003546531544998288
1772643964281830000,5.574829833984375,0.0002258360618725419,-0.0007422229973599315,-0.002561161993071437
1772643964291870700,5.58487060546875,-0.001668736687861383,0.0005901564727537334,-0.0028881982434540987
1772643964301910800,5.594910888671875,-0.0008253136184066534,-0.0009624664089642465,-0.0029678267892450094
1772643964311952000,5.604951904296875,-0.00039547940832562745,-0.0020762004423886538,-0.002010686555877328
1772643964321993000,5.614992919921875,-0.001570998691022396,-0.00007137271313695237,-0.0019387812353670597
1772643964332033800,5.62503369140625,-0.0004996090428903699,-0.0011249192757532,-0.004239486064761877
1772643964342075000,5.635074951171875,-0.00033103092573583126,0.0004905542591586709,-0.0015401060227304697
1772643964352116000,5.645115966796875,-0.0015060176374390721,-0.0005803027888759971,-0.0015337144723162055
1772643964362156800,5.65515673828125,-0.0008029430755414069,-0.0014942996203899384,-0.0009736517095007002
1772643964372198000,5.665197998046875,-0.0018218684708699584,-0.0005669869715347886,-0.0034328147303313017
1772643964382238000,5.675238037109375,-0.0005885586142539978,0.00029827404068782926,-0.0029979203827679157
1772643964392278800,5.68527880859375,-0.0000953411654336378,-0.0006093312404118478,-0.003479952458292246
1772643964402320000,5.69531982421875,-0.0017547567840665579,0.00015819176041986793,-0.002073537092655897
1772643964412361000,5.70536083984375,-0.001067661214619875,-0.0007129282457754016,-0.0017864484107121825
1772643964422401800,5.71540185546875,-0.0006588660762645304,-0.0015773903578519821,-0.0014234596164897084
1772643964432441900,5.72544189453125,-0.0012892362428829074,-0.00040613205055706203,-0.0025278725661337376
1772643964442483000,5.73548291015625,-0.0010905644157901406,0.00009667274571256712,-0.002382996492087841
1772643964452524000,5.74552392578125,-0.0015843145083636045,-0.001558748190291226,-0.0018181400373578072
1772643964462564900,5.75556494140625,-0.0018937737913802266,-0.0012610068079084158,-0.0021078919526189566
1772643964472606000,5.76560595703125,-0.0003195793251506984,-0.0011134676169604063,-0.0044293696992099285
1772643964482647000,5.77564697265625,-0.0009542105835862458,-0.0008625978953205049,-0.0037830201908946037
1772643964492687000,5.78568701171875,-0.0013843111228197813,-0.0017843178939074278,-0.0022085595410317183
1772643964502728000,5.79572802734375,-0.0002711098059080541,-0.0010567422723397613,-0.0023521038237959146
1772643964512769000,5.80576904296875,-0.0006857639527879655,0.0009693906176835299,-0.004227501805871725
1772643964522809900,5.815809814453125,-0.0021795309148728848,-0.00098217383492738,-0.002682602033019066
1772643964532851000,5.825850830078125,0.00011771172285079956,-0.0001877528557088226,-0.0033308155834674835
1772643964542892000,5.83589208984375,-0.0010463559301570058,-0.000907338981050998,-0.002543318783864379
1772643964552932000,5.84593212890625,-0.0005930859479121864,-0.0021635519806295633,-0.001537975505925715
1772643964562973000,5.855972900390625,-0.001784850494004786,0.00020160128769930452,-0.001942243310622871
1772643964573014000,5.866013916015625,-0.000630636524874717,-0.0010836402652785182,-0.003963049966841936
1772643964583055000,5.87605517578125,-0.0015009575290605426,-0.001100950757972896,-0.0024258734192699194
1772643964593096000,5.886095947265625,-0.0014343785587698221,-0.0006980145117267966,-0.0021318604703992605
1772643964603137000,5.896136962890625,-0.0010804444318637252,-0.0004551342281047255,-0.00310524576343596
1772643964613176800,5.9061767578125,-0.0018471685471013188,-0.0009408948244526982,-0.001671932521276176
1772643964623218000,5.916218017578125,-0.001910285442136228,-0.0023782027419656515,-0.001603755634278059
1772643964633258800,5.9262587890625,-0.0005611280212178826,-0.001336107961833477,-0.002320678671821952
1772643964643299800,5.9362998046875,-0.0017094830982387066,-0.0009001484140753746,-0.0031555795576423407
1772643964653341000,5.9463408203125,-0.00046605319948866963,-0.0011606055777519941,-0.0013036173768341541
1772643964663381800,5.9563818359375,0.0009717874927446246,-0.0006013417732901871,-0.0017145430902019143
1772643964673421800,5.966421875,-0.0020327907986938953,-0.0017182715237140656,-0.0030658310279250145
1772643964683463000,5.976462890625,-0.0017845842521637678,-0.0009440905996598303,-0.0005350290448404849
1772643964693503700,5.986503662109375,-0.0004572647449094802,-0.00027563716867007315,-0.0016825852217152715
1772643964703544800,5.996544921875,-0.0007574030314572155,-0.0007166566210798919,-0.0017054883064702153
1772643964713586000,6.0065859375,-0.002775546396151185,-0.0006266417913138866,-0.0016226640436798334
1772643964723626000,6.0166259765625,-0.00023622238950338215,-0.0017963021527975798,-0.003364637726917863
1772643964733666800,6.026666748046875,-0.0012327772565186024,0.0001203748834086582,-0.0035329493694007397
1772643964743708000,6.0367080078125,-0.00122558674775064,-0.0014594122767448425,-0.0033427998423576355
1772643964753749000,6.0467490234375,-0.0007470166892744601,0.000054861116950633004,-0.001529453438706696
1772643964763789800,6.056789794921875,-0.0016892430139705539,-0.001972337020561099,-0.002666356973350048
1772643964773831000,6.066830810546875,-0.0008338357438333333,0.00013795174891129136,-0.0028423918411135674
1772643964783871000,6.07687109375,-0.0013009541435167193,-0.0005704491049982607,-0.0032615733798593283
1772643964793911800,6.086911865234375,-0.0009198558400385082,-0.0005147890187799931,-0.0019955066964030266
1772643964803953000,6.096952880859375,-0.002010952914133668,-0.0010149306617677212,-0.0027457191608846188
1772643964813994000,6.106993896484375,-0.002245843643322587,-0.0010431602131575346,-0.0009896307019516826
1772643964824034800,6.117034912109375,-0.0008474178612232208,-0.0004961469094268978,-0.0024045680183917284
1772643964834075000,6.127074951171875,-0.0001507349224993959,-0.0002748382103163749,-0.0031039142049849033
1772643964844116000,6.137115966796875,-0.0006458165589720011,-0.0023089605383574963,-0.0013134710025042295
1772643964854157000,6.147156982421875,-0.0007102650706656277,-0.0018604843644425273,-0.0027268105186522007
1772643964864198000,6.157197998046875,-0.0002567287301644683,-0.0012799152173101902,-0.0023811322171241045
1772643964874239000,6.167239013671875,0.000028762138754245825,-0.0006447513005696237,-0.0032658344134688377
1772643964884280000,6.177280029296875,-0.0005307680112309754,-0.0002926813904196024,-0.001657018787227571
1772643964894320000,6.187320068359375,-0.00015899071877356619,-0.00123783724848181,-0.0007550061563961208
1772643964904361000,6.19736083984375,-0.0010791128734126687,-0.00017177389236167073,-0.0026325348298996687
1772643964914402000,6.207402099609375,-0.0009182579233311117,-0.0012487561907619238,-0.0008335694437846541
1772643964924443000,6.21744287109375,-0.001449292292818427,-0.0005203816690482199,-0.0014082795241847634
1772643964934484000,6.22748388671875,-0.000630636524874717,-0.0004647216119337827,-0.0010812433902174234
1772643964944525000,6.237525146484375,-0.001202150946483016,-0.0011715245200321078,-0.0031939290929585695
1772643964954564900,6.24756494140625,-0.0001560612436151132,-0.000922252656891942,-0.0030477214604616165
1772643964964606700,6.257606689453125,-0.0003126551164314151,-0.001284708851017058,-0.0030445256270468235
1772643964974647800,6.267647705078125,-0.0004593952908180654,-0.0011233213590458035,-0.0015385081060230732
1772643964984688600,6.277688720703125,-0.0006285060080699623,-0.0010370349045842886,-0.002555569401010871
1772643964994729700,6.287729736328125,-0.0012205267557874322,-0.0012863067677244544,-0.00347409350797534
1772643965004770800,6.297770751953125,-0.0011174624087288976,-0.00025832661776803434,-0.0025126924738287926
1772643965014811000,6.307810791015625,-0.000907338981050998,-0.00185063062235713,-0.0020849888678640127
1772643965024851700,6.317851806640625,-0.0013422331539914012,-0.001651426195167005,-0.0022477079182863235
1772643965034892800,6.327892822265625,-0.0010626012226566672,-0.0005581985460594296,-0.0032229574862867594
1772643965044934000,6.337933837890625,0.00030839405371807516,-0.00017417073831893504,-0.002627741079777479
1772643965054974700,6.347974609375,-0.0016341155860573053,-0.0020442423410713673,-0.0012082761386409402
1772643965065014500,6.3580146484375,-0.0005731122801080346,-0.000734766130335629,-0.0027121631428599358
1772643965075055600,6.3680556640625,-0.0012607404496520758,-0.0005624596378766,-0.004049070179462433
1772643965085096700,6.3780966796875,-0.0014631407102569938,-0.0014969628537073731,-0.0033393376506865025
1772643965095137500,6.388137451171875,-0.0007171892793849111,-0.00021385183208622038,-0.002606702037155628
1772643965105178600,6.3981787109375,0.00031425300403498113,-0.0004117247008252889,-0.004531368613243103
1772643965115219700,6.4082197265625,-0.0018343853298574686,-0.0008588694618083537,-0.0017185378819704056
1772643965125259500,6.418259521484375,-5.326322138898831e-7,-0.0012833772925660014,-0.002528405049815774
1772643965135300600,6.428300537109375,0.0007219829712994397,0.0008964200387708843,-0.002360093407332897
1772643965145341700,6.438341796875,-0.0012234562309458852,-0.0010871023405343294,-0.0026431872975081205
1772643965155382500,6.448382568359375,-0.0018170748371630907,-0.0005307680112309754,-0.004854143597185612
1772643965165423600,6.458423583984375,0.0002689792599994689,-0.0011486213188618422,-0.0018271948210895061
1772643965175464700,6.468464599609375,-0.00047830372932367027,-0.00017417073831893504,-0.002386458683758974
1772643965185504800,6.4785048828125,-0.0012980246683582664,-0.0019142802339047194,-0.0016381103778257966
1772643965195545600,6.488545654296875,-0.001877262257039547,-0.0011622034944593906,-0.0015547533985227346
1772643965205586700,6.498586669921875,-0.0004751079250127077,-0.0017422399250790477,-0.001805889536626637
1772643965215627800,6.508627685546875,-0.0012964267516508698,-0.0011166634503751993,-0.0017385114915668964
1772643965225668600,6.518668701171875,-0.0016468988033011556,-0.0015081481542438269,-0.0023427826818078756
1772643965235708700,6.528708740234375,-0.001252750982530415,-0.0014828480780124664,-0.002472745021805167
1772643965245749800,6.538749755859375,-0.0011627360945567489,-0.0015030881622806191,-0.0031518512405455112
1772643965255790600,6.54879052734375,-0.0003105245705228299,-0.00005193164179218002,-0.0032629049383103848
1772643965265831700,6.558831787109375,-0.0027089675422757864,-0.000943025341257453,-0.0035601137205958366
1772643965275872800,6.568872802734375,0.0003504719934426248,-0.00017017599020618945,-0.0023987090680748224
1772643965285913600,6.57891357421875,-0.001874066423624754,-0.0014556838432326913,-0.0029406624380499125
1772643965295953700,6.58895361328125,-0.0009544769418425858,-0.0024746092967689037,-0.002267149044200778
1772643965305994800,6.598994873046875,-0.00020399813365656883,-0.00040719733806326985,-0.0022682142443954945
1772643965316035800,6.609035888671875,-0.0010343717876821756,-0.0009092031978070736,-0.0012695288751274347
1772643965326076700,6.61907666015625,-0.0025150892324745655,-0.0011523497523739934,-0.0019358517602086067
1772643965336117800,6.62911767578125,-0.0011179950088262558,-0.0018138790037482977,-0.0014165353495627642
1772643965346157800,6.63915771484375,-0.0018500980222597718,-0.0007696535321883857,-0.003631486324593425
1772643965356199000,6.649198974609375,-0.0016508935950696468,-0.0013462279457598925,-0.0019795275293290615
1772643965366239700,6.65923974609375,-0.0012982910266146064,0.0007459514308720827,-0.0017369136912748218
1772643965376280800,6.66928076171875,-0.00018615495355334133,-0.0003808320325333625,-0.002965962514281273
1772643965386321700,6.67932177734375,-0.0017662084428593516,-0.002094576135277748,-0.0034732946660369635
1772643965396362800,6.68936279296875,-0.002124669961631298,-0.0015422365395352244,-0.0026932547334581614
1772643965406402600,6.699402587890625,0.000007190534688561456,-0.0011174624087288976,-0.0025393241085112095
1772643965416443600,6.709443603515625,0.001377919572405517,-0.0007563377148471773,-0.001814944320358336
1772643965426484500,6.719484375,-0.001805623178370297,-0.002043177140876651,-0.0022069616243243217
1772643965436525600,6.729525634765625,-0.0005422196118161082,-0.0017771273851394653,-0.0012261193478479981
1772643965446566700,6.739566650390625,-0.003287938656285405,-0.0010450243717059493,-0.0012037487467750907
1772643965456607700,6.749607666015625,0.000027430558475316502,-0.00016484966909047216,-0.0018676748732104897
1772643965466647600,6.7596474609375,-0.00037816885742358863,-0.0013757890556007624,-0.002575809368863702
1772643965476688600,6.769688720703125,-0.00016325176693499088,-0.00021065604232717305,-0.0034027209039777517
1772643965486729700,6.779729736328125,-0.0018253305461257696,0.00005299690383253619,-0.0027513117529451847
1772643965496770600,6.7897705078125,-0.001050084363669157,-0.0012905678013339639,-0.0031577101908624172
1772643965506811600,6.799811767578125,-0.0006221143994480371,-0.00027270769351162016,-0.0020501012913882732
1772643965516851700,6.809851806640625,-0.0012024171883240342,-0.0013174657942727208,-0.001927862293086946
1772643965526892500,6.819892578125,-0.0009475527331233025,0.000010652644050423987,-0.002660231664776802
1772643965536933600,6.82993359375,-0.000987500068731606,-0.001261805766262114,-0.001731853699311614
1772643965546974700,6.839974609375,-0.0014833806781098247,0.0006775081856176257,-0.0021403825376182795
1772643965557015600,6.850015625,-0.0014141384745016694,-0.0007060039788484573,-0.0018165421206504107
1772643965567056600,6.860056640625,-0.001582716591656208,-0.002246642718091607,-0.002552639925852418
1772643965577096700,6.8700966796875,-0.0018160095205530524,-0.001752093667164445,-0.0012029499048367143
1772643965587137800,6.8801376953125,-0.000949150591623038,-0.001281779375858605,-0.0006862966110929847
1772643965597178600,6.8901787109375,-0.0012564794160425663,-0.0028644960839301348,-0.003965979442000389
1772643965607219700,6.9002197265625,-0.0013134710025042295,-0.0008239820599555969,-0.0010988202411681414
1772643965617260800,6.9102607421875,-0.00020293287525419146,-0.0006167881074361503,-0.0031398669816553593
1772643965627301600,6.920301513671875,-0.0027806065045297146,-0.0016492956783622503,-0.0005233111442066729
1772643965637341700,6.930341796875,0.0007555388147011399,-0.0011163970921188593,-0.0024668860714882612
1772643965647382800,6.9403828125,-0.00011238539445912465,0.000021305288100847974,-0.0002889529860112816
1772643965657423600,6.950423583984375,-0.0011499529937282205,-0.0017568873008713126,-0.0030631679110229015
1772643965667464700,6.960464599609375,-0.0005275722360238433,-0.0014777880860492587,-0.001847434788942337
1772643965677505800,6.970505859375,-0.0011137339752167463,-0.0002798982313834131,-0.0030605047941207886
1772643965687545900,6.9805458984375,-0.0011345066595822573,-0.0006242449744604528,-0.003001648932695389
1772643965697586700,6.990586669921875,-0.0011329087428748608,-0.0006596649764105678,-0.001288171042688191
1772643965707627800,7.000627685546875,-0.0015773903578519821,0.0007054713787510991,-0.0027601001784205437
1772643965717668900,7.0106689453125,-0.0011382350930944085,0.000010918960470007733,-0.0016311861108988523
1772643965727709700,7.020709716796875,-0.0004868258547503501,-0.00044554684427566826,-0.0036043222062289715
1772643965737750800,7.030750732421875,-0.0016381103778257966,-0.0017811221769079566,-0.003200586885213852
1772643965747790800,7.040790771484375,-0.0010061422362923622,-0.0005912217311561108,-0.00270683690905571
1772643965757832000,7.05083203125,-0.0011113371001556516,-0.0008519452530890703,-0.0025454494170844555
1772643965767872800,7.060872802734375,-0.0010692591313272715,-0.0003400856803636998,-0.00155262288171798
1772643965777913900,7.070913818359375,0.0006103964988142252,-0.00030546457855962217,-0.004021639470010996
1772643965787954700,7.08095458984375,-0.0012450277572497725,-0.0009030779474414885,-0.001582982949912548
1772643965797994500,7.090994384765625,-0.00039760995423421264,-0.0011105381418019533,-0.0025209481827914715
1772643965808035600,7.10103564453125,-0.0006838997360318899,-0.0006910903030075133,-0.0033302828669548035
1772643965818076700,7.11107666015625,-0.0008530105114914477,-0.001315068919211626,-0.0028541097417473793
1772643965828117500,7.121117431640625,-0.001728657865896821,-0.0008530105114914477,-0.0021789984311908484
1772643965838158600,7.13115869140625,-0.0016945693641901016,-0.0007709851488471031,-0.003094060579314828
1772643965848199700,7.14119970703125,-0.00000958738019107841,-0.0016860472969710827,-0.0024346618447452784
1772643965858239700,7.15123974609375,-0.0007427555974572897,-0.0008223841432482004,-0.0023843280505388975
1772643965868280600,7.161280517578125,-0.0010306433541700244,-0.0015393070643767715,-0.0028533106669783592
1772643965878321700,7.17132177734375,-0.0006311691831797361,-0.0012202603975310922,-0.002600576728582382
1772643965888362800,7.18136279296875,-0.0011821772204712033,-0.0018855180824175477,-0.0006953513366170228
1772643965898403600,7.191403564453125,0.000005060006060375599,-0.0008852347382344306,-0.00267780851572752
1772643965908443600,7.201443603515625,-0.0015038870042189956,-0.0019025622168555856,-0.0028386632911860943
1772643965918484700,7.211484619140625,0.00009187905379803851,-0.0008839031797833741,-0.0031489215325564146
1772643965928525600,7.221525634765625,-0.001535046030767262,-0.0009017463307827711,-0.0015076154377311468
1772643965938566700,7.231566650390625,-0.00005299690383253619,-0.00010093380114994943,-0.0029254823457449675
1772643965948607700,7.241607666015625,0.0017923073610290885,-0.000015978966985130683,-0.003579022129997611
1772643965958648600,7.251648681640625,0.00019254654762335122,-0.0005970807396806777,-0.0028879318851977587
1772643965968688000,7.261688232421875,-0.0015041533624753356,-0.0010929612908512354,-0.003887682454660535
1772643965978729200,7.271729248046875,-0.00013848437811248004,-0.0008729841792955995,-0.0019536949694156647
1772643965988770300,7.281770263671875,-0.00007376955909421667,-0.0008673915872350335,-0.0019355855183675885
1772643965998811100,7.29181103515625,0.00009427589975530282,-0.00129695946816355,-0.0030272151343524456
1772643966008852200,7.301852294921875,-0.000969656917732209,-0.0000029294772048160667,-0.002007490722462535
1772643966018893300,7.311893310546875,-0.0011952266795560718,-0.0011582087026908994,-0.002082591876387596
1772643966028933000,7.32193310546875,-0.00048070057528093457,-0.0025936525780707598,-0.0029965888243168592
1772643966038974000,7.331973876953125,0.00010865696822293103,-0.0012650014832615852,-0.0030133668333292007
1772643966049015000,7.34201513671875,-0.0015241270884871483,-0.0019241338595747948,-0.001820803270675242
1772643966059056000,7.35205615234375,0.0005118595436215401,-0.0012668657582253218,-0.0025393241085112095
1772643966069097000,7.362096923828125,-0.001210673013702035,-0.0008452873444184661,-0.002861566608771682
1772643966079137000,7.372136962890625,-0.00003834952076431364,-0.0017773937433958054,-0.0033899378031492233
1772643966089178000,7.38217822265625,-0.0014295848086476326,-0.0011062771081924438,-0.0031305458396673203
1772643966099219200,7.39221923828125,0.000675111310556531,-0.0016919062472879887,-0.002436259761452675
1772643966109260000,7.402260009765625,-0.0006229133578017354,-0.0005411543534137309,-0.0017563547007739544
1772643966119301000,7.412301025390625,-0.0006101301987655461,-0.0014170679496601224,-0.0023760723415762186
1772643966129342000,7.422342041015625,-0.0009805759182199836,-0.0008636631537228823,-0.002685531508177519
1772643966139382000,7.432382080078125,-0.0016588830621913075,-0.0017845842521637678,-0.0029372002463787794
1772643966149423000,7.442423095703125,-0.0015864450251683593,-0.000838895735796541,-0.0028932581190019846
1772643966159464200,7.452464111328125,-0.0002644518972374499,-0.0016522251535207033,-0.0026381274219602346
1772643966169505000,7.462505126953125,-0.0007597998483106494,-0.002493517706170678,-0.0024684839881956577
1772643966179546000,7.472546142578125,-0.0016098808264359832,0.000021837920940015465,-0.002290318487212062
1772643966189586200,7.482586181640625,-0.0012748552253469825,-0.0006495449924841523,-0.003230947069823742
1772643966199627300,7.492627197265625,-0.0011166634503751993,-0.0011997540714219213,-0.001005609636195004
1772643966209668000,7.502668212890625,-0.001413073274306953,-0.00017976337403524667,-0.0014682007022202015
1772643966219709200,7.512709228515625,0.000404534162953496,-0.0007017429452389479,-0.001525991247035563
1772643966229750300,7.522750244140625,0.0006095975404605269,-0.0006239786162041128,-0.0022184131667017937
1772643966239791000,7.532791015625,0.00022290658671408892,-0.0008671252289786935,-0.0029350698459893465
1772643966249831200,7.5428310546875,-0.001189900329336524,-0.0020181434229016304,-0.0013883059145882726
1772643966259872300,7.552872314453125,-0.0006135923322290182,-0.0011648666113615036,-0.0019648801535367966
1772643966269913000,7.5629130859375,-0.0008732505375519395,-0.0017097494564950466,-0.0023515713401138783
1772643966279954200,7.5729541015625,-0.0026517093647271395,0.00033902039285749197,-0.0016253271605819464
1772643966289995300,7.582995361328125,0.000050600061513250694,-0.001859419047832489,-0.003038134193047881
1772643966300035300,7.593035400390625,-0.0005139900604262948,-0.00028815402765758336,-0.0026341325137764215
1772643966310076200,7.603076171875,-0.00042876892257481813,-0.0011153318919241428,-0.0028274781070649624
1772643966320117200,7.6131171875,0.00018722022650763392,-0.0022740731947124004,-0.0031398669816553593
1772643966330158300,7.623158447265625,-0.0012399677652865648,-0.0002788329729810357,-0.0029526466969400644
1772643966340199200,7.63319921875,-0.0010093380697071552,-0.0013246563030406833,-0.0028189560398459435
1772643966350240300,7.643240234375,-0.0008444883860647678,-0.0009539442835375667,-0.003236006945371628
1772643966360280300,7.6532802734375,-0.0008018778171390295,-0.0013853764394298196,-0.0009390306076966226
1772643966370321200,7.663321044921875,-0.0014966964954510331,-0.0012231898726895452,-0.001859152689576149
1772643966380362200,7.6733623046875,-0.0013254552613943815,-0.00044794369023293257,-0.0022338596172630787
1772643966390403300,7.6834033203125,-0.0011036139912903309,-0.001793905277736485,-0.0015614113071933389
1772643966400444200,7.693444091796875,-0.0009291769238188863,-0.00012117382721044123,-0.003584614722058177
1772643966410484000,7.70348388671875,-0.0014833806781098247,-0.0006591323763132095,-0.001945705502294004
1772643966420525000,7.713525146484375,0.0005102616851218045,-0.0008266451768577099,-0.002636529505252838
1772643966430566100,7.723566162109375,-0.00013528858835343271,-0.0007962851668708026,-0.0030655646696686745
1772643966440607000,7.73360693359375,-0.0012932310346513987,-0.0006407565670087934,-0.0023209447972476482
1772643966450648000,7.74364794921875,-0.0017065536230802536,-0.0006263754912652075,-0.0033095101825892925
1772643966460689200,7.753689208984375,-0.0016879114555194974,-0.0020572920329868793,-0.0021315941121429205
1772643966470729200,7.763729248046875,-0.0014322480419650674,-0.0015877765836194158,-0.0034669029992073774
1772643966480770000,7.77377001953125,-0.00230816169641912,-0.0016969662392511964,-0.00281948852352798
1772643966490811100,7.78381103515625,-0.001891909632831812,-0.0017803232185542583,-0.0033217607997357845
1772643966500852200,7.793852294921875,-0.0025803367607295513,-0.00015180018090177327,-0.001184307737275958
1772643966510893000,7.80389306640625,-0.0018759306985884905,0.00047404266661033034,-0.0023193468805402517
1772643966520934100,7.81393408203125,-0.0008346347021870315,-0.0007342335302382708,-0.0032834112644195557
1772643966530974200,7.82397412109375,-0.0023933828342705965,-0.0014572817599400878,-0.002630936913192272
1772643966541015000,7.83401513671875,-0.0022825952619314194,-0.0002596582053229213,-0.0023963123094290495
1772643966551056100,7.84405615234375,-0.00040080572944134474,0.0002585929469205439,-0.00036911413189955056
1772643966561097200,7.85409716796875,-0.001528920722194016,-0.0001776328426785767,-0.001543568097986281
1772643966571138000,7.864137939453125,-0.0012386362068355083,-0.00015659387281630188,-0.0029196233954280615
1772643966581178000,7.87417822265625,-0.0005134574603289366,-0.00036724991514347494,-0.002252768026664853
1772643966591219200,7.88421923828125,-0.0008974852971732616,-0.00023036343918647617,-0.0029859361238777637
1772643966601260300,7.89426025390625,-0.0011028150329366326,-0.0005174521938897669,-0.003370496677234769
1772643966611301000,7.904301025390625,-0.001059139147400856,-0.0004953479510731995,-0.00148151651956141
1772643966621342200,7.91434228515625,-0.001847434788942337,-0.00180855265352875,-0.0023824640084058046
1772643966631382300,7.92438232421875,-0.000015978966985130683,-0.0004916195175610483,-0.0018809906905516982
1772643966641423000,7.934423095703125,0.0000327568814100232,-0.0011195929255336523,-0.0012591425329446793
1772643966651464200,7.944464111328125,-0.0012538161827251315,-0.0010450243717059493,-0.001002680161036551
1772643966661505300,7.95450537109375,-0.000031158982892520726,-0.0008117315010167658,-0.0027768779546022415
1772643966671546000,7.964546142578125,-0.0014527543680742383,-0.000261788722127676,-0.0034727619495242834
1772643966681587200,7.974587158203125,-0.0021193434949964285,-0.0010018812026828527,-0.0034075146540999413
1772643966691627300,7.984627197265625,-0.00044794369023293257,-0.0010487528052181005,-0.003976631909608841
1772643966701668400,7.99466845703125,-0.0012210593558847904,-0.0007206514128483832,-0.003162503708153963
1772643966711709200,8.004709228515624,-0.0014045510906726122,-0.0007179882377386093,-0.0022117553744465113
1772643966721750300,8.014750244140625,-0.0010215885704383254,-0.0020458402577787638,-0.0029350698459893465
1772643966731791400,8.024791259765625,-0.0009709885343909264,-0.00040613205055706203,-0.0022485069930553436
1772643966741831200,8.0348310546875,-0.00105301383882761,-0.00007936220208648592,-0.0020927118603140116
1772643966751872000,8.0448720703125,0.00013182646944187582,-0.0016391756944358349,-0.0020967067684978247
1772643966761913000,8.0549130859375,-0.0013305152533575892,-0.0006522081675939262,-0.0019715381786227226
1772643966771954200,8.0649541015625,-0.001187237212434411,-0.003061303636059165,-0.0017571536591276526
1772643966781995000,8.0749951171875,-0.00026525085559114814,-0.000636495475191623,-0.002529470482841134
1772643966792036000,8.0850361328125,0.0010902981739491224,-0.0018421085551381111,-0.0010450243717059493
1772643966802076200,8.095076171875,-0.0006482133758254349,-0.00041438787593506277,-0.0009358347742818296
1772643966812117000,8.105116943359375,0.0005781722720712423,-0.0008551410282962024,-0.0030341395176947117
1772643966822158000,8.115157958984375,0.0001257012045243755,-0.0010495517635717988,-0.0012799152173101902
1772643966832199200,8.12519921875,-0.0009241168736480176,-0.0006079996819607913,-0.0023454460315406322
1772643966842240000,8.135239990234375,-0.0015310513554140925,-0.001702026231214404,-0.0015132081462070346
1772643966852280000,8.145280029296876,-0.002429868094623089,-0.0005273058777675033,-0.0008135957177728415
1772643966862321200,8.155321044921875,-0.001017593895085156,-0.0003685815026983619,-0.002922020386904478
1772643966872362200,8.1653623046875,-0.0007835020078346133,-0.0006804376607760787,-0.0022333269007503986
1772643966882403000,8.175403076171875,0.0008085357258096337,-0.0014538196846842766,-0.0013102752855047584
1772643966892444200,8.185444091796874,-0.0016700683627277613,-0.001999235013499856,-0.0032461269292980433
1772643966902485200,8.1954853515625,-0.001698564155958593,-0.0004889564006589353,-0.003385144053027034
1772643966912525000,8.205525146484375,-0.0007235808880068362,-0.001597363967448473,-0.0009989517275243998
1772643966922566100,8.215566162109376,-0.0012492889072746038,-0.0010186590952798724,-0.0033755565527826548
1772643966932607200,8.225607177734375,-0.001891909632831812,-0.000672181835398078,-0.002508697798475623
1772643966942648000,8.23564794921875,0.0004138552176300436,-0.0017001620726659894,-0.0022772690281271935
1772643966952689200,8.245689208984375,-0.0013398362789303064,-0.0008868326549418271,-0.0027020431589335203
1772643966962729200,8.255729248046874,-0.0008455536444671452,-0.0014213290996849537,-0.002118011936545372
1772643966972770300,8.265770263671875,-0.0009347695158794522,-0.0006668555433861911,-0.003831756068393588
1772643966982811100,8.27581103515625,-0.0016495619202032685,-0.0012098740553483367,-0.0026458504144102335
1772643966992852200,8.285852294921876,-0.0008578042034059763,-0.0004777711001224816,-0.0013733921805396676
1772643967002893300,8.295893310546875,0.00004740426811622456,-0.00035926041891798377,-0.0025595640763640404
1772643967012934100,8.30593408203125,0.0003936151915695518,-0.00014940333494450897,-0.002804841147735715
1772643967022974200,8.31597412109375,-0.0010700580896809697,-0.0014354437589645386,-0.002508964156731963
1772643967033015300,8.326015380859374,-0.002267149044200778,-0.0015997608425095677,-0.0030634342692792416
1772643967043056000,8.33605615234375,0.0009299758239649236,-0.0006293049664236605,-0.002897785510867834
1772643967053097200,8.34609716796875,-0.0026256104465574026,-0.0026011094450950623,-0.0025867284275591373
1772643967063138300,8.35613818359375,-0.00023435817274730653,-0.001178182428702712,-0.0032916669733822346
1772643967073178400,8.366178466796875,-0.000529702752828598,-0.0012471582740545273,-0.003245594445616007
1772643967083219200,8.37621923828125,-0.0019920445047318935,-0.0003129214164800942,-0.002912699244916439
1772643967093260300,8.38626025390625,-0.0005275722360238433,-0.00038642468280158937,-0.0031257520895451307
1772643967103301400,8.39630126953125,-0.0013480921043083072,-0.0014346449170261621,-0.003061569994315505
1772643967113342200,8.40634228515625,-0.0019110844004899263,-0.001088966615498066,-0.002540922025218606
1772643967123383300,8.41638330078125,-0.0015094797126948833,-0.0015073491958901286,-0.0020751350093632936
1772643967133423400,8.42642333984375,-0.0020453077740967274,-0.0011182613670825958,-0.0020959076937288046
1772643967143464400,8.43646435546875,-0.0004950816510245204,0.00012729909212794155,-0.0021547635551542044
1772643967153505300,8.44650537109375,-0.0013281183782964945,-0.0004849616379942745,-0.002302835462614894
1772643967163546400,8.45654638671875,-0.0020327907986938953,-0.0013294500531628728,-0.0026730147656053305
1772643967173587200,8.466587158203126,0.0005110605852678418,-0.0007057376787997782,-0.001984587637707591
1772643967183627300,8.476627197265625,-0.0008319715270772576,-0.0014618091518059373,-0.0030626351945102215
1772643967193668400,8.48666845703125,-0.00054142065346241,-0.00009241169027518481,-0.003288471372798085
1772643967203709400,8.49670947265625,-0.0017094830982387066,-0.0003203782835043967,-0.002404035534709692
1772643967213750300,8.506750244140624,-0.001383512164466083,-0.0019920445047318935,-0.0010937602492049336
1772643967223791400,8.516791259765625,0.0006237123161554337,-0.001059139147400856,-0.001677525113336742
1772643967233831200,8.5268310546875,-0.00017257283616345376,-0.002170742489397526,-0.002394980750977993
1772643967243872300,8.536872314453126,-0.0015480954898521304,-0.0009534116834402084,-0.0018929748330265284
1772643967253913000,8.5469130859375,-0.0009361011325381696,-0.0014929680619388819,-0.0031105722300708294
1772643967263954400,8.556954345703126,-0.0010016148444265127,0.00011265171633567661,-0.0026700852904468775
1772643967273995500,8.56699560546875,-0.001561677665449679,-0.0012751214671880007,-0.0013741911388933659
1772643967284036400,8.577036376953124,0.0009970874525606632,-0.0011622034944593906,-0.0024493092205375433
1772643967294076200,8.587076171875,-0.0005350290448404849,-0.0007542071980424225,-0.0010900318156927824
1772643967304117200,8.5971171875,-0.0011699266033247113,-0.0005723133217543364,-0.0029739518649876118
1772643967314158000,8.607157958984375,-0.0014146711910143495,-0.0006167881074361503,-0.002415220718830824
1772643967324199200,8.61719921875,-0.002837598090991378,-0.000517718493938446,-0.0022836606949567795
1772643967334240300,8.627240234375,-0.002257561543956399,-0.0014452975010499358,-0.0034940673504024744
1772643967344280300,8.6372802734375,-0.0011640676530078053,-0.0020394488237798214,-0.0017156084068119526
1772643967354321200,8.647321044921876,-0.0009116000146605074,-0.0002426139690214768,-0.002016811864450574
1772643967364362200,8.6573623046875,-0.0007060039788484573,-0.00039228363311849535,-0.0038011297583580017
1772643967374403300,8.6674033203125,0.0006138586322776973,-0.0012658004416152835,-0.0015723302494734526
1772643967384444200,8.677444091796875,-0.000690291344653815,0.0005012069013901055,-0.002028796123340726
1772643967394484200,8.687484130859374,-0.001678057829849422,-0.00045593318645842373,-0.0024322650860995054
1772643967404525300,8.697525390625,-0.001258876291103661,-0.0008029430755414069,-0.00261868629604578
1772643967414566400,8.70756640625,-0.00040480049210600555,0.00044607947347685695,-0.002838397165760398
1772643967424607200,8.717607177734376,-0.0011531487107276917,-0.00022743394947610795,-0.002739860210567713
1772643967434648300,8.7276484375,-0.001979261403903365,-0.0018247979460284114,-0.0024264061357825994
1772643967444689200,8.737689208984374,0.001106809708289802,-0.0010423612548038363,-0.0028573055751621723
1772643967454729200,8.747729248046875,0.00011478224041638896,-0.00006764429417671636,-0.0016924388473853469
1772643967464770300,8.757770263671874,-0.0013470269041135907,-0.001955026527866721,-0.0032290827948600054
1772643967474811400,8.767811279296875,-0.0023044333793222904,-0.0008849684381857514,-0.0026636936236172915
1772643967484852200,8.777852294921875,-0.0003193130251020193,-0.0006593986763618886,-0.0023158849216997623
1772643967494893300,8.787893310546876,-0.00045566685730591416,-0.0019001654582098126,-0.0029617014806717634
1772643967504933400,8.797933349609375,-0.0021110877860337496,-0.0012229235144332051,-0.002287655370309949
1772643967514974500,8.807974365234376,-0.002204564632847905,-0.0005163869354873896,-0.0032732912804931402
1772643967525015300,8.818015380859375,-0.0009454221581108868,-0.0021262678783386946,-0.002879942301660776
1772643967535056400,8.828056396484374,0.000371777277905494,-0.0013752563390880823,-0.004249606281518936
1772643967545097500,8.838097412109375,-0.001472461735829711,-0.001303084660321474,-0.002740659052506089
1772643967555138300,8.84813818359375,-0.0010210559703409672,-0.0005946838646195829,-0.0021204089280217886
1772643967565178400,8.858178466796875,0.0009177253232337534,-0.00044128578156232834,-0.0013797837309539318
1772643967575219500,8.868219482421875,-0.0004644552827812731,0.00077631144085899,-0.002948652021586895
1772643967585260300,8.87826025390625,-0.002296710154041648,-0.001047687605023384,-0.003355849301442504
1772643967595301400,8.88830126953125,-0.0005376922199502587,0.0003427488263696432,-0.002186188939958811
1772643967605342500,8.898342529296874,-0.002064748667180538,-0.0016538230702280998,-0.0019587550777941942
1772643967615382300,8.90838232421875,0.00003861583536490798,-0.00020346550445538014,-0.0025041704066097736
1772643967625423000,8.918423095703124,-0.0006119944155216217,-0.0007486145477741957,-0.00115421402733773
1772643967635464200,8.928464111328125,-0.0022208099253475666,-0.0008335694437846541,-0.0033635725267231464
1772643967645505300,8.93850537109375,-0.0009278453071601689,-0.00330205331556499,-0.003215234261006117
1772643967655546000,8.948546142578126,-0.0022208099253475666,-0.002180063631385565,-0.003153448924422264
