time,seconds_elapsed,z,y,x
1772651334321514000,0.195513916015625,0.003994738217443228,-0.005326317623257637,0.0025300008710473776
1772651334331517700,0.205517578125,-0.0007989476434886456,-0.0010652635246515274,-0.0011984214652329683
1772651334341521400,0.215521484375,-0.0007989476434886456,0.0010652635246515274,0.0003994738217443228
1772651334351525000,0.225525146484375,-0.0007989476434886456,-0.0005326317623257637,-0.0006657897029072046
1772651334361528800,0.23552880859375,-0.00026631588116288185,0.001597895286977291,0.0003994738217443228
1772651334371532500,0.245532470703125,-0.001864211168140173,0,0.0003994738217443228
1772651334381536300,0.255536376953125,0.00026631588116288185,0,0.0003994738217443228
1772651334391540000,0.2655400390625,-0.00026631588116288185,0,-0.00013315794058144093
1772651334401543400,0.27554345703125,0.00026631588116288185,0.0006657897029072046,0.0003994738217443228
1772651334411547100,0.285547119140625,0.0006657897029072046,-0.0009321055840700865,0.0009321055840700865
1772651334421550800,0.29555078125,-0.001997369108721614,0.0006657897029072046,-0.0006657897029072046
1772651334431554600,0.305554443359375,-0.0009321055840700865,-0.0014647373463958502,-0.00013315794058144093
1772651334441558300,0.315558349609375,0.0006657897029072046,0.0011984214652329683,-0.00013315794058144093
1772651334451562000,0.32556201171875,0.0006657897029072046,0.0011984214652329683,-0.0006657897029072046
1772651334461565700,0.335565673828125,0.0006657897029072046,-0.0003994738217443228,-0.00013315794058144093
1772651334471569400,0.3455693359375,-0.0009321055840700865,0.001731053227558732,-0.0006657897029072046
1772651334481573000,0.355572998046875,-0.0003994738217443228,0.0006657897029072046,0.0003994738217443228
1772651334491576600,0.36557666015625,-0.0003994738217443228,0.0006657897029072046,0.0003994738217443228
1772651334501580300,0.375580322265625,-0.0009321055840700865,0.00013315794058144093,0.0014647373463958502
1772651334511584000,0.385583984375,-0.0014647373463958502,0.0006657897029072046,0.0009321055840700865
1772651334521587700,0.395587646484375,0.0006657897029072046,0.001731053227558732,-0.0011984214652329683
1772651334531591400,0.40559130859375,0.0023968429304659367,0.0010652635246515274,0.0009321055840700865
1772651334541595100,0.41559521484375,-0.00026631588116288185,-0.0005326317623257637,0.0014647373463958502
1772651334551598800,0.425598876953125,0.0007989476434886456,0.0010652635246515274,0.0009321055840700865
1772651334561602600,0.4356025390625,-0.00026631588116288185,-0.002130527049303055,-0.0006657897029072046
1772651334571606300,0.445606201171875,0.00026631588116288185,0.0010652635246515274,-0.0011984214652329683
1772651334581610000,0.45560986328125,-0.00026631588116288185,-0.0010652635246515274,0.0003994738217443228
1772651334591613700,0.46561376953125,0.0013315794058144093,0.0010652635246515274,0.0014647373463958502
1772651334601617200,0.4756171875,0.0013315794058144093,0.0005326317623257637,-0.00013315794058144093
1772651334611620900,0.485620849609375,0.0013315794058144093,-0.001597895286977291,0.0014647373463958502
1772651334621624600,0.49562451171875,-0.0007989476434886456,-0.0010652635246515274,-0.0006657897029072046
1772651334631628300,0.505628173828125,-0.00026631588116288185,0.0005326317623257637,-0.0006657897029072046
1772651334641632000,0.515632080078125,0.00026631588116288185,-0.0005326317623257637,-0.0006657897029072046
1772651334651635700,0.5256357421875,-0.00026631588116288185,0.0005326317623257637,-0.0006657897029072046
1772651334661639400,0.535639404296875,-0.0007989476434886456,0.0010652635246515274,-0.0006657897029072046
1772651334671643100,0.54564306640625,-0.00026631588116288185,-0.0010652635246515274,0.001997369108721614
1772651334681646600,0.555646484375,0.00026631588116288185,0.0010652635246515274,0.0003994738217443228
1772651334691650300,0.565650390625,-0.0013315794058144093,0,0.0003994738217443228
1772651334701654000,0.575654052734375,-0.0007989476434886456,-0.0005326317623257637,-0.0011984214652329683
1772651334711657700,0.58565771484375,0.0007989476434886456,-0.0005326317623257637,0.0014647373463958502
1772651334721661400,0.595661376953125,0.00026631588116288185,-0.001597895286977291,0.0003994738217443228
1772651334731665200,0.6056650390625,0.0007989476434886456,0,-0.00013315794058144093
1772651334741668900,0.6156689453125,0.00026631588116288185,-0.0005326317623257637,-0.0006657897029072046
1772651334751672600,0.625672607421875,-0.00026631588116288185,0.0005326317623257637,0.0009321055840700865
1772651334761675800,0.63567578125,-0.00026631588116288185,0.0010652635246515274,-0.00013315794058144093
1772651334771678700,0.6456787109375,-0.00026631588116288185,0,-0.00013315794058144093
1772651334781682000,0.655681884765625,0.0013315794058144093,-0.002130527049303055,0.0003994738217443228
1772651334791685000,0.66568505859375,0.0007989476434886456,-0.0005326317623257637,0.0003994738217443228
1772651334801688300,0.675688232421875,-0.00026631588116288185,0.0005326317623257637,-0.0006657897029072046
1772651334811691500,0.68569140625,-0.0007989476434886456,0,0.0003994738217443228
1772651334821694700,0.69569482421875,0.0007989476434886456,0.0010652635246515274,0.0003994738217443228
1772651334831698000,0.705697998046875,-0.00026631588116288185,-0.003195790573954582,-0.0006657897029072046
1772651334841700900,0.715700927734375,0.0007989476434886456,-0.002130527049303055,-0.0006657897029072046
1772651334851704000,0.7257041015625,-0.00026631588116288185,-0.0005326317623257637,0.0009321055840700865
1772651334861707300,0.735707275390625,0.0013315794058144093,-0.0005326317623257637,0.0014647373463958502
1772651334871710500,0.74571044921875,-0.0007989476434886456,0.002130527049303055,-0.00013315794058144093
1772651334881713700,0.755713623046875,-0.0007989476434886456,-0.0010652635246515274,0.0014647373463958502
1772651334891716900,0.765716796875,-0.0007989476434886456,0.0010652635246515274,-0.00013315794058144093
1772651334901719800,0.7757197265625,0.0007989476434886456,-0.0010652635246515274,-0.0006657897029072046
1772651334911723000,0.785722900390625,0.0007989476434886456,0.0005326317623257637,0.0003994738217443228
1772651334921726200,0.795726318359375,-0.00026631588116288185,0.001597895286977291,-0.00013315794058144093
1772651334931729400,0.8057294921875,-0.0013315794058144093,0.0005326317623257637,-0.0006657897029072046
1772651334941732600,0.815732666015625,-0.00026631588116288185,0.0005326317623257637,-0.0006657897029072046
1772651334951735800,0.82573583984375,-0.00026631588116288185,0,-0.0011984214652329683
1772651334961738800,0.83573876953125,-0.00026631588116288185,-0.0010652635246515274,0.0014647373463958502
1772651334971742000,0.845741943359375,-0.00026631588116288185,-0.001597895286977291,-0.00013315794058144093
1772651334981745200,0.8557451171875,0.00026631588116288185,-0.0005326317623257637,0.001997369108721614
1772651334991748400,0.865748291015625,-0.0007989476434886456,-0.0010652635246515274,0.0009321055840700865
1772651335001751600,0.87575146484375,0.0007989476434886456,-0.002130527049303055,-0.001731053227558732
1772651335011754800,0.885754638671875,-0.00026631588116288185,-0.0005326317623257637,-0.0006657897029072046
1772651335021758000,0.895758056640625,-0.00026631588116288185,-0.001597895286977291,-0.0006657897029072046
1772651335031761000,0.905760986328125,-0.0013315794058144093,0.0005326317623257637,-0.0011984214652329683
1772651335041764000,0.91576416015625,-0.0013315794058144093,-0.0005326317623257637,0.0003994738217443228
1772651335051767300,0.925767333984375,-0.00026631588116288185,0,0.0009321055840700865
1772651335061770500,0.9357705078125,-0.00026631588116288185,0.0010652635246515274,0.0003994738217443228
1772651335071773700,0.945773681640625,0.0007989476434886456,0,-0.00013315794058144093
1772651335081777000,0.95577685546875,0.00026631588116288185,-0.002130527049303055,0.0003994738217443228
1772651335091779800,0.96577978515625,-0.00026631588116288185,0.0010652635246515274,-0.001731053227558732
1772651335101783000,0.975782958984375,-0.0013315794058144093,0.002130527049303055,-0.00013315794058144093
1772651335111786200,0.9857861328125,0.0013315794058144093,-0.001597895286977291,0.0009321055840700865
1772651335121789400,0.99578955078125,-0.0013315794058144093,0.0005326317623257637,0.0003994738217443228
1772651335131792600,1.005792724609375,-0.0007989476434886456,0.0010652635246515274,0.0009321055840700865
1772651335141795800,1.0157958984375,-0.0013315794058144093,0,-0.0006657897029072046
1772651335151798800,1.025798828125,-0.00026631588116288185,0,-0.0006657897029072046
1772651335171805200,1.04580517578125,-0.00026631588116288185,0.001597895286977291,-0.00013315794058144093
1772651335181808400,1.055808349609375,0.00026631588116288185,-0.0010652635246515274,-0.00013315794058144093
1772651335191811600,1.0658115234375,-0.001864211168140173,0.001597895286977291,-0.0006657897029072046
1772651335201814800,1.075814697265625,0.00026631588116288185,0.001597895286977291,-0.0006657897029072046
1772651335211817700,1.085817626953125,-0.00026631588116288185,0.0010652635246515274,0.0009321055840700865
1772651335221821000,1.095821044921875,-0.00026631588116288185,0.0005326317623257637,-0.0006657897029072046
1772651335231824100,1.10582421875,0.00026631588116288185,-0.002130527049303055,-0.001731053227558732
1772651335241827300,1.115827392578125,0.0007989476434886456,-0.0005326317623257637,-0.00013315794058144093
1772651335251830500,1.12583056640625,-0.0007989476434886456,-0.0010652635246515274,0.0025300008710473776
1772651335261833700,1.135833740234375,0.0007989476434886456,-0.0005326317623257637,0.0009321055840700865
1772651335271837000,1.1458369140625,-0.00026631588116288185,0.0005326317623257637,0.0009321055840700865
1772651335281840000,1.155840087890625,0.00026631588116288185,-0.0005326317623257637,-0.0022636849898844957
1772651335291843300,1.16584326171875,0.0007989476434886456,0.0005326317623257637,0.0014647373463958502
1772651335301846500,1.175846435546875,-0.00026631588116288185,0,0.0014647373463958502
1772651335311849700,1.185849609375,0.00026631588116288185,0.0010652635246515274,-0.00013315794058144093
1772651335321853000,1.19585302734375,-0.0007989476434886456,0.0005326317623257637,-0.00013315794058144093
1772651335331856100,1.205856201171875,0.0007989476434886456,-0.0010652635246515274,0.0003994738217443228
1772651335341859600,1.215859619140625,-0.0013315794058144093,-0.0005326317623257637,0.0014647373463958502
1772651335351862500,1.225862548828125,0.00026631588116288185,-0.0010652635246515274,-0.0006657897029072046
1772651335361866000,1.235865966796875,0.00026631588116288185,0.0010652635246515274,-0.00013315794058144093
1772651335371869200,1.245869140625,0.00026631588116288185,-0.002130527049303055,0.0003994738217443228
1772651335381872400,1.255872314453125,0.001864211168140173,-0.0010652635246515274,-0.0027963167522102594
1772651335391875600,1.26587548828125,0.0013315794058144093,0.0005326317623257637,0.0009321055840700865
1772651335401878800,1.275878662109375,-0.0007989476434886456,0.0010652635246515274,0.0003994738217443228
1772651335411882000,1.285882080078125,-0.00026631588116288185,0.001597895286977291,-0.0006657897029072046
1772651335421885200,1.29588525390625,-0.00026631588116288185,0,-0.0011984214652329683
1772651335431888400,1.305888427734375,0.0007989476434886456,-0.0010652635246515274,0.0003994738217443228
1772651335441891600,1.3158916015625,-0.0007989476434886456,0.0010652635246515274,0.001997369108721614
1772651335451894800,1.325894775390625,0.0013315794058144093,0.0005326317623257637,0.0009321055840700865
1772651335461898000,1.33589794921875,0.00026631588116288185,-0.0005326317623257637,0.0003994738217443228
1772651335471901200,1.345901123046875,0.00026631588116288185,0.0005326317623257637,0.0003994738217443228
1772651335481904400,1.355904296875,0.00026631588116288185,0.0010652635246515274,-0.0006657897029072046
1772651335491907600,1.365907470703125,-0.00026631588116288185,0,0.0014647373463958502
1772651335501910800,1.375910888671875,0.00026631588116288185,-0.0005326317623257637,-0.00013315794058144093
1772651335511914000,1.3859140625,-0.00026631588116288185,0.0010652635246515274,0.0009321055840700865
1772651335521917400,1.39591748046875,0.001864211168140173,-0.0005326317623257637,0.0003994738217443228
1772651335531920400,1.40592041015625,-0.0007989476434886456,0.0005326317623257637,0.0003994738217443228
1772651335541923800,1.415923828125,-0.00026631588116288185,0.0005326317623257637,-0.0011984214652329683
1772651335551927000,1.425927001953125,-0.0007989476434886456,0.0005326317623257637,0.0003994738217443228
1772651335571933400,1.445933349609375,0.00026631588116288185,0,0.0009321055840700865
1772651335581936600,1.4559365234375,-0.00026631588116288185,-0.0010652635246515274,0.0003994738217443228
1772651335591939800,1.46593994140625,0.00026631588116288185,-0.0005326317623257637,0.0014647373463958502
1772651335601943000,1.475943115234375,0.0007989476434886456,0.0005326317623257637,0.0003994738217443228
1772651335611946200,1.4859462890625,-0.0007989476434886456,0,0.0003994738217443228
1772651335621949400,1.495949462890625,0.0007989476434886456,0.0026631588116288185,-0.00013315794058144093
1772651335631952600,1.50595263671875,0.00026631588116288185,0.003195790573954582,-0.0006657897029072046
1772651335641955800,1.515955810546875,-0.0007989476434886456,-0.0010652635246515274,-0.0007989476434886456
1772651335651959000,1.525958984375,0.0013315794058144093,-0.0010652635246515274,-0.00026631588116288185
1772651335661962200,1.535962158203125,0.0007989476434886456,0.001597895286977291,-0.0007989476434886456
1772651335671965400,1.54596533203125,0.0007989476434886456,0,0.001864211168140173
1772651335681968600,1.55596875,-0.0013315794058144093,0.0010652635246515274,0.0007989476434886456
1772651335691971800,1.565971923828125,-0.0007989476434886456,-0.0010652635246515274,-0.00026631588116288185
1772651335701975300,1.575975341796875,0.0013315794058144093,0.0005326317623257637,-0.0007989476434886456
1772651335711978500,1.585978515625,0.0007989476434886456,-0.0005326317623257637,0.0013315794058144093
1772651335721981700,1.595981689453125,-0.0007989476434886456,0.0010652635246515274,0.0007989476434886456
1772651335731985000,1.60598486328125,-0.00026631588116288185,-0.0005326317623257637,-0.0013315794058144093
1772651335741988000,1.615988037109375,-0.0007989476434886456,0.0005326317623257637,0.00026631588116288185
1772651335751991300,1.6259912109375,0.00026631588116288185,0,-0.00026631588116288185
1772651335761994000,1.635993896484375,0.00026631588116288185,-0.0005326317623257637,0.00026631588116288185
1772651335771997000,1.645996826171875,-0.0007989476434886456,-0.0005326317623257637,-0.00026631588116288185
1772651335781999600,1.65599951171875,0.0013315794058144093,0.0010652635246515274,-0.00026631588116288185
1772651335792002300,1.666002197265625,0.00026631588116288185,0.0010652635246515274,0.0007989476434886456
1772651335802005200,1.676005126953125,0.0007989476434886456,0,-0.00026631588116288185
1772651335812008000,1.686008056640625,-0.0013315794058144093,0,0.001864211168140173
1772651335822011000,1.696010986328125,0.0007989476434886456,0,-0.00026631588116288185
1772651335832013600,1.706013671875,0.00026631588116288185,-0.0010652635246515274,-0.00026631588116288185
1772651335842016500,1.7160166015625,0.0007989476434886456,0.0005326317623257637,-0.0023968429304659367
1772651335852019200,1.726019287109375,0.0013315794058144093,-0.0005326317623257637,0.0013315794058144093
1772651335862022000,1.73602197265625,0.0007989476434886456,-0.0010652635246515274,0.0007989476434886456
1772651335872024800,1.74602490234375,0.0007989476434886456,-0.0005326317623257637,-0.0023968429304659367
1772651335882027500,1.756027587890625,0.0013315794058144093,-0.0005326317623257637,0.00026631588116288185
1772651335892030500,1.766030517578125,-0.00026631588116288185,0,-0.0013315794058144093
1772651335902033200,1.776033203125,0.0007989476434886456,-0.0010652635246515274,0.00026631588116288185
1772651335912036000,1.7860361328125,-0.0013315794058144093,-0.0010652635246515274,-0.00026631588116288185
1772651335922038800,1.796038818359375,-0.00026631588116288185,0.0010652635246515274,-0.00026631588116288185
1772651335942044400,1.81604443359375,-0.00026631588116288185,0.001597895286977291,-0.00026631588116288185
1772651335952047000,1.826047119140625,0.00026631588116288185,0.0005326317623257637,0.00026631588116288185
1772651335962050000,1.836050048828125,0.00026631588116288185,0.0005326317623257637,-0.0007989476434886456
1772651335972052700,1.846052734375,0.00026631588116288185,-0.0010652635246515274,0.001864211168140173
1772651335982055700,1.8560556640625,-0.0007989476434886456,-0.0005326317623257637,0.00026631588116288185
1772651335992058400,1.866058349609375,0.0007989476434886456,-0.0010652635246515274,0.0007989476434886456
1772651336002061000,1.87606103515625,0.00026631588116288185,0,0.00026631588116288185
1772651336012064000,1.88606396484375,-0.00026631588116288185,0.0005326317623257637,0.00026631588116288185
1772651336022066700,1.896066650390625,-0.00026631588116288185,0.0005326317623257637,0.0007989476434886456
1772651336032069600,1.906069580078125,0.00026631588116288185,0.001597895286977291,-0.0007989476434886456
1772651336042072300,1.916072265625,0.00026631588116288185,0,-0.00026631588116288185
1772651336052075300,1.9260751953125,0.0007989476434886456,0.0010652635246515274,-0.00026631588116288185
1772651336062078000,1.936077880859375,-0.0007989476434886456,0.003195790573954582,0.00026631588116288185
1772651336072080600,1.94608056640625,-0.0007989476434886456,0.0005326317623257637,-0.00026631588116288185
1772651336082083600,1.95608349609375,-0.0007989476434886456,-0.0010652635246515274,0.00026631588116288185
1772651336092086300,1.966086181640625,0.00026631588116288185,0.0005326317623257637,0.00026631588116288185
1772651336102089200,1.976089111328125,-0.0007989476434886456,0.0010652635246515274,-0.0007989476434886456
1772651336112092000,1.986091796875,-0.0013315794058144093,-0.0005326317623257637,-0.0013315794058144093
1772651336122094800,1.9960947265625,0.00026631588116288185,-0.001597895286977291,-0.00026631588116288185
1772651336132097500,2.00609765625,-0.00026631588116288185,-0.0010652635246515274,0.00026631588116288185
1772651336142100200,2.016100341796875,-0.001864211168140173,0.002130527049303055,-0.0007989476434886456
1772651336152103200,2.026103271484375,-0.00026631588116288185,0.0010652635246515274,-0.00026631588116288185
1772651336162105900,2.03610595703125,0.00026631588116288185,0,-0.00026631588116288185
1772651336172108800,2.04610888671875,-0.00026631588116288185,0.0010652635246515274,0.00026631588116288185
1772651336182111500,2.056111572265625,0.0007989476434886456,0.0005326317623257637,-0.0007989476434886456
1772651336192114400,2.066114501953125,-0.0013315794058144093,-0.0005326317623257637,-0.0013315794058144093
1772651336202117000,2.0761171875,-0.00026631588116288185,-0.001597895286977291,0.0007989476434886456
1772651336212119800,2.086119873046875,-0.0007989476434886456,0.0010652635246515274,-0.0007989476434886456
1772651336222122800,2.096122802734375,-0.0007989476434886456,-0.0005326317623257637,-0.0007989476434886456
1772651336242128400,2.11612841796875,0.00026631588116288185,0.0005326317623257637,-0.00026631588116288185
1772651336252131000,2.126131103515625,-0.0013315794058144093,-0.0010652635246515274,0.00026631588116288185
1772651336262134300,2.13613427734375,0.00026631588116288185,-0.0010652635246515274,-0.00026631588116288185
1772651336272137500,2.146137451171875,0.001864211168140173,0.0010652635246515274,-0.00026631588116288185
1772651336282140700,2.156140625,-0.0007989476434886456,-0.0005326317623257637,-0.0007989476434886456
1772651336292143600,2.1661435546875,-0.00026631588116288185,0.0010652635246515274,-0.0013315794058144093
1772651336302146800,2.176146728515625,0.00026631588116288185,0.001597895286977291,0.00026631588116288185
1772651336312150000,2.18614990234375,0.0007989476434886456,0,-0.00026631588116288185
1772651336322153200,2.1961533203125,0.0007989476434886456,0.0005326317623257637,0.0007989476434886456
1772651336332156400,2.206156494140625,-0.0013315794058144093,0.001597895286977291,0.0007989476434886456
1772651336342159600,2.21615966796875,-0.00026631588116288185,0,-0.0007989476434886456
1772651336352162600,2.22616259765625,0.00026631588116288185,-0.0005326317623257637,0.00026631588116288185
1772651336362165800,2.236165771484375,0.00026631588116288185,-0.0010652635246515274,-0.0007989476434886456
1772651336372169000,2.2461689453125,0.0007989476434886456,0.0005326317623257637,-0.00026631588116288185
1772651336382172200,2.256172119140625,-0.00026631588116288185,0.0005326317623257637,0.00026631588116288185
1772651336392175400,2.26617529296875,-0.00026631588116288185,-0.0010652635246515274,0.00026631588116288185
1772651336402178300,2.27617822265625,0.00026631588116288185,-0.0005326317623257637,-0.00026631588116288185
1772651336412181500,2.286181396484375,0.0007989476434886456,0.0005326317623257637,-0.00026631588116288185
1772651336422184700,2.296184814453125,0.00026631588116288185,-0.0010652635246515274,-0.00026631588116288185
1772651336432188000,2.30618798828125,0.0007989476434886456,0.0010652635246515274,-0.00026631588116288185
1772651336442191000,2.316191162109375,-0.00026631588116288185,0.0010652635246515274,-0.00026631588116288185
1772651336452194300,2.3261943359375,-0.0007989476434886456,0,-0.0007989476434886456
1772651336462197200,2.336197265625,0.00026631588116288185,0.0005326317623257637,0.0007989476434886456
1772651336472200400,2.346200439453125,-0.0007989476434886456,0.0010652635246515274,0.00026631588116288185
1772651336482203600,2.35620361328125,0.0007989476434886456,-0.001597895286977291,0.00026631588116288185
1772651336492206800,2.366206787109375,0.00026631588116288185,-0.0010652635246515274,-0.00026631588116288185
1772651336502210000,2.3762099609375,-0.0007989476434886456,0,0.001864211168140173
1772651336512213000,2.386212890625,-0.0007989476434886456,-0.0010652635246515274,0.0013315794058144093
1772651336522216200,2.39621630859375,0.0007989476434886456,-0.002130527049303055,0.0013315794058144093
1772651336532219400,2.406219482421875,0.00026631588116288185,-0.001597895286977291,-0.0007989476434886456
1772651336542222600,2.41622265625,0.0007989476434886456,0,0.00026631588116288185
1772651336552225800,2.426225830078125,-0.0013315794058144093,0.001597895286977291,-0.0007989476434886456
1772651336562229000,2.43622900390625,0.0007989476434886456,0.0010652635246515274,-0.00026631588116288185
1772651336572232000,2.44623193359375,0.00026631588116288185,0.0010652635246515274,-0.00026631588116288185
1772651336582235100,2.456235107421875,-0.0007989476434886456,-0.0010652635246515274,-0.00026631588116288185
1772651336592238300,2.46623828125,-0.00026631588116288185,-0.0005326317623257637,0.0013315794058144093
1772651336602241500,2.476241455078125,0.0013315794058144093,-0.002130527049303055,-0.00026631588116288185
1772651336612244700,2.48624462890625,-0.00026631588116288185,0,-0.00026631588116288185
1772651336622247700,2.49624755859375,0.0007989476434886456,-0.0010652635246515274,-0.00026631588116288185
1772651336632251000,2.5062509765625,-0.00026631588116288185,0.0010652635246515274,0.0007989476434886456
1772651336642254000,2.516254150390625,-0.0007989476434886456,0.0005326317623257637,0.00026631588116288185
1772651336652257300,2.52625732421875,-0.0013315794058144093,0,-0.00026631588116288185
1772651336662260500,2.536260498046875,-0.0007989476434886456,0.001597895286977291,0.0007989476434886456
1772651336672263700,2.546263671875,0.0023968429304659367,-0.0005326317623257637,-0.00026631588116288185
1772651336682266600,2.5562666015625,-0.00026631588116288185,-0.0005326317623257637,0.0007989476434886456
1772651336692269800,2.566269775390625,0.00026631588116288185,0.001597895286977291,-0.0007989476434886456
1772651336702273000,2.57627294921875,0.00026631588116288185,0,-0.001864211168140173
1772651336712276200,2.586276123046875,0.001864211168140173,0.0010652635246515274,-0.0007989476434886456
1772651336722279400,2.596279541015625,-0.0013315794058144093,-0.0005326317623257637,-0.0007989476434886456
1772651336732282400,2.606282470703125,0.00026631588116288185,0.0010652635246515274,-0.0013315794058144093
1772651336742285600,2.61628564453125,-0.001864211168140173,0,0.0007989476434886456
1772651336752288800,2.626288818359375,-0.00026631588116288185,0,-0.00026631588116288185
1772651336762292000,2.6362919921875,-0.0007989476434886456,0.001597895286977291,0.0007989476434886456
1772651336772295200,2.646295166015625,-0.001864211168140173,0.0010652635246515274,0.0007989476434886456
1772651336782298400,2.65629833984375,0.001864211168140173,-0.002130527049303055,-0.00026631588116288185
1772651336792301600,2.666301513671875,-0.0013315794058144093,0.0010652635246515274,-0.0007989476434886456
1772651336802304800,2.6763046875,-0.00026631588116288185,0.0010652635246515274,0.00026631588116288185
1772651336812308000,2.686307861328125,0.0007989476434886456,0.0005326317623257637,0.0007989476434886456
1772651336822311200,2.696311279296875,0.001864211168140173,0.0026631588116288185,-0.0007989476434886456
1772651336832314400,2.706314453125,0.00026631588116288185,-0.0005326317623257637,0.00026631588116288185
1772651336842317300,2.7163173828125,-0.001864211168140173,-0.0005326317623257637,0.00026631588116288185
1772651336852320500,2.726320556640625,0.0007989476434886456,0,0.00026631588116288185
1772651336862323700,2.73632373046875,-0.0007989476434886456,0.0010652635246515274,0.0007989476434886456
1772651336872327000,2.746326904296875,0.0007989476434886456,0.0005326317623257637,0.00026631588116288185
1772651336882330000,2.756330078125,-0.00026631588116288185,0.0005326317623257637,-0.00026631588116288185
1772651336892333300,2.766333251953125,-0.00026631588116288185,-0.002130527049303055,-0.00026631588116288185
1772651336902336500,2.77633642578125,0.0007989476434886456,0,-0.0013315794058144093
1772651336912339700,2.786339599609375,-0.00026631588116288185,-0.0005326317623257637,0.0007989476434886456
1772651336922343000,2.796343017578125,-0.00026631588116288185,0.0010652635246515274,-0.00026631588116288185
1772651336932346000,2.80634619140625,-0.0013315794058144093,-0.0010652635246515274,-0.0013315794058144093
1772651336942349300,2.816349365234375,0.0007989476434886456,0.002130527049303055,0.0013315794058144093
1772651336952352500,2.8263525390625,-0.0007989476434886456,-0.0005326317623257637,0.00026631588116288185
1772651336962355700,2.836355712890625,0.0007989476434886456,0.0005326317623257637,-0.0007989476434886456
1772651336972359000,2.84635888671875,0.00026631588116288185,-0.0005326317623257637,-0.0007989476434886456
1772651336982362000,2.856362060546875,-0.0013315794058144093,0.0010652635246515274,-0.00026631588116288185
1772651336992365300,2.866365234375,-0.00026631588116288185,0.001597895286977291,-0.0007989476434886456
1772651337012371700,2.886371826171875,0.0007989476434886456,0,-0.0007989476434886456
1772651337022374700,2.896374755859375,-0.0013315794058144093,0.0005326317623257637,-0.0013315794058144093
1772651337032377900,2.9063779296875,-0.0007989476434886456,0.0005326317623257637,-0.00026631588116288185
1772651337042381000,2.916381103515625,0.00026631588116288185,0.0010652635246515274,-0.00026631588116288185
1772651337052384300,2.92638427734375,0.0007989476434886456,0.0005326317623257637,-0.0007989476434886456
1772651337062387500,2.936387451171875,-0.0007989476434886456,-0.0005326317623257637,-0.0007989476434886456
1772651337072390700,2.946390625,0.00026631588116288185,0.0010652635246515274,-0.001864211168140173
1772651337082393900,2.956393798828125,0.00026631588116288185,-0.0010652635246515274,-0.00026631588116288185
1772651337092397000,2.96639697265625,0.00026631588116288185,0,-0.0007989476434886456
1772651337102400300,2.976400146484375,-0.001864211168140173,0.001597895286977291,0.00026631588116288185
1772651337112403500,2.986403564453125,0.0007989476434886456,0.0010652635246515274,-0.0007989476434886456
1772651337122406700,2.99640673828125,0.00026631588116288185,0.0005326317623257637,0.00026631588116288185
1772651337132409900,3.006409912109375,-0.00026631588116288185,0.0010652635246515274,-0.0007989476434886456
1772651337142413000,3.0164130859375,-0.00026631588116288185,0.0005326317623257637,-0.00026631588116288185
1772651337152416300,3.026416259765625,-0.00026631588116288185,0.002130527049303055,0.00026631588116288185
1772651337162419500,3.03641943359375,0.0013315794058144093,0.0005326317623257637,0.0007989476434886456
1772651337172422700,3.046422607421875,-0.00026631588116288185,0,0.00026631588116288185
1772651337182425600,3.056425537109375,0.00026631588116288185,-0.0005326317623257637,0.0007989476434886456
1772651337192428800,3.0664287109375,-0.0007989476434886456,0,-0.0007989476434886456
1772651337202432000,3.076431884765625,0.00026631588116288185,0.0010652635246515274,0.0013315794058144093
1772651337212435200,3.086435302734375,-0.0007989476434886456,0,-0.0013315794058144093
1772651337222438400,3.0964384765625,-0.00026631588116288185,0.0005326317623257637,0.00026631588116288185
1772651337232441600,3.106441650390625,-0.0007989476434886456,0,-0.00026631588116288185
1772651337242444800,3.11644482421875,-0.0013315794058144093,-0.0010652635246515274,0.0007989476434886456
1772651337252448000,3.126447998046875,-0.0013315794058144093,0.0010652635246515274,-0.0007989476434886456
1772651337262451700,3.13645166015625,-0.00026631588116288185,0.002130527049303055,-0.0013315794058144093
1772651337272455200,3.146455078125,0.00026631588116288185,-0.0010652635246515274,-0.00026631588116288185
1772651337282458600,3.156458740234375,-0.0007989476434886456,0,0.0007989476434886456
1772651337292462300,3.16646240234375,0.00026631588116288185,0.0010652635246515274,0.00026631588116288185
1772651337302465800,3.1764658203125,0.00026631588116288185,-0.0010652635246515274,0.0007989476434886456
1772651337312469500,3.186469482421875,0.0007989476434886456,-0.001597895286977291,0.0007989476434886456
1772651337322473000,3.196472900390625,0.00026631588116288185,-0.0005326317623257637,0.0007989476434886456
1772651337332476700,3.2064765625,0.0007989476434886456,0.0005326317623257637,0.0013315794058144093
1772651337342480100,3.216480224609375,-0.0007989476434886456,0,0.0007989476434886456
1772651337352483800,3.22648388671875,0.0007989476434886456,0.0010652635246515274,0.00026631588116288185
1772651337362487300,3.2364873046875,-0.00026631588116288185,-0.0005326317623257637,0.0013315794058144093
1772651337372490800,3.24649072265625,0.0007989476434886456,0.0010652635246515274,-0.00026631588116288185
1772651337382494500,3.256494384765625,-0.0013315794058144093,-0.002130527049303055,-0.0013315794058144093
1772651337392498200,3.266498291015625,0.0007989476434886456,-0.0006657897029072046,-0.0011984214652329683
1772651337402501600,3.276501708984375,0.0007989476434886456,-0.00013315794058144093,-0.001731053227558732
1772651337412505000,3.286505126953125,0.0013315794058144093,0.0003994738217443228,0.0003994738217443228
1772651337422508800,3.2965087890625,-0.0013315794058144093,-0.00013315794058144093,0.0003994738217443228
1772651337432512300,3.30651220703125,-0.0007989476434886456,0.0014647373463958502,-0.00013315794058144093
1772651337442516000,3.316515869140625,-0.00026631588116288185,-0.0006657897029072046,0.0003994738217443228
1772651337452519400,3.32651953125,-0.0013315794058144093,-0.0006657897029072046,-0.00013315794058144093
1772651337462523000,3.33652294921875,0.0007989476434886456,0.0014647373463958502,-0.0011984214652329683
1772651337472526600,3.346526611328125,0.00026631588116288185,0.0003994738217443228,-0.0006657897029072046
1772651337482530300,3.3565302734375,-0.0007989476434886456,-0.0006657897029072046,-0.00013315794058144093
1772651337492533800,3.36653369140625,0.001864211168140173,-0.00013315794058144093,0.0003994738217443228
1772651337502537200,3.376537109375,0.0007989476434886456,-0.00013315794058144093,-0.00013315794058144093
1772651337512541000,3.386541015625,-0.0007989476434886456,-0.0011984214652329683,0.0003994738217443228
1772651337522544400,3.39654443359375,-0.0013315794058144093,-0.0006657897029072046,0.0003994738217443228
1772651337532548000,3.406548095703125,0.0013315794058144093,-0.0011984214652329683,0.0003994738217443228
1772651337542551600,3.416551513671875,-0.00026631588116288185,-0.0022636849898844957,0.0003994738217443228
1772651337552555300,3.42655517578125,0.0007989476434886456,-0.0011984214652329683,-0.0006657897029072046
1772651337562558700,3.436558837890625,-0.0007989476434886456,-0.001731053227558732,-0.00013315794058144093
1772651337572562400,3.4465625,0.0007989476434886456,-0.0006657897029072046,-0.00013315794058144093
1772651337582566000,3.45656591796875,0.0013315794058144093,-0.0011984214652329683,0.0003994738217443228
1772651337592569300,3.4665693359375,-0.00026631588116288185,-0.0011984214652329683,-0.0011984214652329683
1772651337602573000,3.476572998046875,0.00026631588116288185,-0.0022636849898844957,0.0003994738217443228
1772651337612576500,3.486576416015625,0.00026631588116288185,-0.00013315794058144093,-0.00013315794058144093
1772651337622580200,3.496580322265625,-0.00026631588116288185,0.0003994738217443228,0.0025300008710473776
1772651337632583700,3.506583740234375,0.0007989476434886456,-0.0006657897029072046,0.0003994738217443228
1772651337642587400,3.51658740234375,-0.00026631588116288185,-0.0006657897029072046,-0.001731053227558732
1772651337652590800,3.5265908203125,0.0013315794058144093,-0.00013315794058144093,0.0003994738217443228
1772651337662594600,3.536594482421875,0.0007989476434886456,-0.00013315794058144093,-0.00013315794058144093
1772651337672598000,3.546597900390625,-0.00026631588116288185,-0.00013315794058144093,0.0009321055840700865
1772651337692605200,3.566605224609375,-0.0013315794058144093,0.0014647373463958502,-0.00013315794058144093
1772651337712612400,3.5866123046875,0.0013315794058144093,0.001997369108721614,-0.0006657897029072046
1772651337722615800,3.59661572265625,0.00026631588116288185,-0.0027963167522102594,0.0009321055840700865
1772651337732619500,3.60661962890625,-0.0013315794058144093,0.001997369108721614,0.0009321055840700865
1772651337742623000,3.616623046875,-0.0007989476434886456,0.0003994738217443228,-0.00013315794058144093
1772651337752626400,3.62662646484375,0.0013315794058144093,0.001997369108721614,-0.0006657897029072046
1772651337762630000,3.6366298828125,0.00026631588116288185,-0.0011984214652329683,-0.0011984214652329683
1772651337772632800,3.6466328125,0.0007989476434886456,0.0003994738217443228,-0.001731053227558732
1772651337792639200,3.66663916015625,0.0007989476434886456,-0.00013315794058144093,0.0003994738217443228
1772651337802642700,3.676642578125,-0.0013315794058144093,-0.0006657897029072046,-0.0006657897029072046
1772651337812646000,3.68664599609375,0.00026631588116288185,-0.001731053227558732,-0.0006657897029072046
1772651337822649000,3.696649169921875,0.0013315794058144093,-0.00013315794058144093,-0.0011984214652329683
1772651337832652300,3.70665234375,0.0013315794058144093,-0.00013315794058144093,-0.0011984214652329683
1772651337842655500,3.716655517578125,0.00026631588116288185,-0.00013315794058144093,-0.00013315794058144093
1772651337852658700,3.72665869140625,0.00026631588116288185,0.0003994738217443228,0.0009321055840700865
1772651337862662000,3.736661865234375,-0.0013315794058144093,-0.0006657897029072046,0.0009321055840700865
1772651337872665000,3.7466650390625,0.00026631588116288185,-0.0006657897029072046,0.001997369108721614
1772651337882668300,3.756668212890625,-0.00026631588116288185,-0.001731053227558732,-0.0011984214652329683
1772651337892671500,3.76667138671875,-0.0007989476434886456,0.0003994738217443228,0.0003994738217443228
1772651337902674700,3.7766748046875,0.00026631588116288185,-0.0006657897029072046,-0.00013315794058144093
1772651337912678000,3.786677978515625,-0.00026631588116288185,0.0003994738217443228,-0.00013315794058144093
1772651337922681000,3.79668115234375,0.0013315794058144093,0.0014647373463958502,-0.00013315794058144093
1772651337932684300,3.806684326171875,0.00026631588116288185,-0.0006657897029072046,-0.0006657897029072046
1772651337942687500,3.8166875,0.00026631588116288185,0.0003994738217443228,-0.00013315794058144093
1772651337952690700,3.826690673828125,-0.00026631588116288185,0.0003994738217443228,0.0014647373463958502
1772651337962694000,3.83669384765625,-0.0013315794058144093,-0.001731053227558732,0.0003994738217443228
1772651337972697000,3.846697021484375,-0.0007989476434886456,-0.0006657897029072046,0.0009321055840700865
1772651337982700300,3.8567001953125,-0.00026631588116288185,-0.0011984214652329683,-0.0022636849898844957
1772651337992703500,3.866703369140625,-0.0007989476434886456,-0.00013315794058144093,0.0003994738217443228
1772651338012710000,3.8867099609375,0.00026631588116288185,-0.0006657897029072046,0.0009321055840700865
1772651338022713000,3.896713134765625,-0.00026631588116288185,-0.001731053227558732,0.0003994738217443228
1772651338032716300,3.90671630859375,0.0007989476434886456,0.0009321055840700865,0.0009321055840700865
1772651338042719500,3.916719482421875,-0.0013315794058144093,-0.00013315794058144093,-0.0011984214652329683
1772651338052722700,3.92672265625,0.0007989476434886456,-0.00013315794058144093,0.0014647373463958502
1772651338062726100,3.93672607421875,0.00026631588116288185,0.0009321055840700865,0.0003994738217443228
1772651338072729000,3.94672900390625,0.0007989476434886456,0.0009321055840700865,-0.0006657897029072046
1772651338082732500,3.956732666015625,-0.0013315794058144093,0.0009321055840700865,0.0009321055840700865
1772651338092735500,3.966735595703125,-0.0007989476434886456,-0.001731053227558732,-0.00013315794058144093
1772651338102739000,3.976739013671875,-0.00026631588116288185,0.0003994738217443228,-0.0006657897029072046
1772651338112742100,3.9867421875,0.00026631588116288185,-0.0006657897029072046,-0.0011984214652329683
1772651338122745300,3.996745361328125,-0.00026631588116288185,-0.001731053227558732,0.0003994738217443228
1772651338132748500,4.00674853515625,0.00026631588116288185,0.0025300008710473776,-0.0011984214652329683
1772651338142751700,4.016751708984375,0.0007989476434886456,0.0025300008710473776,-0.00013315794058144093
1772651338152755000,4.0267548828125,0.00026631588116288185,-0.0011984214652329683,-0.0011984214652329683
1772651338162758100,4.036758056640625,-0.00026631588116288185,0.0009321055840700865,0.0003994738217443228
1772651338172761300,4.04676123046875,0.0013315794058144093,-0.0011984214652329683,-0.0006657897029072046
1772651338182764500,4.0567646484375,-0.0007989476434886456,0.0003994738217443228,-0.00013315794058144093
1772651338192767700,4.066767822265625,0.0013315794058144093,-0.00013315794058144093,-0.0006657897029072046
1772651338202771000,4.07677099609375,0.0013315794058144093,-0.001731053227558732,-0.00013315794058144093
1772651338212774100,4.086774169921875,0.00026631588116288185,-0.00013315794058144093,-0.00013315794058144093
1772651338222777300,4.09677734375,0.0007989476434886456,0.0003994738217443228,0.0009321055840700865
1772651338232780500,4.106780517578125,-0.0007989476434886456,-0.0006657897029072046,0.0009321055840700865
1772651338242783700,4.11678369140625,0.0013315794058144093,-0.00013315794058144093,0.0003994738217443228
1772651338252787000,4.126786865234375,-0.001864211168140173,-0.0011984214652329683,-0.0006657897029072046
1772651338262790000,4.136789794921875,0.00026631588116288185,0.0003994738217443228,0.0003994738217443228
1772651338272792800,4.146792724609375,0.00026631588116288185,0.0009321055840700865,-0.0011984214652329683
1772651338282795800,4.156795654296875,-0.0013315794058144093,-0.00013315794058144093,-0.00013315794058144093
1772651338292798500,4.166798583984375,-0.00026631588116288185,-0.0011984214652329683,0.001997369108721614
1772651338302801400,4.176801513671875,0.0007989476434886456,0.0009321055840700865,-0.00013315794058144093
1772651338312804400,4.186804443359375,-0.0007989476434886456,-0.001731053227558732,-0.00013315794058144093
1772651338322807300,4.196807373046875,0.0007989476434886456,0.0003994738217443228,0.0009321055840700865
1772651338332810200,4.206810302734375,0.00026631588116288185,-0.00013315794058144093,0.0003994738217443228
1772651338342813200,4.216813232421875,0.0007989476434886456,0.0009321055840700865,0.0003994738217443228
1772651338352816000,4.226816162109375,0.0007989476434886456,-0.00013315794058144093,-0.00013315794058144093
1772651338362819000,4.236819091796875,0.0013315794058144093,-0.001731053227558732,0.001997369108721614
1772651338372822000,4.246822021484375,0.0007989476434886456,-0.0006657897029072046,0.001997369108721614
1772651338382825000,4.256824951171875,0.00026631588116288185,0.001997369108721614,-0.0011984214652329683
1772651338392828000,4.266827880859375,-0.00026631588116288185,0.0003994738217443228,0.0009321055840700865
1772651338402830600,4.27683056640625,-0.00026631588116288185,-0.0006657897029072046,0.0009321055840700865
1772651338412833500,4.28683349609375,0.0007989476434886456,-0.00013315794058144093,-0.00013315794058144093
1772651338422836500,4.29683642578125,0.0007989476434886456,0.0014647373463958502,-0.00013315794058144093
1772651338432839400,4.30683935546875,0.00026631588116288185,-0.00013315794058144093,0.0014647373463958502
1772651338442842400,4.31684228515625,0.0007989476434886456,0.0009321055840700865,-0.0006657897029072046
1772651338452845300,4.32684521484375,0.00026631588116288185,-0.00013315794058144093,0.0014647373463958502
1772651338462848300,4.33684814453125,0.0007989476434886456,-0.00013315794058144093,0.0014647373463958502
1772651338472851200,4.346851318359375,-0.00026631588116288185,0.0014647373463958502,0.0009321055840700865
1772651338482854100,4.356854248046875,-0.0007989476434886456,0.0009321055840700865,0.0009321055840700865
1772651338492857000,4.366857177734375,0.0007989476434886456,0.0014647373463958502,0.001997369108721614
1772651338502859800,4.37685986328125,-0.00026631588116288185,-0.00013315794058144093,0.0009321055840700865
1772651338512862700,4.38686279296875,-0.0013315794058144093,-0.00013315794058144093,-0.00013315794058144093
1772651338522865700,4.39686572265625,0.0007989476434886456,0.0003994738217443228,-0.00013315794058144093
1772651338532868600,4.40686865234375,-0.00026631588116288185,-0.001731053227558732,-0.0006657897029072046
1772651338542871600,4.41687158203125,-0.0007989476434886456,0.0014647373463958502,-0.0011984214652329683
1772651338552874500,4.42687451171875,0.00026631588116288185,0.0014647373463958502,-0.00013315794058144093
1772651338562877400,4.43687744140625,0.001864211168140173,0.0003994738217443228,-0.0011984214652329683
1772651338572880400,4.44688037109375,0.0007989476434886456,-0.0006657897029072046,0.0025300008710473776
1772651338582883300,4.45688330078125,0.0013315794058144093,0.0009321055840700865,0.0009321055840700865
1772651338592886300,4.46688623046875,-0.00026631588116288185,0.0003994738217443228,-0.00013315794058144093
1772651338602889200,4.47688916015625,0.00026631588116288185,-0.00013315794058144093,0.0003994738217443228
1772651338612892000,4.486891845703125,0.0007989476434886456,-0.0006657897029072046,-0.0006657897029072046
1772651338622894800,4.496894775390625,0.0013315794058144093,-0.0006657897029072046,-0.00013315794058144093
1772651338632897800,4.506897705078125,-0.0007989476434886456,0.0009321055840700865,0.0014647373463958502
1772651338642900700,4.516900634765625,0.00026631588116288185,-0.00013315794058144093,-0.00013315794058144093
1772651338652903700,4.526903564453125,-0.00026631588116288185,-0.00013315794058144093,-0.0006657897029072046
1772651338662906600,4.53690673828125,-0.0007989476434886456,0.0014647373463958502,-0.00013315794058144093
1772651338672909600,4.54690966796875,-0.0013315794058144093,-0.0006657897029072046,-0.00013315794058144093
1772651338682912500,4.55691259765625,-0.00026631588116288185,0.0003994738217443228,-0.0006657897029072046
1772651338692915500,4.56691552734375,-0.00026631588116288185,-0.00013315794058144093,0.0003994738217443228
1772651338702918100,4.576918212890625,-0.0007989476434886456,-0.0011984214652329683,0.0009321055840700865
1772651338712921000,4.586921142578125,-0.0013315794058144093,0.0009321055840700865,-0.00013315794058144093
1772651338722924000,4.596924072265625,0.00026631588116288185,-0.00013315794058144093,-0.00013315794058144093
1772651338732927000,4.606927001953125,-0.00026631588116288185,-0.00013315794058144093,0.0009321055840700865
1772651338742930000,4.616929931640625,-0.00026631588116288185,0.0003994738217443228,0.0014647373463958502
1772651338752932900,4.626932861328125,0.00026631588116288185,0.0003994738217443228,-0.00013315794058144093
1772651338762936000,4.63693603515625,-0.00026631588116288185,0.0014647373463958502,-0.00013315794058144093
1772651338772939300,4.646939208984375,0.00026631588116288185,0.0003994738217443228,0.0003994738217443228
1772651338782942500,4.6569423828125,0.0013315794058144093,0.0003994738217443228,0.0009321055840700865
1772651338792945700,4.666945556640625,-0.0013315794058144093,0.0009321055840700865,-0.00013315794058144093
1772651338802948900,4.676948974609375,0.00026631588116288185,0.0003994738217443228,0.0014647373463958502
1772651338812952000,4.6869521484375,0.0007989476434886456,0.0003994738217443228,-0.00013315794058144093
1772651338822955300,4.696955322265625,0.0007989476434886456,-0.0011984214652329683,0.0003994738217443228
1772651338832958500,4.70695849609375,0.0007989476434886456,-0.0011984214652329683,-0.00013315794058144093
1772651338842961700,4.716961669921875,0.00026631588116288185,-0.0006657897029072046,-0.00013315794058144093
1772651338852964900,4.72696484375,0.00026631588116288185,0.0003994738217443228,-0.00013315794058144093
1772651338862968000,4.736968017578125,-0.00026631588116288185,0.0014647373463958502,0.0003994738217443228
1772651338872971300,4.74697119140625,0.0013315794058144093,-0.00013315794058144093,0.0003994738217443228
1772651338882974500,4.756974365234375,-0.00026631588116288185,-0.00013315794058144093,-0.0006657897029072046
1772651338892977400,4.766977294921875,-0.0013315794058144093,-0.00013315794058144093,-0.00013315794058144093
1772651338902980900,4.77698095703125,-0.00026631588116288185,-0.00013315794058144093,0.0014647373463958502
1772651338912984000,4.786984130859375,0.0023968429304659367,-0.00013315794058144093,-0.00013315794058144093
1772651338922987000,4.796987060546875,-0.0007989476434886456,0.0003994738217443228,0.0009321055840700865
1772651338932990500,4.806990478515625,-0.00026631588116288185,-0.0006657897029072046,-0.00013315794058144093
1772651338942993400,4.816993408203125,0.0007989476434886456,-0.00013315794058144093,0.0003994738217443228
1772651338952996600,4.82699658203125,0.00026631588116288185,0.0003994738217443228,0.001997369108721614
1772651338962999800,4.836999755859375,0.0007989476434886456,0.0009321055840700865,-0.00013315794058144093
1772651338973003000,4.8470029296875,0.0007989476434886456,-0.001731053227558732,-0.0011984214652329683
1772651338983006200,4.857006103515625,0.00026631588116288185,0.0003994738217443228,-0.0011984214652329683
1772651338993009400,4.867009521484375,0.0007989476434886456,0.0003994738217443228,0.0009321055840700865
1772651339003012600,4.8770126953125,-0.001864211168140173,-0.00013315794058144093,-0.001731053227558732
1772651339013015800,4.887015869140625,-0.0007989476434886456,-0.00013315794058144093,0.0003994738217443228
1772651339023019000,4.89701904296875,0.0007989476434886456,0.0009321055840700865,0.0003994738217443228
1772651339033022200,4.907022216796875,-0.00026631588116288185,-0.00013315794058144093,-0.00013315794058144093
1772651339043025400,4.917025390625,-0.00026631588116288185,-0.0006657897029072046,-0.0006657897029072046
1772651339053028600,4.927028564453125,0.0007989476434886456,0.0003994738217443228,-0.0006657897029072046
1772651339063031800,4.93703173828125,0.0023968429304659367,0.0003994738217443228,-0.0006657897029072046
1772651339073035000,4.947034912109375,-0.00026631588116288185,0.0003994738217443228,0.0009321055840700865
1772651339083038200,4.9570380859375,0.00026631588116288185,-0.00013315794058144093,-0.001731053227558732
1772651339093041400,4.96704150390625,-0.00026631588116288185,0.0014647373463958502,-0.00013315794058144093
1772651339103044600,4.977044677734375,0.0013315794058144093,0.0003994738217443228,-0.00013315794058144093
1772651339113047800,4.9870478515625,0.00026631588116288185,0.0003994738217443228,0.0003994738217443228
1772651339123051000,4.997051025390625,0.0007989476434886456,-0.0006657897029072046,0.0009321055840700865
1772651339133054200,5.00705419921875,0.0007989476434886456,-0.00013315794058144093,-0.0006657897029072046
1772651339143057400,5.017057373046875,0.0006657897029072046,0.0005326317623257637,-0.00026631588116288185
1772651339153060600,5.027060546875,0.0011984214652329683,0.001597895286977291,0.0007989476434886456
1772651339163063800,5.037063720703125,-0.0014647373463958502,0.0010652635246515274,0.0007989476434886456
1772651339173067000,5.04706689453125,-0.0009321055840700865,0,-0.0007989476434886456
1772651339183070200,5.0570703125,-0.0003994738217443228,-0.0005326317623257637,-0.00026631588116288185
1772651339193073400,5.067073486328125,-0.0014647373463958502,-0.0005326317623257637,-0.0013315794058144093
1772651339203076600,5.07707666015625,-0.0014647373463958502,0.0005326317623257637,-0.00026631588116288185
1772651339213079800,5.087079833984375,0.00013315794058144093,0.001597895286977291,0.00026631588116288185
1772651339223083000,5.0970830078125,-0.0009321055840700865,-0.0010652635246515274,0.0007989476434886456
1772651339233086200,5.107086181640625,-0.0009321055840700865,-0.001597895286977291,0.00026631588116288185
1772651339243089400,5.11708935546875,0.00013315794058144093,0,0.00026631588116288185
1772651339253092600,5.127092529296875,-0.0003994738217443228,0.0005326317623257637,-0.0023968429304659367
1772651339263096000,5.137095947265625,0.00013315794058144093,0,0.00026631588116288185
1772651339273099800,5.147099853515625,-0.0009321055840700865,0,0.00026631588116288185
1772651339283103200,5.157103271484375,-0.0003994738217443228,0.0010652635246515274,-0.00026631588116288185
1772651339293107000,5.16710693359375,-0.0003994738217443228,0.001597895286977291,-0.0007989476434886456
1772651339303110400,5.1771103515625,-0.0003994738217443228,0.0005326317623257637,-0.001864211168140173
1772651339313114000,5.187114013671875,0.0006657897029072046,-0.0005326317623257637,0.0007989476434886456
1772651339333121000,5.20712109375,0.0006657897029072046,-0.0010652635246515274,-0.00026631588116288185
1772651339343124700,5.217124755859375,-0.0009321055840700865,-0.002130527049303055,-0.0013315794058144093
1772651339353128200,5.227128173828125,0.0006657897029072046,-0.0010652635246515274,-0.00026631588116288185
1772651339363132000,5.2371318359375,0.0022636849898844957,-0.002130527049303055,0.00026631588116288185
1772651339373135400,5.24713525390625,-0.0003994738217443228,-0.0010652635246515274,-0.0013315794058144093
1772651339383139000,5.25713916015625,-0.0009321055840700865,0.0005326317623257637,-0.0013315794058144093
1772651339393142500,5.267142578125,-0.0003994738217443228,0.0005326317623257637,-0.00026631588116288185
1772651339403146200,5.277146240234375,-0.0014647373463958502,-0.0010652635246515274,0.0007989476434886456
1772651339413149700,5.287149658203125,-0.0003994738217443228,0.0010652635246515274,-0.0013315794058144093
1772651339423153200,5.297153076171875,0.0006657897029072046,-0.0005326317623257637,-0.00026631588116288185
1772651339433156900,5.307156982421875,0.0011984214652329683,0,0.0007989476434886456
1772651339443160600,5.31716064453125,-0.001997369108721614,-0.0010652635246515274,-0.0007989476434886456
1772651339453164000,5.3271640625,0.00013315794058144093,0.001597895286977291,-0.0007989476434886456
1772651339463167500,5.33716748046875,0.0011984214652329683,0.0010652635246515274,-0.00026631588116288185
1772651339473171200,5.347171142578125,-0.0003994738217443228,0,0.00026631588116288185
1772651339483174700,5.357174560546875,-0.0009321055840700865,0,0.00026631588116288185
1772651339493178400,5.367178466796875,-0.0014647373463958502,0.0010652635246515274,0.00026631588116288185
1772651339503181800,5.377181884765625,0.0006657897029072046,-0.0010652635246515274,0.00026631588116288185
1772651339513185500,5.387185546875,-0.0009321055840700865,0.0005326317623257637,-0.00026631588116288185
1772651339523189000,5.39718896484375,-0.0014647373463958502,-0.0005326317623257637,-0.0007989476434886456
1772651339533192700,5.407192626953125,0.0006657897029072046,-0.0005326317623257637,0.001864211168140173
1772651339543196200,5.417196044921875,0.0006657897029072046,0.0005326317623257637,-0.00026631588116288185
1772651339553199600,5.42719970703125,0.0006657897029072046,0.001597895286977291,-0.00026631588116288185
1772651339563203300,5.437203369140625,-0.0009321055840700865,0,-0.0007989476434886456
1772651339573206800,5.447206787109375,-0.0014647373463958502,-0.0010652635246515274,0.0007989476434886456
1772651339583210500,5.45721044921875,-0.0009321055840700865,0.001597895286977291,0.0007989476434886456
1772651339593214000,5.4672138671875,-0.0025300008710473776,0.0010652635246515274,0.0007989476434886456
1772651339603217700,5.4772177734375,-0.0009321055840700865,-0.0010652635246515274,0.00026631588116288185
1772651339613221000,5.48722119140625,0.00013315794058144093,0,-0.0013315794058144093
1772651339623224800,5.497224853515625,0.00013315794058144093,-0.0005326317623257637,0.00026631588116288185
1772651339633228300,5.507228271484375,0.00013315794058144093,-0.0010652635246515274,0.00026631588116288185
1772651339643232000,5.51723193359375,0.0011984214652329683,0.0005326317623257637,-0.00026631588116288185
1772651339653235500,5.5272353515625,-0.0003994738217443228,0.0010652635246515274,0.0007989476434886456
1772651339663239200,5.5372392578125,-0.0014647373463958502,0,0.0007989476434886456
1772651339673242600,5.54724267578125,-0.0003994738217443228,-0.0010652635246515274,0.00026631588116288185
1772651339683246000,5.55724609375,-0.0014647373463958502,-0.0005326317623257637,-0.0007989476434886456
1772651339693249800,5.567249755859375,0.00013315794058144093,-0.001597895286977291,0.0007989476434886456
1772651339703253200,5.577253173828125,-0.001997369108721614,-0.0026631588116288185,-0.00026631588116288185
1772651339713257000,5.587257080078125,0.0011984214652329683,-0.0010652635246515274,-0.00026631588116288185
1772651339733264100,5.60726416015625,-0.0003994738217443228,0.0010652635246515274,0.00026631588116288185
1772651339743267600,5.617267578125,-0.0009321055840700865,0.0010652635246515274,-0.0007989476434886456
1772651339753271300,5.627271240234375,0.00013315794058144093,0.0010652635246515274,-0.0007989476434886456
1772651339763274500,5.6372744140625,-0.0003994738217443228,0.0010652635246515274,0.0007989476434886456
1772651339773278000,5.64727783203125,0.00013315794058144093,0.0005326317623257637,-0.0007989476434886456
1772651339783281200,5.65728125,0.0006657897029072046,-0.001597895286977291,0.0013315794058144093
1772651339793284600,5.66728466796875,-0.0003994738217443228,-0.0010652635246515274,-0.001864211168140173
1772651339803287800,5.677287841796875,-0.0009321055840700865,-0.0026631588116288185,-0.001864211168140173
1772651339813291300,5.687291259765625,0.0011984214652329683,-0.001597895286977291,-0.0007989476434886456
1772651339823294500,5.69729443359375,-0.0014647373463958502,0.0010652635246515274,-0.00026631588116288185
1772651339833298000,5.7072978515625,0.00013315794058144093,-0.002130527049303055,-0.00026631588116288185
1772651339843301000,5.717301025390625,0.00013315794058144093,-0.0005326317623257637,0.00026631588116288185
1772651339853304600,5.7273046875,0.00013315794058144093,0,-0.00026631588116288185
1772651339863307800,5.737307861328125,0.0011984214652329683,-0.0005326317623257637,-0.001864211168140173
1772651339873311200,5.747311279296875,-0.0003994738217443228,0.001597895286977291,-0.0013315794058144093
1772651339883314700,5.757314697265625,0.00013315794058144093,0,0.0013315794058144093
1772651339893318000,5.76731787109375,0.0006657897029072046,-0.001597895286977291,-0.0007989476434886456
1772651339903321300,5.7773212890625,-0.0014647373463958502,0.001597895286977291,-0.0007989476434886456
1772651339913324500,5.787324462890625,0.0011984214652329683,0,-0.0013315794058144093
1772651339923328000,5.797327880859375,0.0006657897029072046,0.0005326317623257637,0.0013315794058144093
1772651339933331200,5.807331298828125,0.0006657897029072046,0.0005326317623257637,-0.0013315794058144093
1772651339943334700,5.817334716796875,-0.0003994738217443228,0.0005326317623257637,-0.00026631588116288185
1772651339953337900,5.827337890625,-0.0003994738217443228,0,-0.0013315794058144093
1772651339963341300,5.83734130859375,0.0006657897029072046,-0.0010652635246515274,0.001864211168140173
1772651339973344500,5.847344482421875,-0.0014647373463958502,0.0026631588116288185,0.00026631588116288185
1772651339983348000,5.857347900390625,-0.0014647373463958502,0,-0.0013315794058144093
1772651339993351200,5.86735107421875,0.0006657897029072046,0.001597895286977291,0.00026631588116288185
1772651340003354600,5.877354736328125,0.00013315794058144093,0,-0.0013315794058144093
1772651340013358000,5.887358154296875,-0.0003994738217443228,-0.001597895286977291,-0.0007989476434886456
1772651340023361300,5.897361328125,0.00013315794058144093,0.001597895286977291,-0.0013315794058144093
1772651340033364700,5.90736474609375,-0.0003994738217443228,-0.002130527049303055,-0.001864211168140173
1772651340043368000,5.917367919921875,0.00013315794058144093,-0.0010652635246515274,-0.00026631588116288185
1772651340053371400,5.927371337890625,-0.0003994738217443228,0,-0.00026631588116288185
1772651340063374600,5.93737451171875,-0.001997369108721614,-0.002130527049303055,0.00026631588116288185
1772651340073378000,5.9473779296875,-0.0003994738217443228,-0.0005326317623257637,0.0007989476434886456
1772651340083381200,5.95738134765625,-0.0003994738217443228,0,-0.00026631588116288185
1772651340093384700,5.967384765625,-0.0009321055840700865,0.001597895286977291,-0.00026631588116288185
1772651340103388200,5.97738818359375,0.0011984214652329683,-0.0005326317623257637,-0.0007989476434886456
1772651340113391400,5.987391357421875,0.0006657897029072046,0.001597895286977291,-0.0013315794058144093
1772651340123394800,5.997394775390625,0.00013315794058144093,-0.0005326317623257637,0.0007989476434886456
1772651340133398000,6.00739794921875,-0.0009321055840700865,0.001597895286977291,0.00026631588116288185
1772651340143401500,6.0174013671875,0.0006657897029072046,0.0005326317623257637,-0.0007989476434886456
1772651340153404700,6.02740478515625,0.00013315794058144093,0,-0.00026631588116288185
1772651340163408100,6.037408203125,-0.0003994738217443228,0,-0.0013315794058144093
1772651340173411300,6.047411376953125,-0.001997369108721614,-0.0026631588116288185,-0.001864211168140173
1772651340183414800,6.057414794921875,-0.0014647373463958502,0.0005326317623257637,0.00026631588116288185
1772651340193418000,6.06741796875,-0.0009321055840700865,0.0010652635246515274,-0.00026631588116288185
1772651340203421400,6.07742138671875,0.0006657897029072046,-0.0005326317623257637,0.0007989476434886456
1772651340213425000,6.0874248046875,-0.0003994738217443228,0.0010652635246515274,0.0007989476434886456
1772651340223428000,6.097427978515625,-0.0009321055840700865,0,-0.00026631588116288185
1772651340233431600,6.107431640625,-0.0003994738217443228,0,0.0007989476434886456
1772651340243434800,6.117434814453125,-0.0009321055840700865,0.0010652635246515274,-0.0007989476434886456
1772651340253438200,6.127438232421875,-0.0014647373463958502,0.0005326317623257637,0.00026631588116288185
1772651340263441200,6.137441162109375,0.00013315794058144093,-0.0005326317623257637,0.0013315794058144093
1772651340273444400,6.1474443359375,0.0011984214652329683,0.0005326317623257637,-0.0007989476434886456
1772651340283447600,6.157447509765625,0.0011984214652329683,-0.0005326317623257637,0.0007989476434886456
1772651340293450500,6.167450439453125,-0.0009321055840700865,0.0005326317623257637,-0.001864211168140173
1772651340303453700,6.17745361328125,0.00013315794058144093,0,0.00026631588116288185
1772651340313457000,6.187456787109375,0.001731053227558732,0,-0.0013315794058144093
1772651340323459800,6.1974599609375,-0.0009321055840700865,-0.0005326317623257637,0.0013315794058144093
1772651340333463000,6.207463134765625,0.001731053227558732,0.0010652635246515274,-0.00026631588116288185
1772651340343466200,6.21746630859375,0.00013315794058144093,-0.0010652635246515274,0.00026631588116288185
1772651340353469200,6.22746923828125,-0.0009321055840700865,-0.0005326317623257637,-0.0007989476434886456
1772651340363472400,6.237472412109375,-0.0009321055840700865,0.0005326317623257637,0.00026631588116288185
1772651340373475600,6.2474755859375,-0.0003994738217443228,0.0005326317623257637,0.00026631588116288185
1772651340383478500,6.257478515625,-0.0003994738217443228,-0.0010652635246515274,-0.00026631588116288185
1772651340393481700,6.267481689453125,-0.0009321055840700865,0.0010652635246515274,-0.00026631588116288185
1772651340403485000,6.27748486328125,0.00013315794058144093,0.0005326317623257637,-0.00026631588116288185
1772651340413487900,6.28748779296875,0.0006657897029072046,-0.0005326317623257637,-0.0007989476434886456
1772651340423491000,6.297490966796875,0.0011984214652329683,0,0.00026631588116288185
1772651340443497200,6.317497314453125,0.0011984214652329683,0.0005326317623257637,-0.00026631588116288185
1772651340453500400,6.32750048828125,-0.0025300008710473776,0,0.00026631588116288185
1772651340463503600,6.337503662109375,0.001731053227558732,0.002130527049303055,-0.00026631588116288185
1772651340473506600,6.347506591796875,0.00013315794058144093,-0.0010652635246515274,-0.0013315794058144093
1772651340483509800,6.357509765625,0.0006657897029072046,0.0005326317623257637,0.0007989476434886456
1772651340493513000,6.367512939453125,-0.0003994738217443228,-0.0005326317623257637,0.00026631588116288185
1772651340503516000,6.377515869140625,0.0011984214652329683,0.0005326317623257637,-0.001864211168140173
1772651340513519000,6.38751904296875,0.00013315794058144093,0.0005326317623257637,-0.0013315794058144093
1772651340523522300,6.397522216796875,0.001731053227558732,0.001597895286977291,-0.0013315794058144093
1772651340533525200,6.407525146484375,0.00013315794058144093,0.0005326317623257637,-0.00026631588116288185
1772651340543528400,6.417528564453125,0.00013315794058144093,-0.0010652635246515274,-0.00026631588116288185
1772651340553531600,6.42753173828125,-0.0003994738217443228,-0.0010652635246515274,0.00026631588116288185
1772651340563534600,6.43753466796875,0.001731053227558732,-0.0005326317623257637,0.0007989476434886456
1772651340573537800,6.447537841796875,0.00013315794058144093,0.0010652635246515274,-0.0013315794058144093
1772651340583541000,6.457541015625,-0.0003994738217443228,0,0.001864211168140173
1772651340593544000,6.4675439453125,0.00013315794058144093,0.0010652635246515274,0.00026631588116288185
1772651340603547100,6.477547119140625,0.00013315794058144093,0.0010652635246515274,-0.00026631588116288185
1772651340613550300,6.48755029296875,0.00013315794058144093,0.002130527049303055,-0.00026631588116288185
1772651340623553300,6.49755322265625,-0.0009321055840700865,-0.0005326317623257637,0.0007989476434886456
1772651340633556500,6.507556396484375,0.00013315794058144093,0.0010652635246515274,0.00026631588116288185
1772651340643559700,6.5175595703125,0.0011984214652329683,0,0.0007989476434886456
1772651340653562600,6.527562744140625,-0.0009321055840700865,-0.0010652635246515274,-0.0007989476434886456
1772651340663565800,6.53756591796875,0.001731053227558732,-0.0010652635246515274,-0.0007989476434886456
1772651340673569000,6.547569091796875,-0.0009321055840700865,0.0026631588116288185,0.00026631588116288185
1772651340683572000,6.557572021484375,-0.0009321055840700865,0,0.00026631588116288185
1772651340693575200,6.5675751953125,-0.0014647373463958502,-0.0010652635246515274,-0.0007989476434886456
1772651340713581300,6.587581298828125,0.00013315794058144093,-0.0010652635246515274,0.00026631588116288185
1772651340733587700,6.607587646484375,0.00013315794058144093,-0.0005326317623257637,-0.00026631588116288185
1772651340743590700,6.617590576171875,0.00013315794058144093,0,0.00026631588116288185
1772651340753594000,6.627593994140625,-0.0009321055840700865,-0.0005326317623257637,-0.0007989476434886456
1772651340763597800,6.637597900390625,0.00013315794058144093,0,-0.0013315794058144093
1772651340773601500,6.6476015625,-0.0003994738217443228,0.0005326317623257637,0.0013315794058144093
1772651340783605200,6.657605224609375,-0.0009321055840700865,0,0.00026631588116288185
1772651340793609200,6.667609130859375,0.0006657897029072046,0,0.00026631588116288185
1772651340803613000,6.677613037109375,-0.0009321055840700865,0.001597895286977291,-0.00026631588116288185
1772651340813616600,6.68761669921875,0.0006657897029072046,-0.0010652635246515274,-0.00026631588116288185
1772651340823620600,6.69762060546875,0.0006657897029072046,-0.002130527049303055,-0.0007989476434886456
1772651340833624300,6.707624267578125,0.001731053227558732,0.0010652635246515274,-0.00026631588116288185
1772651340843628000,6.7176279296875,0.0006657897029072046,-0.0010652635246515274,0.00026631588116288185
1772651340853631700,6.7276318359375,0.00013315794058144093,0.0010652635246515274,-0.00026631588116288185
1772651340863635700,6.7376357421875,0.0006657897029072046,-0.0005326317623257637,-0.0013315794058144093
1772651340873639400,6.747639404296875,-0.0003994738217443228,-0.0005326317623257637,0.0007989476434886456
1772651340883643400,6.757643310546875,-0.0009321055840700865,0,0.00026631588116288185
1772651340893647000,6.767647216796875,-0.0003994738217443228,0.0010652635246515274,-0.0013315794058144093
1772651340903650800,6.77765087890625,0.0007989476434886456,0.0010652635246515274,0
1772651340913654500,6.787654541015625,0.00026631588116288185,-0.0010652635246515274,0
1772651340923658500,6.797658447265625,0.0007989476434886456,-0.001597895286977291,0
1772651340933662200,6.807662109375,0.00026631588116288185,0.0005326317623257637,-0.0010652635246515274
1772651340943666000,6.817666015625,-0.0013315794058144093,-0.0010652635246515274,0
1772651340953670000,6.827669921875,0.00026631588116288185,0.0005326317623257637,0
1772651340963673600,6.837673583984375,0.00026631588116288185,-0.002130527049303055,0.0005326317623257637
1772651340973677300,6.84767724609375,-0.0007989476434886456,0.0026631588116288185,0.0005326317623257637
1772651340983681300,6.857681396484375,-0.00026631588116288185,0.001597895286977291,-0.0005326317623257637
1772651340993685000,6.86768505859375,0.00026631588116288185,0.0005326317623257637,0
1772651341003688700,6.877688720703125,-0.00026631588116288185,0,0.0005326317623257637
1772651341013692400,6.8876923828125,0.00026631588116288185,0,0.0005326317623257637
1772651341023696400,6.8976962890625,0.00026631588116288185,0,0.0010652635246515274
1772651341033700000,6.9077001953125,0.00026631588116288185,0.0005326317623257637,0
1772651341043703800,6.917703857421875,0.0007989476434886456,0.0010652635246515274,0.0005326317623257637
1772651341053707800,6.927707763671875,-0.0013315794058144093,0.002130527049303055,-0.0005326317623257637
1772651341063711500,6.93771142578125,0.00026631588116288185,0,0
1772651341073715200,6.947715087890625,-0.00026631588116288185,0,0
1772651341083719200,6.95771923828125,0.0007989476434886456,0,0
1772651341093723000,6.967722900390625,0.0023968429304659367,-0.0005326317623257637,0
1772651341103726600,6.9777265625,-0.0013315794058144093,0.0026631588116288185,0.0005326317623257637
1772651341113730600,6.98773046875,-0.0007989476434886456,0.002130527049303055,0.0005326317623257637
1772651341133738000,7.007738037109375,-0.0007989476434886456,0,0.0010652635246515274
1772651341143741700,7.01774169921875,0.0007989476434886456,0.0010652635246515274,0
1772651341153745700,7.02774560546875,0.0023968429304659367,0.0005326317623257637,0.001597895286977291
1772651341163749400,7.037749267578125,0.0013315794058144093,-0.0005326317623257637,0.0005326317623257637
1772651341173753000,7.047753173828125,-0.00026631588116288185,0,0.001597895286977291
1772651341183757000,7.057757080078125,-0.00026631588116288185,-0.0005326317623257637,0.0010652635246515274
1772651341193760800,7.0677607421875,0.0007989476434886456,0.0005326317623257637,0.001597895286977291
1772651341203764500,7.077764404296875,0.0023968429304659367,0.0010652635246515274,0.0005326317623257637
1772651341213768400,7.0877685546875,-0.0007989476434886456,-0.0005326317623257637,-0.0005326317623257637
1772651341223772200,7.097772216796875,0.0007989476434886456,0.0010652635246515274,0.0005326317623257637
1772651341233775900,7.10777587890625,-0.0007989476434886456,-0.002130527049303055,0.0026631588116288185
1772651341253783600,7.127783447265625,0.00026631588116288185,0.001597895286977291,0.0010652635246515274
1772651341263787000,7.137787109375,0.0007989476434886456,0.0010652635246515274,0.0005326317623257637
1772651341273790500,7.14779052734375,0.0007989476434886456,-0.0010652635246515274,0
1772651341283794000,7.1577939453125,0.00026631588116288185,-0.0010652635246515274,0.0005326317623257637
1772651341293797600,7.167797607421875,-0.001864211168140173,-0.0005326317623257637,0.0010652635246515274
1772651341303801000,7.177801025390625,0.0007989476434886456,-0.0010652635246515274,0.002130527049303055
1772651341313804500,7.187804443359375,0.0007989476434886456,0,0.0010652635246515274
1772651341323808300,7.197808349609375,0.0013315794058144093,-0.0010652635246515274,0.0010652635246515274
1772651341333811700,7.207811767578125,0.00026631588116288185,0,-0.0010652635246515274
1772651341353819000,7.22781884765625,0.0007989476434886456,-0.0005326317623257637,0.0005326317623257637
1772651341363822300,7.237822265625,0.0013315794058144093,0.0010652635246515274,0.001597895286977291
1772651341373826000,7.247825927734375,-0.00026631588116288185,-0.0005326317623257637,-0.0010652635246515274
1772651341383829500,7.25782958984375,-0.0007989476434886456,-0.001597895286977291,0.0010652635246515274
1772651341393833000,7.2678330078125,-0.0007989476434886456,0,0.0005326317623257637
1772651341403836700,7.277836669921875,-0.0007989476434886456,-0.0010652635246515274,0
1772651341413840100,7.287840087890625,0.0007989476434886456,-0.0005326317623257637,0.0005326317623257637
1772651341423843600,7.297843505859375,-0.00026631588116288185,0.0005326317623257637,-0.0005326317623257637
1772651341433847300,7.307847412109375,-0.0007989476434886456,0.0005326317623257637,0
1772651341453854200,7.327854248046875,0.00026631588116288185,-0.00426105409860611,-0.0010652635246515274
1772651341463857700,7.337857666015625,0.0007989476434886456,-0.0005326317623257637,-0.0005326317623257637
1772651341473861400,7.347861328125,-0.00026631588116288185,-0.002130527049303055,-0.0005326317623257637
1772651341483864800,7.35786474609375,-0.00026631588116288185,0,-0.0005326317623257637
1772651341493868300,7.367868408203125,-0.001864211168140173,-0.0005326317623257637,0.0010652635246515274
1772651341503872000,7.3778720703125,-0.00026631588116288185,-0.0010652635246515274,0.0005326317623257637
1772651341513875500,7.38787548828125,-0.0013315794058144093,-0.0010652635246515274,0.0005326317623257637
1772651341523879000,7.39787890625,0.0007989476434886456,0.0005326317623257637,0.0010652635246515274
1772651341533882600,7.407882568359375,0.0007989476434886456,-0.002130527049303055,0.002130527049303055
1772651341543886000,7.417885986328125,-0.00026631588116288185,0.0005326317623257637,0.0005326317623257637
1772651341553889500,7.4278896484375,0.0013315794058144093,0,-0.0005326317623257637
1772651341563893200,7.437893310546875,0.00026631588116288185,-0.0010652635246515274,0.0010652635246515274
1772651341573896700,7.447896728515625,0.0007989476434886456,0.0010652635246515274,0
1772651341583900200,7.457900146484375,0.0007989476434886456,0.0010652635246515274,0
1772651341593903900,7.46790380859375,-0.00026631588116288185,0.0005326317623257637,0
1772651341603907300,7.4779072265625,0.00026631588116288185,0.001597895286977291,0.0010652635246515274
1772651341613910800,7.487910888671875,0.00026631588116288185,-0.0010652635246515274,0
1772651341623914200,7.497914306640625,0.0007989476434886456,0.002130527049303055,0.0010652635246515274
1772651341633918000,7.50791796875,-0.00026631588116288185,0.0005326317623257637,0
1772651341643921400,7.51792138671875,-0.0007989476434886456,0.0005326317623257637,-0.0005326317623257637
1772651341653924900,7.5279248046875,-0.0013315794058144093,0,0.0010652635246515274
1772651341663928600,7.537928466796875,0.0007989476434886456,0.002130527049303055,0.0010652635246515274
1772651341673932000,7.54793212890625,-0.00026631588116288185,-0.0005326317623257637,0.0010652635246515274
1772651341683935500,7.557935546875,0.00026631588116288185,0.0010652635246515274,0
1772651341693939200,7.567939208984375,0.0013315794058144093,-0.0010652635246515274,-0.0005326317623257637
1772651341703942700,7.577942626953125,-0.0007989476434886456,-0.001597895286977291,0.001597895286977291
1772651341713946000,7.587946044921875,-0.0007989476434886456,0,0.0010652635246515274
1772651341723949800,7.59794970703125,0.0023968429304659367,-0.0005326317623257637,-0.001597895286977291
1772651341733953300,7.607953369140625,0.00026631588116288185,0.0005326317623257637,-0.0005326317623257637
1772651341743956700,7.617956787109375,0.0007989476434886456,0.0005326317623257637,0.0005326317623257637
1772651341753960200,7.627960205078125,0.00026631588116288185,-0.0010652635246515274,-0.0010652635246515274
1772651341763963000,7.637962890625,0.0007989476434886456,-0.0005326317623257637,0.0010652635246515274
1772651341773965600,7.647965576171875,0.0007989476434886456,0,0
1772651341783968500,7.657968505859375,-0.0007989476434886456,-0.0005326317623257637,0.001597895286977291
1772651341793971200,7.66797119140625,0.00026631588116288185,-0.0005326317623257637,0.001597895286977291
1772651341803974000,7.677973876953125,0.0007989476434886456,0.0005326317623257637,0
1772651341813976600,7.6879765625,-0.0007989476434886456,0.0010652635246515274,0.0010652635246515274
1772651341823979300,7.697979248046875,-0.00026631588116288185,0.0010652635246515274,0
1772651341833982200,7.707982177734375,0.0007989476434886456,0.0005326317623257637,-0.0005326317623257637
1772651341843985000,7.71798486328125,0.00026631588116288185,0.0005326317623257637,0
1772651341853987600,7.727987548828125,-0.0007989476434886456,0,-0.0005326317623257637
1772651341863990300,7.737990234375,0.00026631588116288185,-0.0010652635246515274,0.0005326317623257637
1772651341873993000,7.747992919921875,0.0007989476434886456,0,0.0005326317623257637
1772651341883996000,7.757995849609375,0.0007989476434886456,0.0005326317623257637,-0.0005326317623257637
1772651341893998600,7.76799853515625,-0.0007989476434886456,0.0005326317623257637,0.001597895286977291
1772651341904001300,7.778001220703125,-0.0013315794058144093,0.0010652635246515274,0
1772651341914004000,7.78800390625,0.0007989476434886456,-0.0005326317623257637,0
1772651341924006700,7.798006591796875,0.0013315794058144093,0,0.0010652635246515274
1772651341934009600,7.808009521484375,-0.0007989476434886456,-0.0005326317623257637,-0.0005326317623257637
1772651341944012300,7.81801220703125,-0.00026631588116288185,-0.0005326317623257637,0.0010652635246515274
1772651341954015000,7.828014892578125,-0.0007989476434886456,0.0005326317623257637,0
1772651341974020400,7.848020263671875,0.0013315794058144093,0,0.0005326317623257637
1772651341984023300,7.858023193359375,-0.0007989476434886456,0.0005326317623257637,0.001597895286977291
1772651341994026000,7.86802587890625,0.0013315794058144093,-0.0010652635246515274,0.0010652635246515274
1772651342004028700,7.878028564453125,0.0007989476434886456,0.0005326317623257637,0
1772651342014031400,7.88803125,0.00026631588116288185,0,0.0010652635246515274
1772651342024034000,7.898033935546875,0.0007989476434886456,0.0010652635246515274,-0.0010652635246515274
1772651342034037000,7.908037109375,0.0013315794058144093,0.0005326317623257637,-0.0010652635246515274
1772651342044039700,7.918039794921875,0.0007989476434886456,-0.0010652635246515274,0.0005326317623257637
1772651342054042400,7.92804248046875,0.001864211168140173,0.0005326317623257637,0.001597895286977291
1772651342064045000,7.938045166015625,0.0013315794058144093,0.0010652635246515274,-0.0005326317623257637
1772651342074047700,7.9480478515625,0.00026631588116288185,0.0005326317623257637,-0.0010652635246515274
1772651342084050700,7.95805078125,0.0013315794058144093,0,-0.0005326317623257637
1772651342094053400,7.968053466796875,-0.0007989476434886456,0.001597895286977291,0.0010652635246515274
1772651342104056000,7.97805615234375,-0.0007989476434886456,-0.003195790573954582,0
1772651342114058800,7.988058837890625,0.00026631588116288185,0,0.0005326317623257637
1772651342124061400,7.9980615234375,0.00026631588116288185,0.0010652635246515274,0.0005326317623257637
1772651342134064400,8.008064453125,-0.0013315794058144093,-0.0005326317623257637,0.0005326317623257637
1772651342144067000,8.018067138671874,-0.0007989476434886456,0.0005326317623257637,0.0010652635246515274
1772651342154069800,8.02806982421875,0.00026631588116288185,-0.0026631588116288185,0
1772651342164072400,8.038072509765625,-0.0007989476434886456,-0.0005326317623257637,-0.0005326317623257637
1772651342174075100,8.0480751953125,-0.0013315794058144093,0.0010652635246515274,0.0010652635246515274
1772651342184078000,8.058078125,-0.0007989476434886456,0.0005326317623257637,0
1772651342194080800,8.068080810546874,0.0007989476434886456,-0.0005326317623257637,-0.0005326317623257637
1772651342204083500,8.07808349609375,-0.00026631588116288185,0.0010652635246515274,0.0005326317623257637
1772651342214086100,8.088086181640625,0.0013315794058144093,0.0005326317623257637,0.0005326317623257637
1772651342224088800,8.0980888671875,-0.00026631588116288185,0,0.0005326317623257637
1772651342234091800,8.108091796875,0.00026631588116288185,-0.0010652635246515274,-0.0005326317623257637
1772651342244094500,8.118094482421874,0.00026631588116288185,-0.0010652635246515274,0.0005326317623257637
1772651342254097200,8.12809716796875,0.00026631588116288185,0.0005326317623257637,-0.001597895286977291
1772651342264100000,8.13810009765625,-0.0007989476434886456,0.0005326317623257637,0
1772651342274103000,8.14810302734375,-0.00026631588116288185,0.0010652635246515274,0.0005326317623257637
1772651342284105700,8.158105712890626,0.0013315794058144093,-0.001597895286977291,0.0026631588116288185
1772651342294108700,8.168108642578124,0.00026631588116288185,0,0.0010652635246515274
1772651342304111600,8.178111572265625,-0.00026631588116288185,-0.0005326317623257637,0
1772651342314114300,8.1881142578125,0.00026631588116288185,0,-0.0005326317623257637
1772651342324117200,8.1981171875,0.00026631588116288185,-0.001597895286977291,0.0010652635246515274
1772651342334120200,8.2081201171875,-0.0013315794058144093,0,0.0005326317623257637
1772651342344123000,8.218122802734374,-0.0007989476434886456,0,0.001597895286977291
1772651342354125800,8.228125732421875,-0.0013315794058144093,-0.0010652635246515274,-0.0010652635246515274
1772651342364128800,8.238128662109375,0.00026631588116288185,0.001597895286977291,0
1772651342374131700,8.248131591796875,0.00026631588116288185,-0.0005326317623257637,-0.0005326317623257637
1772651342384134400,8.258134521484376,0.001864211168140173,-0.002130527049303055,0.001597895286977291
1772651342394137300,8.268137451171874,-0.0013315794058144093,-0.0005326317623257637,0.0005326317623257637
1772651342404140300,8.278140380859375,0.00026631588116288185,-0.001597895286977291,-0.0010652635246515274
1772651342414143000,8.28814306640625,0.0013315794058144093,-0.0005326317623257637,-0.0005326317623257637
1772651342424146000,8.29814599609375,-0.0013315794058144093,0.0005326317623257637,0.0005326317623257637
1772651342434148900,8.30814892578125,0.0007989476434886456,0.0005326317623257637,-0.002130527049303055
1772651342444151600,8.318151611328124,-0.00026631588116288185,0.0005326317623257637,-0.0005326317623257637
1772651342454154500,8.328154541015625,-0.00026631588116288185,0.0026631588116288185,0.001597895286977291
1772651342464157400,8.338157470703125,-0.0007989476434886456,-0.0005326317623257637,-0.001597895286977291
1772651342474160000,8.34816015625,0.00026631588116288185,-0.0005326317623257637,0
1772651342484163000,8.3581630859375,0.0007989476434886456,-0.0010652635246515274,0.002130527049303055
1772651342494166000,8.368166015625,0.0023968429304659367,-0.0010652635246515274,-0.0010652635246515274
1772651342504169000,8.3781689453125,-0.0007989476434886456,0.001597895286977291,0.001597895286977291
1772651342514171600,8.388171630859375,0.0007989476434886456,0,0.0010652635246515274
1772651342524174600,8.398174560546876,0.0007989476434886456,-0.0010652635246515274,0.002130527049303055
1772651342534177500,8.408177490234374,-0.0007989476434886456,0,0
1772651342544180200,8.41818017578125,0.0007989476434886456,0.0005326317623257637,0.0010652635246515274
1772651342554183200,8.42818310546875,-0.0013315794058144093,0.002130527049303055,0.0005326317623257637
1772651342564186000,8.43818603515625,-0.001864211168140173,-0.0005326317623257637,0
1772651342574189000,8.44818896484375,0.0013315794058144093,-0.0005326317623257637,-0.0005326317623257637
1772651342584191700,8.458191650390624,-0.0007989476434886456,-0.0005326317623257637,-0.0005326317623257637
1772651342594194700,8.468194580078125,0.00026631588116288185,0.0005326317623257637,0
1772651342604197600,8.47819775390625,-0.00026631588116288185,0,0.0005326317623257637
1772651342614200300,8.488200439453125,0.0007989476434886456,0.0005326317623257637,0.001597895286977291
1772651342624203300,8.498203369140626,-0.0023968429304659367,-0.0010652635246515274,-0.0005326317623257637
1772651342634206200,8.508206298828124,0.00026631588116288185,0,-0.0005326317623257637
1772651342644209000,8.518208984375,-0.0007989476434886456,-0.002130527049303055,-0.0005326317623257637
1772651342654211800,8.5282119140625,0.00013315794058144093,-0.002130527049303055,-0.00026631588116288185
1772651342664214800,8.53821484375,0.0011984214652329683,-0.0026631588116288185,-0.0007989476434886456
1772651342674217500,8.548217529296876,0.0006657897029072046,0.0005326317623257637,-0.00026631588116288185
1772651342684220400,8.558220458984374,0.0011984214652329683,-0.0010652635246515274,0.00026631588116288185
1772651342694223400,8.568223388671875,0.0006657897029072046,0.001597895286977291,0.0013315794058144093
1772651342704226300,8.578226318359375,-0.0014647373463958502,0.0005326317623257637,0.00026631588116288185
1772651342724232000,8.59823193359375,0.00013315794058144093,0.0010652635246515274,0.00026631588116288185
1772651342734235000,8.60823486328125,-0.0003994738217443228,0.0005326317623257637,0.0007989476434886456
1772651342744237600,8.618237548828125,-0.0003994738217443228,0.0010652635246515274,0.0013315794058144093
1772651342754240800,8.62824072265625,-0.0009321055840700865,0.003195790573954582,-0.0013315794058144093
1772651342764244200,8.638244140625,-0.0003994738217443228,-0.0005326317623257637,-0.00026631588116288185
1772651342774247700,8.64824755859375,-0.0009321055840700865,0,-0.0007989476434886456
1772651342784251100,8.658251220703125,0.0006657897029072046,-0.0005326317623257637,-0.00026631588116288185
1772651342794254600,8.668254638671876,0.00013315794058144093,-0.0010652635246515274,-0.00026631588116288185
1772651342804258300,8.67825830078125,0.00013315794058144093,-0.002130527049303055,-0.0013315794058144093
1772651342814261800,8.68826171875,0.0006657897029072046,-0.0026631588116288185,0.00026631588116288185
1772651342824265200,8.69826513671875,0.00013315794058144093,0.0005326317623257637,-0.0007989476434886456
1772651342834268700,8.7082685546875,-0.0003994738217443228,0.001597895286977291,-0.00026631588116288185
1772651342844272000,8.718272216796874,-0.0014647373463958502,-0.001597895286977291,0.00026631588116288185
1772651342854275800,8.72827587890625,-0.0009321055840700865,0.0026631588116288185,0.00026631588116288185
1772651342864279300,8.738279296875,-0.0003994738217443228,-0.001597895286977291,-0.00026631588116288185
1772651342874282800,8.74828271484375,-0.0003994738217443228,-0.0005326317623257637,-0.00026631588116288185
1772651342884286200,8.7582861328125,0.00013315794058144093,0.0005326317623257637,0.0013315794058144093
1772651342894289700,8.76828955078125,-0.0009321055840700865,0,0.00026631588116288185
1772651342904293400,8.77829345703125,0.00013315794058144093,0.0026631588116288185,0.00026631588116288185
1772651342914296800,8.788296875,-0.0009321055840700865,-0.0010652635246515274,-0.00026631588116288185
1772651342924300300,8.79830029296875,-0.0014647373463958502,-0.0010652635246515274,-0.0007989476434886456
1772651342934303700,8.8083037109375,0.0011984214652329683,-0.002130527049303055,0.0007989476434886456
1772651342944307200,8.81830712890625,-0.0003994738217443228,0.0005326317623257637,0.001864211168140173
1772651342954311000,8.828310791015625,0.0006657897029072046,0.001597895286977291,0.0007989476434886456
1772651342964314400,8.838314453125,-0.0003994738217443228,0,-0.0007989476434886456
1772651342974317800,8.84831787109375,0.00013315794058144093,0,-0.00026631588116288185
1772651342994325000,8.868324951171875,-0.0003994738217443228,0.0010652635246515274,-0.00026631588116288185
1772651343004328400,8.878328369140625,0.0006657897029072046,0.0005326317623257637,0.00026631588116288185
1772651343014332000,8.888331787109376,0.00013315794058144093,0.001597895286977291,0.0013315794058144093
1772651343024335400,8.89833544921875,0.001731053227558732,0.002130527049303055,0.001864211168140173
1772651343034338800,8.9083388671875,0.0006657897029072046,0.003195790573954582,0.0013315794058144093
1772651343044342500,8.918342529296876,0.0006657897029072046,0,0.0023968429304659367
1772651343054346000,8.928345947265624,0.0006657897029072046,0.0026631588116288185,0.001864211168140173
1772651343064349400,8.938349365234375,-0.0009321055840700865,-0.0005326317623257637,0.00026631588116288185
1772651343074353000,8.948352783203125,0.0006657897029072046,0,-0.0013315794058144093
1772651343084356400,8.9583564453125,-0.0014647373463958502,-0.003195790573954582,-0.0013315794058144093
1772651343094359800,8.96835986328125,-0.0014647373463958502,-0.005326317623257637,-0.0013315794058144093
1772651343104363500,8.978363525390625,0.0006657897029072046,-0.003728422336280346,-0.0029294746927917004
1772651343114367000,8.988366943359376,0.0011984214652329683,0.0010652635246515274,0.00026631588116288185
1772651343124370400,8.998370361328124,0.00013315794058144093,-0.0010652635246515274,-0.00026631588116288185
