time,seconds_elapsed,z,y,x
1772649722247095300,0.32809521484375,0.28190791606903076,0.0000705718994140625,0.44034790992736816
1772649722267103200,0.348103271484375,0.09108895063400269,-0.2581310272216797,0.4405968189239502
1772649722287111200,0.368111083984375,0.12524786591529846,-0.29862403869628906,0.485378623008728
1772649722307119000,0.388119140625,0.27805519104003906,-0.424224853515625,0.6822563409805298
1772649722327127000,0.408126953125,0.10164763033390045,-0.18372535705566406,0.5980933904647827
1772649722347135000,0.428135009765625,0.041671328246593475,0.022365570068359375,0.3498039245605469
1772649722367143000,0.448142822265625,-0.050742700695991516,0.18028545379638672,-0.07541787624359131
1772649722387150800,0.46815087890625,-0.12292268872261047,0.20658588409423828,-0.46209263801574707
1772649722407158800,0.48815869140625,-0.22732724249362946,0.2519807815551758,-0.7966198921203613
1772649722427166700,0.508166748046875,-0.4442945122718811,0.4841451644897461,-1.1196503639221191
1772649722447175000,0.5281748046875,-0.6044677495956421,1.04583740234375,-1.460537314414978
1772649722467182800,0.548182861328125,-0.8292661905288696,2.130523204803467,-1.8507435321807861
1772649722487190800,0.568190673828125,-0.7065119743347168,3.357686996459961,-2.016537666320801
1772649722507198700,0.58819873046875,0.11756409704685211,4.565107822418213,-1.8837974071502686
1772649722527206700,0.60820654296875,0.6410976648330688,5.3459296226501465,-1.6573927402496338
1772649722547214600,0.628214599609375,-0.1388314664363861,5.5971293449401855,-1.384629487991333
1772649722567222800,0.648222900390625,-0.6872029304504395,4.548512935638428,-0.4919090270996094
1772649722587231000,0.66823095703125,-0.4753764867782593,1.885118007659912,0.836902379989624
1772649722607239200,0.6882392578125,0.42675378918647766,-1.6742143630981445,0.35959136486053467
1772649722627247400,0.708247314453125,-1.1986867189407349,-4.387833595275879,1.2579095363616943
1772649722647255600,0.728255615234375,1.031583309173584,-5.137170791625977,2.6787524223327637
1772649722667263700,0.748263671875,0.30021238327026367,-7.061816215515137,2.5911169052124023
1772649722687272000,0.76827197265625,0.6426360607147217,-8.881143569946289,2.8040149211883545
1772649722707280100,0.788280029296875,1.393534779548645,-11.49754524230957,2.228034496307373
1772649722727288300,0.808288330078125,0.9505120515823364,-12.758045196533203,2.0663719177246094
1772649722747296800,0.828296875,0.35629528760910034,-10.778451919555664,2.2017691135406494
1772649722767305000,0.848304931640625,0.30454403162002563,-8.784794807434082,2.7894935607910156
1772649722787313200,0.868313232421875,-0.40406349301338196,-7.921414375305176,3.154787063598633
1772649722807321300,0.8883212890625,-1.0308163166046143,-6.514172554016113,2.524339437484741
1772649722827329500,0.90832958984375,-2.288081169128418,-2.6522045135498047,0.8877407312393188
1772649722847337700,0.928337646484375,-2.922412157058716,0.7988061904907227,-0.2439873218536377
1772649722867346000,0.948345947265625,-1.9459456205368042,3.5690760612487793,-1.8654255867004395
1772649722887354000,0.96835400390625,-1.3876609802246094,5.997256755828857,-3.4611992835998535
1772649722907362300,0.9883623046875,-1.3039318323135376,8.694042205810547,-4.61618709564209
1772649722927370500,1.00837060546875,-1.8521655797958374,11.049056053161621,-5.64328670501709
1772649722947378700,1.028378662109375,-0.04832965135574341,12.113554000854492,-6.484787940979004
1772649722967387100,1.04838720703125,1.6109659671783447,13.013914108276367,-6.93034553527832
1772649722987395300,1.068395263671875,0.17004874348640442,13.399168014526367,-4.567060470581055
1772649723007403500,1.088403564453125,-0.8477447628974915,10.752537727355957,-2.432584762573242
1772649723027411700,1.10841162109375,1.3992528915405273,7.852611064910889,-0.8521344661712646
1772649723047420000,1.128419921875,1.4835987091064453,7.568443298339844,-0.09897565841674805
1772649723067428600,1.1484287109375,0.9239274263381958,8.414663314819336,-0.599696159362793
1772649723087437800,1.168437744140625,-0.21129727363586426,8.951887130737305,-1.1934592723846436
1772649723107446800,1.18844677734375,-0.2470211684703827,8.43379020690918,-2.372265338897705
1772649723127456000,1.2084560546875,-0.1355762928724289,6.093643665313721,-2.8272600173950195
1772649723147465000,1.22846484375,1.812362790107727,-1.7761201858520508,-3.5771548748016357
1772649723167474200,1.24847412109375,6.3304033279418945,-21.875606536865234,7.6280035972595215
1772649723187483400,1.2684833984375,-7.514537811279297,-21.758129119873047,4.521908283233643
1772649723207492400,1.288492431640625,3.8968143463134766,-15.142300605773926,3.0832247734069824
1772649723227501600,1.30850146484375,5.138436794281006,-13.659672737121582,5.918740272521973
1772649723247510500,1.328510498046875,1.5712947845458984,-13.06854248046875,3.4653213024139404
1772649723267519700,1.348519775390625,1.2764009237289429,-12.63737964630127,3.589020252227783
1772649723287528700,1.36852880859375,2.534982681274414,-12.859102249145508,6.230770111083984
1772649723307538000,1.388537841796875,1.5437109470367432,-11.5554838180542,5.386722564697266
1772649723327547000,1.408546875,-0.40667933225631714,-9.088235855102539,2.796696186065674
1772649723347556000,1.42855615234375,-1.8123418092727661,-5.133571624755859,0.526155948638916
1772649723367565000,1.44856494140625,-2.3258872032165527,-1.5960359573364258,-0.3553886413574219
1772649723387574300,1.46857421875,-0.8624304533004761,2.2900586128234863,-1.6195242404937744
1772649723407583500,1.48858349609375,0.07960066199302673,5.86806583404541,-3.1635963916778564
1772649723427592400,1.508592529296875,-0.3806070387363434,8.819511413574219,-4.183884620666504
1772649723447601700,1.5286015625,-0.24671977758407593,11.339396476745605,-4.869816780090332
1772649723467610600,1.548610595703125,0.14189517498016357,12.248604774475098,-5.209636688232422
1772649723487619800,1.568619873046875,-0.21930623054504395,12.703042984008789,-5.26590633392334
1772649723507628800,1.58862890625,-1.5474770069122314,13.1959228515625,-3.717756748199463
1772649723527638000,1.608637939453125,-0.9293398261070251,13.733470916748047,-2.5141403675079346
1772649723547647000,1.62864697265625,-1.0034301280975342,10.739066123962402,-2.3688714504241943
1772649723567655700,1.64865576171875,0.3246120810508728,7.455378532409668,-1.2139902114868164
1772649723587664400,1.668664306640625,0.5831668972969055,7.413782119750977,-1.0924134254455566
1772649723607672800,1.6886728515625,0.12509313225746155,8.74337387084961,-2.0480434894561768
1772649723627681300,1.708681396484375,-1.0531978607177734,9.437649726867676,-2.6944456100463867
1772649723647689700,1.728689697265625,-1.0061206817626953,9.169513702392578,-3.2792537212371826
1772649723667698400,1.748698486328125,-0.4567040205001831,6.855373382568359,-3.609971284866333
1772649723687707000,1.768706787109375,2.0758326053619385,0.5192575454711914,-4.5992560386657715
1772649723707715300,1.78871533203125,4.761240482330322,-20.34221839904785,-0.1696467399597168
1772649723727723800,1.808723876953125,-8.683353424072266,-19.161582946777344,8.443799018859863
1772649723747732500,1.828732421875,3.077023506164551,-9.107938766479492,6.8544816970825195
1772649723767741000,1.848740966796875,4.792938709259033,-12.690848350524902,6.634057998657227
1772649723787749400,1.868749267578125,2.794328451156616,-15.004106521606445,4.070876121520996
1772649723807758000,1.888758056640625,-0.14514866471290588,-13.271056175231934,3.2614803314208984
1772649723827766500,1.9087666015625,1.0162442922592163,-12.494359970092773,4.979179859161377
1772649723847775000,1.92877490234375,0.4342096745967865,-12.756402015686035,5.957822322845459
1772649723867783400,1.948783447265625,-0.34408336877822876,-10.239524841308594,3.165290594100952
1772649723887792000,1.968792236328125,-0.8287569284439087,-8.068537712097168,0.9287829399108887
1772649723907800600,1.988800537109375,-0.6389481425285339,-6.433996200561523,0.38268494606018066
1772649723927809000,2.00880908203125,0.11598371714353561,-3.41695499420166,-0.2198958396911621
1772649723947817500,2.0288173828125,1.1283971071243286,0.2757425308227539,-1.5848181247711182
1772649723967826200,2.048826171875,0.596771240234375,4.624623775482178,-3.030769109725952
1772649723987834600,2.068834716796875,-0.4410112798213959,8.030195236206055,-3.5483593940734863
1772649724007843000,2.088843017578125,-1.208877444267273,10.604509353637695,-4.134747505187988
1772649724027851800,2.108851806640625,-0.9496437311172485,12.382909774780273,-4.640508651733398
1772649724047860200,2.128860107421875,-0.5144996047019958,13.513765335083008,-5.252233505249023
1772649724067868400,2.148868408203125,-2.402148485183716,13.242706298828125,-3.8537566661834717
1772649724087876900,2.168876953125,-1.7098033428192139,14.096088409423828,-2.461184501647949
1772649724107885300,2.18888525390625,-0.32073354721069336,12.684808731079102,-2.418161392211914
1772649724127893500,2.2088935546875,0.542238175868988,7.778988838195801,-1.2976913452148438
1772649724147901700,2.228901611328125,1.278991937637329,6.560085773468018,-1.0507179498672485
1772649724167910100,2.24891015625,0.31984519958496094,7.216506481170654,-1.577894926071167
1772649724187918300,2.26891845703125,-0.8978755474090576,8.705329895019531,-2.493777275085449
1772649724207926800,2.2889267578125,-0.5115771889686584,9.091655731201172,-2.970719814300537
1772649724227935000,2.30893505859375,-0.848343551158905,8.243659973144531,-3.332073926925659
1772649724247943400,2.328943359375,-1.0241608619689941,5.230432033538818,-4.567075252532959
1772649724267951600,2.34895166015625,2.720921277999878,-4.942364692687988,-3.9025323390960693
1772649724287960000,2.3689599609375,1.2479369640350342,-20.966644287109375,2.9678611755371094
1772649724307968300,2.38896826171875,-1.9785581827163696,-22.928363800048828,9.30246639251709
1772649724327976700,2.408976806640625,7.519793510437012,-18.483917236328125,6.231585502624512
1772649724347985000,2.42898486328125,2.4472203254699707,-12.763618469238281,4.296767711639404
1772649724367993300,2.448993408203125,0.5740203857421875,-10.182716369628906,4.087167739868164
1772649724388001500,2.46900146484375,0.31367284059524536,-12.543265342712402,6.307406902313232
1772649724408010000,2.489010009765625,0.9488662481307983,-13.443769454956055,7.399905681610107
1772649724428018200,2.50901806640625,0.776431679725647,-11.886184692382812,5.283262729644775
1772649724448026600,2.529026611328125,1.0919877290725708,-8.138378143310547,1.7115211486816406
1772649724468034800,2.549034912109375,0.4639680087566376,-4.953216552734375,-0.4291027784347534
1772649724488043000,2.56904296875,-0.1547880470752716,-2.476940155029297,-1.191211223602295
1772649724508051500,2.589051513671875,-0.18150578439235687,1.2509937286376953,-2.220574140548706
1772649724528059600,2.6090595703125,-1.1027928590774536,4.983555316925049,-3.034423589706421
1772649724548068000,2.629068115234375,-1.4940764904022217,7.984678745269775,-3.4113006591796875
1772649724568076000,2.649075927734375,-1.4837803840637207,10.50680160522461,-3.9918744564056396
1772649724588083700,2.669083740234375,-0.7420175075531006,11.983126640319824,-5.328585147857666
1772649724608091100,2.689091064453125,0.03018799051642418,13.237491607666016,-6.432461738586426
1772649724628099000,2.70909912109375,-1.3335660696029663,13.15404987335205,-5.162562370300293
1772649724648106500,2.7291064453125,-1.5351850986480713,12.354124069213867,-2.158013105392456
1772649724668114400,2.749114501953125,-0.5987914800643921,12.653116226196289,-1.3674302101135254
1772649724688121900,2.769121826171875,-0.15959304571151733,10.327482223510742,-0.6685560941696167
1772649724708129500,2.789129638671875,1.142693281173706,7.648612976074219,-0.4017944931983948
1772649724728137200,2.80913720703125,0.9477377533912659,7.561028003692627,-0.7295925617218018
1772649724748145000,2.829144775390625,-0.40431076288223267,8.344367980957031,-1.4788391590118408
1772649724768152600,2.849152587890625,-0.5502768158912659,8.912738800048828,-2.1096725463867188
1772649724788160300,2.86916015625,0.012143723666667938,7.938926696777344,-2.1093039512634277
1772649724808168000,2.88916796875,-0.4898684620857239,5.040945529937744,-3.236426830291748
1772649724828175600,2.909175537109375,6.3694586753845215,-7.039986610412598,-1.5972187519073486
1772649724848183300,2.929183349609375,3.538179397583008,-28.92578887939453,8.979138374328613
1772649724868191000,2.94919091796875,-4.617691516876221,-31.09112548828125,6.295472145080566
1772649724888198700,2.96919873046875,5.063499450683594,-16.769960403442383,7.114326477050781
1772649724908206300,2.989206298828125,1.1382243633270264,-13.44276237487793,5.151036262512207
1772649724928214000,3.009214111328125,1.8075065612792969,-14.022420883178711,6.059311389923096
1772649724948221700,3.0292216796875,2.300509452819824,-12.557318687438965,6.3284220695495605
1772649724968229400,3.0492294921875,2.0225937366485596,-10.126130104064941,6.250840187072754
1772649724988237000,3.069237060546875,0.050483644008636475,-7.465190887451172,2.524665117263794
1772649725008244700,3.08924462890625,-0.9632972478866577,-4.051839828491211,-0.3144245147705078
1772649725028252400,3.10925244140625,-1.4849797487258911,-0.3664579391479492,-2.468801975250244
1772649725048260000,3.129260009765625,-1.2708380222320557,3.7882046699523926,-4.230854034423828
1772649725068268000,3.14926806640625,-1.5930266380310059,7.203320503234863,-5.1501383781433105
1772649725088276000,3.16927587890625,-1.5535836219787598,10.268170356750488,-5.590365409851074
1772649725108284000,3.189283935546875,-1.7476019859313965,11.42423152923584,-5.067983150482178
1772649725128291800,3.209291748046875,0.6794644594192505,11.85439682006836,-5.220606803894043
1772649725148299800,3.2292998046875,1.9050512313842773,13.259889602661133,-5.03682804107666
1772649725168307700,3.2493076171875,-0.844704270362854,13.421523094177246,-3.1315436363220215
1772649725188316000,3.26931591796875,-1.9272325038909912,13.4193696975708,-1.38816237449646
1772649725208323800,3.28932373046875,0.16036731004714966,11.404830932617188,-2.378587245941162
1772649725228331800,3.309331787109375,0.5804750323295593,7.572901248931885,-0.998884379863739
1772649725248339700,3.329339599609375,-0.2969837188720703,7.0149617195129395,-0.8695747256278992
1772649725268347600,3.34934765625,-0.452039510011673,7.94318962097168,-1.31725013256073
1772649725288355600,3.36935546875,-0.2974814176559448,9.435770034790039,-2.939863920211792
1772649725308363500,3.389363525390625,-0.5530610084533691,8.288900375366211,-4.138542175292969
1772649725328371500,3.409371337890625,-2.0018632411956787,5.471752166748047,-5.766883850097656
1772649725348379400,3.42937939453125,3.4510350227355957,-4.17960262298584,-2.6899940967559814
1772649725368387300,3.44938720703125,5.989925861358643,-22.48931884765625,7.90897274017334
1772649725388395500,3.4693955078125,-6.979115962982178,-26.460918426513672,13.03622817993164
1772649725408403500,3.489403564453125,0.38830289244651794,-19.85729217529297,12.100398063659668
1772649725428411400,3.509411376953125,4.352861404418945,-12.305720329284668,3.761911392211914
1772649725448419300,3.52941943359375,0.8922144174575806,-12.796422958374023,2.952712059020996
1772649725468427300,3.54942724609375,1.1855899095535278,-13.679089546203613,4.483438491821289
1772649725488435200,3.569435302734375,-0.06644369661808014,-11.392477989196777,4.314053535461426
1772649725508443100,3.589443115234375,-0.8115131855010986,-9.680253028869629,2.8255276679992676
1772649725528451000,3.609451171875,-1.0100772380828857,-6.925458908081055,0.9383896589279175
1772649725548459000,3.629458984375,-0.4971405267715454,-4.669548034667969,0.03903508186340332
1772649725568467500,3.649467529296875,-0.27275505661964417,-2.139887809753418,-1.0963339805603027
1772649725588476000,3.669475830078125,0.3959907591342926,4.221560955047607,-3.602736473083496
1772649725608484400,3.689484375,-0.5514867305755615,8.664834022521973,-3.7784037590026855
1772649725628493000,3.7094931640625,-0.9562835693359375,11.386457443237305,-3.9648244380950928
1772649725648501500,3.72950146484375,-0.4181523025035858,11.909765243530273,-4.768507957458496
1772649725668510000,3.749510009765625,0.3340487778186798,12.697108268737793,-6.425243377685547
1772649725688518400,3.769518310546875,-0.5987303853034973,14.136245727539062,-7.769502639770508
1772649725708527000,3.789527099609375,-2.7273921966552734,13.59560775756836,-3.1436431407928467
1772649725728535600,3.80953564453125,0.07166129350662231,12.56242561340332,-0.5931068658828735
1772649725748544000,3.8295439453125,0.16013860702514648,9.443596839904785,-0.5915712714195251
1772649725768552700,3.849552734375,1.4008578062057495,6.149141788482666,-0.08712440729141235
1772649725788561200,3.86956103515625,1.1660512685775757,6.580495834350586,0.12405061721801758
1772649725808569600,3.889569580078125,-0.0639764666557312,9.367612838745117,-1.4393599033355713
1772649725828578000,3.909578125,-0.7567169666290283,10.67843246459961,-2.2304763793945312
1772649725848586800,3.929586669921875,-0.745755672454834,10.030517578125,-2.5750162601470947
1772649725868595200,3.94959521484375,0.5784743428230286,6.650067329406738,-3.2919092178344727
1772649725888603600,3.969603759765625,5.011159896850586,-2.5678834915161133,-3.145151138305664
1772649725908612400,3.9896123046875,-0.6441233158111572,-25.548748016357422,6.806785583496094
1772649725928620800,4.009620849609375,-6.0823798179626465,-30.416080474853516,8.977517127990723
1772649725948629200,4.029629150390625,6.627839088439941,-15.24570083618164,4.6182427406311035
1772649725968637700,4.0496376953125,3.748886823654175,-14.309792518615723,2.0807251930236816
1772649725988646400,4.069646484375,2.014643907546997,-13.642007827758789,4.742606163024902
1772649726008654800,4.08965478515625,-0.013572074472904205,-11.522544860839844,7.313819408416748
1772649726028663300,4.109663330078125,-0.36815986037254333,-11.214847564697266,7.949817180633545
1772649726048671700,4.129671630859375,-1.1079723834991455,-11.75069808959961,5.087217807769775
1772649726068681000,4.149680908203125,-0.7469887137413025,-7.842649459838867,1.2191474437713623
1772649726088690400,4.1696904296875,-0.26842156052589417,-4.833972930908203,-0.6414806842803955
1772649726108699600,4.18969970703125,-0.041604459285736084,-1.9785594940185547,-1.7754621505737305
1772649726128709000,4.209709228515625,0.35896968841552734,2.6511378288269043,-3.2775521278381348
1772649726148718300,4.22971826171875,-0.0328214168548584,6.590485095977783,-4.058328628540039
1772649726168727800,4.249727783203125,-0.7209370136260986,9.31525993347168,-3.9531869888305664
1772649726188737300,4.2697373046875,-0.5650266408920288,11.427469253540039,-4.749359130859375
1772649726208746500,4.28974658203125,-0.4842750132083893,12.365457534790039,-4.998158931732178
1772649726228756000,4.309755859375,-1.123637318611145,13.45458984375,-5.4569172859191895
1772649726248765200,4.32976513671875,-2.496492862701416,13.33203411102295,-3.4742584228515625
1772649726268774700,4.349774658203125,-1.1140716075897217,13.405838012695312,-1.7811546325683594
1772649726288784100,4.3697841796875,-0.12557518482208252,10.324395179748535,-1.772533655166626
1772649726308793300,4.38979345703125,0.751434326171875,6.871884346008301,-0.8477373123168945
1772649726328802800,4.409802734375,0.03365248441696167,7.2877678871154785,-1.1897363662719727
1772649726348812300,4.429812255859375,-0.22696414589881897,8.611873626708984,-1.8853213787078857
1772649726368821500,4.449821533203125,-0.230645552277565,9.387168884277344,-2.0770537853240967
1772649726388831000,4.4698310546875,-0.2155366986989975,9.624292373657227,-2.007888078689575
1772649726408840200,4.489840087890625,-0.42194342613220215,8.048781394958496,-2.648668050765991
1772649726428849700,4.509849609375,-1.5857176780700684,4.779554843902588,-2.9454803466796875
1772649726448859100,4.529859130859375,4.2426018714904785,-4.255411148071289,-1.7320818901062012
1772649726468868400,4.549868408203125,4.625102996826172,-20.483726501464844,7.327249526977539
1772649726488877800,4.5698779296875,-4.578901290893555,-31.28303337097168,6.538230895996094
1772649726508887300,4.58988720703125,3.505500555038452,-19.243412017822266,6.562183856964111
1772649726528896500,4.609896484375,-0.7100915908813477,-13.503098487854004,6.852046012878418
1772649726548906000,4.629906005859375,0.6366435885429382,-10.883644104003906,6.342369556427002
1772649726568915000,4.6499150390625,2.261570930480957,-11.987212181091309,8.095337867736816
1772649726588923600,4.669923583984375,1.8406310081481934,-12.519930839538574,8.120670318603516
1772649726608932400,4.689932373046875,0.27694961428642273,-10.897714614868164,4.231043338775635
1772649726628941000,4.709941162109375,-0.4056500196456909,-7.533224105834961,1.4815553426742554
1772649726648949800,4.72994970703125,-0.686076283454895,-5.287715911865234,0.385242223739624
1772649726668958500,4.74995849609375,-0.5406699776649475,-1.6153621673583984,-0.6211662292480469
1772649726688967400,4.769967529296875,-0.47835370898246765,3.519340991973877,-2.3165645599365234
1772649726708976000,4.78997607421875,0.11806347966194153,7.143178462982178,-3.726783037185669
1772649726728984800,4.80998486328125,0.12806186079978943,9.467209815979004,-4.296475887298584
1772649726748993500,4.82999365234375,-0.4076268970966339,11.380295753479004,-4.643979072570801
1772649726769002200,4.850002197265625,0.41126346588134766,12.081392288208008,-4.973145484924316
1772649726789011200,4.87001123046875,-0.20103490352630615,13.115900993347168,-5.961249828338623
1772649726809020000,4.89002001953125,-3.1188418865203857,13.502111434936523,-4.225793838500977
1772649726829028600,4.910028564453125,-1.3771648406982422,13.050528526306152,-2.3067374229431152
1772649726849037300,4.930037353515625,1.4221599102020264,12.117799758911133,-0.1699250340461731
1772649726869046000,4.9500458984375,2.1485393047332764,8.098859786987305,-1.8616520166397095
1772649726889054700,4.9700546875,2.196117401123047,6.451722145080566,-1.5202723741531372
1772649726909063700,4.990063720703125,1.1496187448501587,7.092211723327637,-1.7822623252868652
1772649726929072400,5.010072265625,-0.2530406713485718,8.505763053894043,-2.0609560012817383
1772649726949081000,5.0300810546875,-0.8580959439277649,9.85945987701416,-2.4475271701812744
1772649726969089800,5.05008984375,-0.024279534816741943,8.46695327758789,-2.6207382678985596
1772649726989098500,5.070098388671875,-0.8373551368713379,4.6470160484313965,-4.76800537109375
1772649727009107500,5.090107421875,4.305887222290039,-8.92032241821289,-1.7546474933624268
1772649727029116200,5.1101162109375,-0.9807360172271729,-31.153526306152344,8.646578788757324
1772649727049124900,5.130124755859375,-3.529876708984375,-23.514053344726562,10.37159538269043
1772649727069133600,5.150133544921875,5.68867826461792,-13.310338973999023,7.294473648071289
1772649727089142000,5.17014208984375,4.450339317321777,-11.711629867553711,4.808531761169434
1772649727109150700,5.190150634765625,1.3706591129302979,-11.80463981628418,5.880972862243652
1772649727129159400,5.210159423828125,1.0756466388702393,-10.289337158203125,7.509738445281982
1772649727149167900,5.23016796875,0.03326740860939026,-11.15794563293457,7.600132465362549
1772649727169176600,5.250176513671875,-0.22975996136665344,-10.047114372253418,4.688876628875732
1772649727189185000,5.27018505859375,0.01230110228061676,-7.666280746459961,2.615954875946045
1772649727209193700,5.29019384765625,-0.5706881284713745,-5.281780242919922,1.205244541168213
1772649727229202400,5.310202392578125,0.5401918888092041,-2.467100143432617,-0.6257193088531494
1772649727249211000,5.3302109375,1.248559594154358,2.125624179840088,-3.3337314128875732
1772649727269219600,5.350219482421875,-0.044919222593307495,6.028097629547119,-4.81011962890625
1772649727289228300,5.370228271484375,-0.8164615631103516,8.992475509643555,-5.362123966217041
1772649727309236700,5.39023681640625,-1.5641156435012817,11.319805145263672,-5.701173782348633
1772649727329245400,5.410245361328125,-0.6606404781341553,12.703374862670898,-7.031910419464111
1772649727349254000,5.43025390625,-2.388397216796875,13.24388313293457,-6.1128692626953125
1772649727369262600,5.4502626953125,-1.6735200881958008,15.262569427490234,-5.481476783752441
1772649727389271300,5.470271240234375,-0.2729759216308594,13.722565650939941,-1.9555695056915283
1772649727409279700,5.49027978515625,0.7030080556869507,10.842813491821289,-1.9763402938842773
1772649727429288400,5.510288330078125,1.4583743810653687,6.6863508224487305,-0.6159000396728516
1772649727449297200,5.530297119140625,0.4547252058982849,6.2091851234436035,-0.6418027877807617
1772649727469305600,5.5503056640625,0.3349822759628296,8.131325721740723,-0.9815218448638916
1772649727489314300,5.570314208984375,0.5590540170669556,9.384570121765137,-1.5344438552856445
1772649727509323000,5.590322998046875,0.1179196834564209,8.855207443237305,-2.438786506652832
1772649727529331500,5.61033154296875,-0.8543516397476196,6.405129432678223,-3.0448732376098633
1772649727549340200,5.630340087890625,0.6758968830108643,-0.7087268829345703,-3.288750648498535
1772649727569349400,5.650349365234375,1.9653120040893555,-22.64826202392578,3.6722328662872314
1772649727589358600,5.670358642578125,-2.573106527328491,-25.792339324951172,12.268245697021484
1772649727609368000,5.6903681640625,2.48258638381958,-13.727832794189453,7.167613983154297
1772649727629377500,5.71037744140625,2.472900629043579,-12.834680557250977,7.391932010650635
1772649727649386800,5.73038671875,2.647547483444214,-11.65605354309082,5.126485824584961
1772649727669396200,5.750396240234375,1.2162142992019653,-12.042803764343262,4.723221302032471
1772649727689405700,5.77040576171875,0.7507013082504272,-10.42020320892334,4.856164455413818
1772649727709415000,5.790414794921875,0.16518443822860718,-11.94423770904541,4.758954048156738
1772649727729424400,5.81042431640625,-0.45126646757125854,-10.274351119995117,3.64624285697937
1772649727749433900,5.830433837890625,-0.3863432705402374,-6.995195388793945,1.294927716255188
1772649727769443000,5.850443115234375,0.17249900102615356,-3.39939022064209,0.31258559226989746
1772649727789452500,5.87045263671875,0.07267659902572632,0.5579805374145508,-1.0662751197814941
1772649727809462000,5.8904619140625,-0.3222214877605438,4.873938083648682,-2.7099738121032715
1772649727829471200,5.91047119140625,-0.5424048900604248,8.581352233886719,-3.9648725986480713
1772649727849480700,5.930480712890625,-0.7307630777359009,11.518423080444336,-4.431940078735352
1772649727869490200,5.950490234375,-0.16913506388664246,12.552360534667969,-4.630372047424316
1772649727889499400,5.97049951171875,-0.2197093367576599,12.92156982421875,-5.523220062255859
1772649727909508900,5.9905087890625,-2.387916088104248,13.692182540893555,-5.213234901428223
1772649727929518300,6.010518310546875,-2.2324490547180176,13.939476013183594,-3.7403066158294678
1772649727949527600,6.030527587890625,-0.27916187047958374,10.0159912109375,-2.469646692276001
1772649727969537000,6.050537109375,1.5171204805374146,7.566291332244873,-1.3026032447814941
1772649727989546500,6.07054638671875,1.058665156364441,7.431652545928955,-0.9361502528190613
1772649728009555700,6.0905556640625,0.6595026850700378,8.122457504272461,-1.418403148651123
1772649728029565200,6.110565185546875,-0.09841752052307129,8.995083808898926,-1.6767306327819824
1772649728049574400,6.130574462890625,-0.9922796487808228,9.768791198730469,-2.363635778427124
1772649728069583000,6.1505830078125,-1.4979047775268555,8.56955623626709,-2.938441038131714
1772649728089591300,6.17059130859375,0.2284952998161316,4.053318977355957,-4.1917405128479
1772649728109599500,6.190599609375,11.555102348327637,-19.666486740112305,-2.2203822135925293
1772649728129607700,6.210607666015625,-5.640290260314941,-30.905895233154297,9.503413200378418
1772649728149615900,6.230615966796875,1.7797266244888306,-19.984237670898438,9.182923316955566
1772649728169624000,6.2506240234375,3.812760353088379,-16.70150375366211,10.390066146850586
1772649728189632300,6.27063232421875,1.3729755878448486,-11.935593605041504,6.829968452453613
1772649728209640400,6.290640380859375,2.9724984169006348,-10.657485961914062,7.590753555297852
1772649728229648600,6.310648681640625,2.742938995361328,-8.702566146850586,8.241988182067871
1772649728249656800,6.33065673828125,2.0890111923217773,-7.51458740234375,5.050704002380371
1772649728269665000,6.3506650390625,0.22986304759979248,-6.906502723693848,1.3972066640853882
1772649728289673200,6.370673095703125,-1.2967689037322998,-5.74288272857666,0.5337177515029907
1772649728309681400,6.390681396484375,-0.9386648535728455,-3.3456640243530273,-0.2542165517807007
1772649728329689600,6.410689697265625,0.6423464417457581,1.9205889701843262,-2.044032096862793
1772649728349697800,6.43069775390625,2.861168384552002,7.755819797515869,-4.227928638458252
1772649728369706000,6.4507060546875,-0.2532567083835602,11.004127502441406,-4.736377716064453
1772649728389714200,6.470714111328125,-0.40588685870170593,12.321370124816895,-5.200359344482422
1772649728409722400,6.490722412109375,0.8913620710372925,12.935795783996582,-6.6596503257751465
1772649728429730600,6.51073046875,-0.7663843631744385,13.330865859985352,-6.20760440826416
1772649728449738800,6.53073876953125,-2.1593515872955322,13.912971496582031,-4.122227668762207
1772649728469747000,6.550746826171875,-1.5379602909088135,11.784124374389648,-1.5689191818237305
1772649728489755100,6.570755126953125,0.2902764678001404,8.152294158935547,-1.2314178943634033
1772649728509763300,6.590763427734375,0.5442445874214172,7.241245746612549,-0.5261343717575073
1772649728529771500,6.610771484375,-0.487598717212677,8.057958602905273,-1.0248298645019531
1772649728549779700,6.63077978515625,0.36235007643699646,9.37393569946289,-1.718247413635254
1772649728569788200,6.6507880859375,1.0954415798187256,9.994317054748535,-2.3176159858703613
1772649728589796900,6.670796875,0.2886102795600891,9.64781665802002,-3.011814594268799
1772649728609805600,6.6908056640625,-1.0103354454040527,7.592820644378662,-3.610074281692505
1772649728629814300,6.710814208984375,0.36832648515701294,1.1263999938964844,-3.876434803009033
1772649728649823000,6.730822998046875,6.250245094299316,-21.880474090576172,3.003052234649658
1772649728669831700,6.750831787109375,-7.845591068267822,-25.961837768554688,9.379524230957031
1772649728689840000,6.770840087890625,2.8758769035339355,-15.535633087158203,7.052296161651611
1772649728709848800,6.790848876953125,4.421420097351074,-12.402729988098145,7.526194095611572
1772649728729857500,6.810857421875,0.6550121307373047,-8.538752555847168,4.611988544464111
1772649728749866200,6.8308662109375,4.64608097076416,-9.836852073669434,7.8285980224609375
1772649728769874700,6.850874755859375,4.119047164916992,-11.293724060058594,10.551687240600586
1772649728789883400,6.87088330078125,2.116025686264038,-9.687613487243652,8.273497581481934
1772649728809892000,6.89089208984375,-0.26058754324913025,-10.376200675964355,5.609735488891602
1772649728829900800,6.91090087890625,-0.3690152168273926,-8.978349685668945,3.552877426147461
1772649728849909500,6.930909423828125,0.5918488502502441,-6.58879280090332,3.5352730751037598
1772649728869918000,6.95091796875,0.12918707728385925,-3.564812660217285,2.6792564392089844
1772649728889926700,6.9709267578125,1.1305649280548096,-0.2318859100341797,0.3320854902267456
1772649728909935400,6.990935302734375,1.5311908721923828,2.9515585899353027,-1.2736390829086304
1772649728929944000,7.010944091796875,0.36276763677597046,5.72493314743042,-2.9869494438171387
1772649728949952800,7.030952880859375,-0.9396589398384094,8.293598175048828,-4.366346836090088
1772649728969961500,7.05096142578125,-0.9248589277267456,11.495088577270508,-5.422977447509766
1772649728989970000,7.070969970703125,-0.4513097405433655,13.06546401977539,-6.703692436218262
1772649729009978600,7.090978515625,-2.030714511871338,14.027070999145508,-6.853266716003418
1772649729029987300,7.1109873046875,-2.877570152282715,14.314739227294922,-4.080541133880615
1772649729049996000,7.13099609375,1.0390701293945312,12.406636238098145,-0.16891592741012573
1772649729070004000,7.15100390625,2.4150919914245605,8.843955993652344,-1.2924320697784424
1772649729090011600,7.17101171875,1.6537821292877197,6.121365070343018,-0.6706739068031311
1772649729110019600,7.19101953125,-0.048504531383514404,6.480600833892822,-0.45633941888809204
1772649729130027500,7.211027587890625,-0.9891995787620544,8.394120216369629,-2.092059850692749
1772649729150035200,7.23103515625,0.1673591136932373,10.156463623046875,-1.93597412109375
1772649729170043100,7.251043212890625,0.2257627248764038,10.789411544799805,-2.601316213607788
1772649729190050800,7.27105078125,-0.1492060422897339,9.248275756835938,-3.0893747806549072
1772649729210058800,7.291058837890625,-0.8187867403030396,5.138356685638428,-4.6424455642700195
1772649729230066400,7.31106640625,2.8703413009643555,-9.204357147216797,-2.4220855236053467
1772649729250074400,7.331074462890625,1.3653545379638672,-27.5377140045166,5.113208770751953
1772649729270082300,7.351082275390625,-2.340150833129883,-22.15093421936035,6.317173004150391
1772649729290090000,7.371090087890625,4.743438720703125,-15.760602951049805,8.449853897094727
1772649729310098000,7.391097900390625,2.2785370349884033,-12.858710289001465,7.059752464294434
1772649729330105600,7.411105712890625,2.372767448425293,-11.056159019470215,8.004426002502441
1772649729350113500,7.431113525390625,3.2712578773498535,-11.176962852478027,9.260729789733887
1772649729370121500,7.45112158203125,1.5070457458496094,-13.502337455749512,9.359461784362793
1772649729390129200,7.471129150390625,0.19567564129829407,-11.95009708404541,5.197768688201904
1772649729410137000,7.49113720703125,0.5329347848892212,-9.859206199645996,1.725761890411377
1772649729430144800,7.511144775390625,-0.009824097156524658,-7.597759246826172,1.3194550275802612
1772649729450152700,7.531152587890625,1.1643877029418945,-3.951200485229492,0.11937940120697021
1772649729470160600,7.55116064453125,2.282407760620117,1.860537052154541,-2.51242995262146
1772649729490168300,7.571168212890625,1.1190797090530396,5.873201370239258,-3.8305585384368896
1772649729510176300,7.59117626953125,0.14472949504852295,9.702691078186035,-4.904687881469727
1772649729530184000,7.611183837890625,-0.11982595920562744,12.320955276489258,-5.273616313934326
1772649729550191900,7.63119189453125,0.6776646375656128,13.353599548339844,-6.833277702331543
1772649729570199800,7.65119970703125,-2.0808355808258057,15.225824356079102,-6.98087739944458
1772649729590207700,7.671207763671875,-4.135974884033203,13.990692138671875,-3.354918956756592
1772649729610215700,7.691215576171875,0.584965705871582,12.694976806640625,-0.12185126543045044
1772649729630223600,7.7112236328125,2.7186460494995117,9.393117904663086,-1.4231659173965454
1772649729650231600,7.7312314453125,1.6559059619903564,6.9800944328308105,-0.4342690706253052
1772649729670239500,7.751239501953125,0.18895256519317627,6.766757965087891,-0.6082627773284912
1772649729690247400,7.771247314453125,0.30416178703308105,8.096406936645508,-1.4706127643585205
1772649729710255400,7.79125537109375,0.6184896230697632,9.450407981872559,-0.9744604229927063
1772649729730263600,7.811263671875,0.9392173290252686,10.205571174621582,-1.2865142822265625
1772649729750271200,7.831271240234375,0.624931812286377,9.736995697021484,-1.8858017921447754
1772649729770279400,7.851279541015625,0.20544397830963135,7.40236234664917,-2.5513815879821777
1772649729790287400,7.871287353515625,2.694493532180786,0.18763351440429688,-2.716590642929077
1772649729810295300,7.89129541015625,3.439751148223877,-23.013141632080078,2.248225212097168
1772649729830303200,7.91130322265625,-7.001681327819824,-33.096195220947266,12.645322799682617
1772649729850311200,7.931311279296875,4.955074310302734,-17.242656707763672,7.676580429077148
1772649729870319000,7.951319091796875,3.332202911376953,-12.213713645935059,7.4244537353515625
1772649729890327000,7.9713271484375,2.5324509143829346,-11.885475158691406,7.53687047958374
1772649729910335000,7.9913349609375,1.6578426361083984,-12.166755676269531,7.910960674285889
1772649729930343000,8.011343017578126,2.5091357231140137,-10.287484169006348,8.232863426208496
1772649729950350800,8.031350830078125,1.3641817569732666,-12.640623092651367,7.457785606384277
1772649729970358800,8.05135888671875,0.4330295920372009,-10.862578392028809,4.062408447265625
1772649729990366700,8.07136669921875,-0.711258590221405,-8.99179458618164,2.2169370651245117
1772649730010374700,8.091374755859375,-0.26320934295654297,-4.4247331619262695,0.2283945083618164
1772649730030382600,8.111382568359375,1.324399471282959,2.5141634941101074,-1.8078837394714355
1772649730050390500,8.131390625,0.3326677083969116,7.138381004333496,-3.1502525806427
1772649730070398700,8.151398681640625,-0.13012611865997314,10.682086944580078,-4.9913129806518555
1772649730090407000,8.171406982421875,0.8376829624176025,12.29664421081543,-6.759401798248291
1772649730110415000,8.1914150390625,0.9456160068511963,13.702964782714844,-9.390425682067871
1772649730130423300,8.21142333984375,-3.1442506313323975,15.990450859069824,-9.335326194763184
1772649730150431500,8.231431396484375,-4.294562339782715,14.032114028930664,-4.026909351348877
1772649730170439700,8.251439697265624,1.4420428276062012,11.605607986450195,0.5535152554512024
1772649730190448000,8.2714482421875,3.3925347328186035,8.565224647521973,-0.6869809031486511
1772649730210456300,8.291456298828125,0.20067012310028076,6.73029899597168,0.46240234375
1772649730230464500,8.311464599609375,-0.8209823369979858,7.265554428100586,0.013406515121459961
1772649730250472700,8.33147265625,0.5511215329170227,9.084342002868652,-0.9192833304405212
1772649730270481000,8.35148095703125,1.2453906536102295,10.19587516784668,-1.1779354810714722
1772649730290489000,8.371489013671875,0.22459149360656738,10.07361888885498,-2.376127243041992
1772649730310497300,8.391497314453124,-1.2327942848205566,7.730705261230469,-3.2940096855163574
1772649730330505500,8.41150537109375,-0.8410521745681763,3.505431652069092,-3.6322574615478516
1772649730350513700,8.431513671875,3.808253288269043,-11.137696266174316,0.6461995840072632
1772649730370521900,8.45152197265625,4.553915500640869,-37.55625915527344,6.396577835083008
1772649730390530000,8.471530029296876,-9.185599327087402,-12.017261505126953,8.93922233581543
1772649730410538200,8.491538330078125,4.454398155212402,-8.944734573364258,7.222266674041748
1772649730430546400,8.51154638671875,1.5146234035491943,-4.140724182128906,7.234016418457031
1772649730450554600,8.5315546875,2.5845768451690674,-4.966604232788086,3.2548556327819824
1772649730470562800,8.551562744140625,1.3228837251663208,-5.492819786071777,4.088068008422852
1772649730490571000,8.571571044921875,0.4211158752441406,-2.606051445007324,4.039968967437744
1772649730510579200,8.5915791015625,0.8257296085357666,-3.9102725982666016,3.500415086746216
1772649730530587400,8.61158740234375,-0.9019255638122559,-6.088743209838867,2.5159666538238525
1772649730550595800,8.631595947265625,-0.6715525388717651,-4.033998489379883,-0.17102402448654175
1772649730570604000,8.65160400390625,0.4312778115272522,-2.856935501098633,-0.48383039236068726
1772649730590612500,8.671612548828126,1.9178595542907715,-1.2269353866577148,0.13531386852264404
1772649730610620700,8.69162060546875,1.6317923069000244,2.376709461212158,-0.20445287227630615
1772649730630629000,8.711629150390625,1.5935736894607544,4.7622389793396,-0.3819071054458618
1772649730650637600,8.731637451171874,1.0430923700332642,5.740171909332275,-0.593222975730896
1772649730670645800,8.751645751953125,-0.19786548614501953,4.970775127410889,-0.6038581132888794
1772649730690654200,8.771654296875,0.01129332184791565,3.6072487831115723,-0.5068060159683228
1772649730710662700,8.79166259765625,0.12587356567382812,2.2532248497009277,-0.7864344716072083
1772649730730671000,8.811671142578126,-0.031959474086761475,1.197932243347168,-1.0950696468353271
1772649730750679300,8.83167919921875,0.22365137934684753,1.1419038772583008,-0.9439554214477539
1772649730770687700,8.851687744140625,0.6115139126777649,1.5971612930297852,-0.7086328268051147
1772649730790696200,8.8716962890625,-0.8531579971313477,1.5434885025024414,-1.1481282711029053
1772649730810704400,8.891704345703126,0.05363184213638306,0.7596416473388672,-0.16952753067016602
1772649730830712800,8.911712890625,0.46841567754745483,0.06293010711669922,1.130342960357666
1772649730850721300,8.93172119140625,0.070362389087677,-0.2980060577392578,1.7473399639129639
1772649730870729500,8.9517294921875,-0.5275683403015137,-1.0614967346191406,1.6230580806732178
1772649730890738000,8.971738037109375,-0.5819095969200134,-1.4448261260986328,1.6160985231399536
1772649730910746400,8.991746337890625,-0.6617384552955627,-0.8502702713012695,1.2415305376052856
1772649730930754600,9.011754638671874,0.19682446122169495,0.4704618453979492,0.7925372123718262
1772649730950763000,9.031762939453126,0.3349849581718445,1.0672273635864258,0.777174711227417
1772649730970771500,9.051771484375,0.13982558250427246,0.9819002151489258,0.9250442981719971
1772649730990780000,9.07177978515625,-0.11755925416946411,0.621647834777832,0.9120166301727295
1772649731010788000,9.0917880859375,0.21749266982078552,0.4597663879394531,0.9008519649505615
1772649731030796500,9.111796630859375,0.20003587007522583,0.21520709991455078,0.9758100509643555
1772649731050805000,9.131804931640625,-0.08302649855613708,-0.2324514389038086,1.119591474533081
1772649731070814200,9.151814208984375,-0.31835153698921204,-0.15261268615722656,0.8931019306182861
1772649731090823700,9.17182373046875,0.054179757833480835,0.10038471221923828,0.7376413345336914
1772649731110833200,9.191833251953126,0.264679878950119,0.22397994995117188,0.5601191520690918
1772649731130843000,9.2118427734375,0.3021259903907776,0.23073768615722656,0.5437920093536377
1772649731150852400,9.231852294921875,0.0011855363845825195,0.2134246826171875,0.6089324951171875
1772649731170861800,9.25186181640625,-0.18353432416915894,0.5208797454833984,0.5529005527496338
1772649731190871300,9.271871337890625,-0.06031295657157898,0.2818918228149414,0.6135215759277344
1772649731210881000,9.291881103515625,-0.10955491662025452,-0.001743316650390625,0.6820662021636963
1772649731230890500,9.311890380859374,-0.05994081497192383,-0.03347301483154297,0.6908235549926758
1772649731250900000,9.33189990234375,0.062326669692993164,0.07638072967529297,0.7044179439544678
1772649731270909400,9.351909423828126,0.052165091037750244,0.09519290924072266,0.7315967082977295
1772649731290919000,9.3719189453125,-0.03392821550369263,0.0996255874633789,0.7935266494750977
1772649731310928600,9.3919287109375,0.014666378498077393,0.07930374145507812,0.737574577331543
1772649731330938000,9.411938232421875,0.12488889694213867,0.2937355041503906,0.6362199783325195
1772649731350947600,9.431947509765624,0.10656124353408813,0.3358945846557617,0.5980648994445801
1772649731370957000,9.45195703125,0.06227293610572815,0.1534557342529297,0.7182130813598633
1772649731390966800,9.471966796875,0.039369136095047,0.01703643798828125,0.8208942413330078
1772649731410976300,9.491976318359375,0.05761280655860901,0.017279624938964844,0.8615350723266602
1772649731430985700,9.51198583984375,0.003321409225463867,0.04825115203857422,0.8352012634277344
1772649731450995200,9.5319951171875,0.014296948909759521,0.0331268310546875,0.8093230724334717
1772649731471004700,9.552004638671875,-0.047583699226379395,0.14026260375976562,0.7996129989624023
1772649731491014100,9.57201416015625,-0.01092296838760376,0.13419342041015625,0.8000919818878174
1772649731511023900,9.59202392578125,0.08421921730041504,0.1161794662475586,0.8006665706634521
1772649731531033300,9.612033447265626,-0.05167621374130249,0.06766128540039062,0.7472305297851562
1772649731551042800,9.632042724609375,-0.06602418422698975,0.08396148681640625,0.6934192180633545
1772649731571052300,9.65205224609375,0.021327972412109375,0.08168411254882812,0.6461300849914551
1772649731591061800,9.672061767578125,0.08953964710235596,0.1032266616821289,0.6770179271697998
1772649731611071200,9.6920712890625,-0.023397445678710938,0.1343994140625,0.7442488670349121
1772649731631080700,9.712080810546874,-0.08828264474868774,0.21616744995117188,0.7855901718139648
1772649731651090200,9.732090087890626,-0.009846270084381104,0.28281497955322266,0.7757508754730225
1772649731671099600,9.752099609375,0.03821772336959839,0.15988826751708984,0.864581823348999
