time,seconds_elapsed,z,y,x
1772649722114541600,0.19554150390625,0.06524739414453506,0.08415582031011581,0.003328948514536023
1772649722124545500,0.205545654296875,0.08122634142637253,0.10120003670454025,0.01717737503349781
1772649722134549500,0.215549560546875,0.09880319237709045,0.12889689207077026,0.028895273804664612
1772649722144553500,0.225553466796875,0.11211898922920227,0.1422126740217209,0.03368895873427391
1772649722154557400,0.235557373046875,0.11584740877151489,0.13954952359199524,0.031558431684970856
1772649722164561400,0.2455615234375,0.120108462870121,0.1315600425004959,0.026764746755361557
1772649722174565400,0.2555654296875,0.12170635908842087,0.1134505644440651,0.02143842913210392
1772649722184569300,0.2655693359375,0.11424951255321503,0.09321055561304092,0.008655265904963017
1772649722194573300,0.2755732421875,0.10785793513059616,0.08362318575382233,-0.021704744547605515
1772649722204577300,0.285577392578125,0.10412950813770294,0.08628634363412857,-0.05685843899846077
1772649722214581200,0.295581298828125,0.10572740435600281,0.09747160971164703,-0.10213214159011841
1772649722224585200,0.305585205078125,0.10572740435600281,0.12037477642297745,-0.14793847501277924
1772649722234589200,0.315589111328125,0.11638004332780838,0.13475583493709564,-0.18522270023822784
1772649722244593200,0.32559326171875,0.12650004029273987,0.14700636267662048,-0.20493006706237793
1772649722254597000,0.33559716796875,0.14514215290546417,0.15819163620471954,-0.2017342746257782
1772649722264601000,0.34560107421875,0.17816533148288727,0.19494321942329407,-0.19747322797775269
1772649722274605300,0.355605224609375,0.21278639137744904,0.24607586860656738,-0.19108164310455322
1772649722284609300,0.365609375,0.24421165883541107,0.3105243146419525,-0.18149426579475403
1772649722294613200,0.37561328125,0.2617885172367096,0.3760380148887634,-0.17137427628040314
1772649722304617200,0.3856171875,0.2703106105327606,0.4063980281352997,-0.16711321473121643
1772649722314621200,0.39562109375,0.27244114875793457,0.41758328676223755,-0.17457005381584167
1772649722324625200,0.405625244140625,0.2703106105327606,0.4303664565086365,-0.18948374688625336
1772649722334629000,0.415629150390625,0.26019060611724854,0.4474106729030609,-0.20439743995666504
1772649722344633000,0.425633056640625,0.2516685128211975,0.4665854275226593,-0.21664796769618988
1772649722354637000,0.435636962890625,0.24847272038459778,0.4793685972690582,-0.23529008030891418
1772649722364641000,0.44564111328125,0.24953797459602356,0.49694544076919556,-0.2533995509147644
1772649722374645000,0.45564501953125,0.2607232332229614,0.5081307291984558,-0.26565009355545044
1772649722384649000,0.46564892578125,0.266582190990448,0.5320991277694702,-0.2619216740131378
1772649722394653000,0.47565283203125,0.2719085216522217,0.5534043908119202,-0.24008376896381378
1772649722404657000,0.485656982421875,0.2767021954059601,0.5635244250297546,-0.21238692104816437
1772649722414660900,0.495660888671875,0.28362640738487244,0.5624591112136841,-0.18415743112564087
1772649722424664800,0.505664794921875,0.28309378027915955,0.5608612298965454,-0.15752583742141724
1772649722434668800,0.515668701171875,0.28362640738487244,0.554469645023346,-0.12929636240005493
1772649722444672800,0.5256728515625,0.2751043140888214,0.5438170433044434,-0.09520792961120605
1772649722454676700,0.5356767578125,0.25433167815208435,0.5310338735580444,-0.07337002456188202
1772649722464680700,0.5456806640625,0.23622219264507294,0.5182507038116455,-0.06325002014636993
1772649722474684700,0.5556845703125,0.21864533424377441,0.5198485851287842,-0.05206475406885147
1772649722484688600,0.565688720703125,0.18242637813091278,0.5363602042198181,-0.04886896535754204
1772649722494692600,0.575692626953125,0.147805318236351,0.5470128059387207,-0.006791055202484131
1772649722504696600,0.585696533203125,0.10040108859539032,0.5305012464523315,0.05552686005830765
1772649722514700500,0.595700439453125,0.04767054319381714,0.4724443852901459,0.14607426524162292
1772649722524704500,0.60570458984375,-0.003462106455117464,0.4016043543815613,0.2749711573123932
1772649722534708500,0.61570849609375,-0.05139896646142006,0.32863378524780273,0.3878890872001648
1772649722544712700,0.625712646484375,-0.049801070243120193,0.2737727165222168,0.45553332567214966
1772649722554716700,0.635716552734375,0.01784316450357437,0.24288007616996765,0.47044700384140015
1772649722564720600,0.645720703125,0.09134634584188461,0.20985691249370575,0.44221752882003784
1772649722574724600,0.655724609375,0.12703268229961395,0.2024000734090805,0.4022701382637024
1772649722584728800,0.665728759765625,0.08655266463756561,0.2119874358177185,0.4028027653694153
1772649722594733000,0.675733154296875,0.00026631588116288185,0.19494321942329407,0.5476785898208618
1772649722604737000,0.685737060546875,-0.07057370990514755,0.164583221077919,0.8720513582229614
1772649722614741200,0.6957412109375,-0.10732530057430267,0.20080217719078064,1.2235883474349976
1772649722624745200,0.7057451171875,-0.2000032216310501,0.3531348705291748,1.4036178588867188
1772649722634749400,0.71574951171875,-0.3129211664199829,0.612526535987854,1.3034831285476685
1772649722644753400,0.72575341796875,-0.3187801241874695,0.6673876047134399,0.9807082414627075
1772649722654757600,0.735757568359375,-0.2756369411945343,0.4756401777267456,0.5050680637359619
1772649722664761600,0.74576171875,-0.22556954622268677,0.34141695499420166,0.07310371100902557
1772649722674765800,0.755765869140625,-0.224504292011261,0.2721748352050781,-0.1782984882593155
1772649722684770000,0.76577001953125,-0.21651481091976166,0.2545979917049408,-0.17137427628040314
1772649722694774000,0.77577392578125,-0.23089586198329926,0.3020022213459015,-0.050466857850551605
1772649722704778200,0.7857783203125,-0.24154850840568542,0.3206443190574646,0.031025800853967667
1772649722714782200,0.7957822265625,-0.17550216615200043,0.25300008058547974,0.0022636849898844957
1772649722724786400,0.805786376953125,-0.1302284598350525,0.24607586860656738,-0.12290477752685547
1772649722734790400,0.815790283203125,-0.07004107534885406,0.13049478828907013,-0.3194459080696106
1772649722744794600,0.825794677734375,0.0023968429304659367,0.1086568832397461,-0.4882901608943939
1772649722754798600,0.835798583984375,0.014647373929619789,0.16245268285274506,-0.5154544115066528
1772649722764802800,0.845802734375,0.0013315794058144093,0.23648850619792938,-0.47657227516174316
1772649722774807000,0.85580712890625,-0.016245268285274506,0.3110569417476654,-0.42970067262649536
1772649722784811000,0.86581103515625,-0.019973691552877426,0.3478085398674011,-0.4510059356689453
1772649722794815200,0.875815185546875,-0.07110633701086044,0.44581279158592224,-0.6038712859153748
1772649722804819200,0.885819091796875,-0.12064109742641449,0.48256438970565796,-0.7950860857963562
1772649722814823400,0.895823486328125,-0.10572740435600281,0.5390233397483826,-0.9799093008041382
1772649722824827400,0.905827392578125,-0.011451583355665207,0.6673876047134399,-1.1295788288116455
1772649722834831600,0.91583154296875,0.08655266463756561,0.872983455657959,-1.2382357120513916
1772649722844835600,0.925835693359375,0.16058847308158875,1.0727204084396362,-1.2856398820877075
1772649722854839800,0.93583984375,0.21544954180717468,1.1909645795822144,-1.2595409154891968
1772649722864843800,0.94584375,0.26338639855384827,1.2245204448699951,-1.1412967443466187
1772649722874848000,0.955847900390625,0.3193127512931824,1.1941604614257812,-0.9942903518676758
1772649722884852200,0.965852294921875,0.37151065468788147,1.0801771879196167,-0.8403597474098206
1772649722894856200,0.975856201171875,0.4162517189979553,0.822383463382721,-0.7072018384933472
1772649722904860400,0.9858603515625,0.4221106767654419,0.4623243808746338,-0.6597976088523865
1772649722914864400,0.995864501953125,0.4087948799133301,0.2359558641910553,-0.6624607443809509
1772649722924868600,1.00586865234375,0.4364917278289795,0.3217095732688904,-0.6667218208312988
1772649722934872600,1.01587255859375,0.4748412072658539,0.5635244250297546,-0.6661891937255859
1772649722944876800,1.025876708984375,0.5435507297515869,0.5848296880722046,-0.6379597187042236
1772649722954880800,1.035880859375,0.6122602224349976,0.22903165221214294,-0.649677574634552
1772649722964885000,1.045885009765625,0.6793718338012695,-0.14008215069770813,-0.619850218296051
1772649722974889200,1.05588916015625,0.7384939193725586,-0.29507800936698914,-0.5506080985069275
1772649722984893200,1.06589306640625,0.732634961605072,-0.25193482637405396,-0.498410165309906
1772649722994897400,1.0758974609375,0.5909549593925476,-0.11664635688066483,-0.4834964871406555
1772649723004901400,1.0859013671875,0.4652538299560547,0.08255792409181595,-0.456332266330719
1772649723014905600,1.095905517578125,0.40932750701904297,0.09108003228902817,-0.31731536984443665
1772649723024909600,1.10590966796875,0.31558433175086975,-0.09161266684532166,-0.057923704385757446
1772649723034913800,1.115913818359375,0.1866874396800995,-0.26525062322616577,0.2520679831504822
1772649723044917800,1.125917724609375,0.0636494979262352,-0.38029909133911133,0.53436279296875
1772649723054922000,1.135921875,-0.03808316960930824,-0.40799593925476074,0.7458176016807556
1772649723064926500,1.145926513671875,-0.13129372894763947,-0.3877559304237366,0.8624640107154846
1772649723074931000,1.155930908203125,-0.20319901406764984,-0.31425273418426514,0.8544744849205017
1772649723084935400,1.165935302734375,-0.3193127512931824,-0.12942951917648315,0.7575355172157288
1772649723094940200,1.175940185546875,-0.4231759309768677,0.06764423102140427,0.6398239135742188
1772649723104944600,1.185944580078125,-0.47111278772354126,0.2876211404800415,0.5567333698272705
1772649723114949000,1.19594921875,-0.4588622748851776,0.5193159580230713,0.5151880979537964
1772649723124953600,1.20595361328125,-0.4455464780330658,0.7110633850097656,0.49867647886276245
1772649723134958300,1.215958251953125,-0.47164541482925415,0.9518129825592041,0.5231775641441345
1772649723144962800,1.225962890625,-0.46791699528694153,1.4748573303222656,0.7586007714271545
1772649723154967300,1.23596728515625,-0.3411506414413452,2.2556955814361572,1.5394389629364014
1772649723164971800,1.2459716796875,-0.530767560005188,1.304415225982666,1.9516959190368652
1772649723174976500,1.2559765625,-0.7283739447593689,-0.8468844890594482,1.1452914476394653
1772649723184981000,1.26598095703125,-0.26764747500419617,-1.314535140991211,-0.1303616166114807
1772649723194985500,1.2759853515625,0.6016075611114502,0.5198485851287842,-0.9064061045646667
1772649723204990200,1.285990234375,0.6420875787734985,0.9843034744262695,-0.4131890833377838
1772649723214994700,1.29599462890625,0.08016107976436615,0.14434321224689484,0.4784364700317383
1772649723224999200,1.305999267578125,-0.46205806732177734,-0.42131173610687256,0.8395608067512512
1772649723235003600,1.316003662109375,-0.8551402688026428,-0.2535327076911926,0.6286386251449585
1772649723245008400,1.32600830078125,-0.9185234904289246,-0.002130527049303055,0.11677951365709305
1772649723255012900,1.336012939453125,-0.6500770449638367,0.19707375764846802,-0.2523342967033386
1772649723265017300,1.346017333984375,-0.3832285404205322,0.3824295997619629,-0.36365434527397156
1772649723275021800,1.356021728515625,-0.16058847308158875,0.4053327739238739,-0.2810963988304138
1772649723285026600,1.366026611328125,0.06791055202484131,0.29987168312072754,-0.2107890248298645
1772649723295031000,1.376031005859375,0.2623211443424225,0.2263685017824173,-0.2438121885061264
1772649723305035500,1.386035400390625,0.3805654048919678,0.14274531602859497,-0.2443448156118393
1772649723315040300,1.396040283203125,0.331563264131546,0.0612526535987854,-0.20439743995666504
1772649723325044700,1.406044677734375,0.19787269830703735,-0.006924212910234928,-0.20706059038639069
1772649723335049200,1.41604931640625,0.06524739414453506,-0.003728422336280346,-0.27044376730918884
1772649723345053700,1.4260537109375,-0.021571585908532143,0.09054739773273468,-0.3727090656757355
1772649723355058400,1.436058349609375,-0.09028108417987823,0.23169481754302979,-0.5271722674369812
1772649723365063000,1.44606298828125,-0.1525990068912506,0.2695116698741913,-0.7301049828529358
1772649723375067400,1.4560673828125,-0.18935059010982513,0.2577937841415405,-0.8808397650718689
1772649723385071900,1.46607177734375,-0.1957421749830246,0.2551306188106537,-0.9154608249664307
1772649723395076600,1.47607666015625,-0.18722006678581238,0.24714113771915436,-0.8281092047691345
1772649723405081000,1.4860810546875,-0.16964322328567505,0.22849902510643005,-0.6672544479370117
1772649723415085600,1.49608544921875,-0.13555479049682617,0.22370533645153046,-0.4941491186618805
1772649723425090300,1.50609033203125,-0.12064109742641449,0.1459411084651947,-0.38868802785873413
1772649723435094800,1.5160947265625,-0.09454213827848434,0.07350318133831024,-0.3332943320274353
1772649723445099300,1.526099365234375,-0.03914843499660492,0.05752423033118248,-0.2725743055343628
1772649723455103700,1.536103759765625,0.03968106582760811,0.09587371349334717,-0.23795324563980103
1772649723465108500,1.5461083984375,0.1249021515250206,0.07829686999320984,-0.22357217967510223
1772649723475113000,1.556113037109375,0.2197106033563614,-0.06924212723970413,-0.19747322797775269
1772649723485117400,1.566117431640625,0.3225085437297821,-0.23489060997962952,-0.16018900275230408
1772649723495122000,1.576121826171875,0.43915489315986633,-0.3259706497192383,-0.1878858506679535
1772649723505126700,1.586126708984375,0.5344959497451782,-0.29507800936698914,-0.2736395597457886
1772649723515131100,1.596131103515625,0.5749759674072266,-0.20612849295139313,-0.3535343408584595
1772649723525135600,1.606135498046875,0.5589970350265503,-0.21997691690921783,-0.41159120202064514
1772649723535140400,1.616140380859375,0.5494096875190735,-0.3201116919517517,-0.43076592683792114
1772649723545144800,1.626144775390625,0.5344959497451782,-0.30839377641677856,-0.38868802785873413
1772649723555149300,1.6361494140625,0.3853590786457062,-0.31318747997283936,-0.2720416784286499
1772649723565153500,1.646153564453125,0.19734007120132446,-0.4346275329589844,-0.050466857850551605
1772649723575158000,1.656157958984375,0.03382211551070213,-0.5294359922409058,0.2462090253829956
1772649723585162200,1.666162353515625,-0.09560739994049072,-0.5757749080657959,0.5157207250595093
1772649723595166500,1.67616650390625,-0.1856221705675125,-0.6242444515228271,0.7021418213844299
1772649723605170700,1.686170654296875,-0.21278639137744904,-0.6588655114173889,0.7644597291946411
1772649723615175000,1.6961748046875,-0.22716744244098663,-0.5683180689811707,0.7021418213844299
1772649723625179100,1.70617919921875,-0.23462429642677307,-0.40373486280441284,0.5146554112434387
1772649723635183400,1.716183349609375,-0.23142850399017334,-0.19547586143016815,0.2552637755870819
1772649723645187600,1.7261875,-0.20373165607452393,-0.039414748549461365,0.011318424716591835
1772649723655192000,1.736192138671875,-0.14940321445465088,0.1842905879020691,-0.09414266049861908
1772649723665196300,1.7461962890625,-0.08175897598266602,0.4378232955932617,-0.07976160943508148
1772649723675200500,1.756200439453125,-0.03808316960930824,0.7414234280586243,0.05819002166390419
1772649723685204700,1.766204833984375,0.06524739414453506,1.3432973623275757,0.47524067759513855
1772649723695209000,1.776208984375,0.25539693236351013,2.524142026901245,1.6816515922546387
1772649723705213200,1.786213134765625,0.33955276012420654,1.3800488710403442,2.552504539489746
1772649723715217400,1.796217529296875,0.11211898922920227,-2.1688766479492188,2.0449063777923584
1772649723725222000,1.806221923828125,0.10945582389831543,-2.6471798419952393,1.0526134967803955
1772649723735226000,1.81622607421875,0.3837611973285675,-0.4538022577762604,0.1940111219882965
1772649723745230300,1.826230224609375,0.4364917278289795,0.5486106872558594,0.03315632790327072
1772649723755234600,1.836234619140625,-0.17124110460281372,0.07030738890171051,0.28455850481987
1772649723765238800,1.84623876953125,-0.8679234385490417,-0.06285054981708527,0.23821955919265747
1772649723775243000,1.856242919921875,-0.9904287457466125,0.0010652635246515274,-0.13355740904808044
1772649723785247200,1.866247314453125,-0.7262434363365173,-0.052197910845279694,-0.46325647830963135
1772649723795251700,1.876251708984375,-0.4024032950401306,-0.11664635688066483,-0.5165196657180786
1772649723805256000,1.886255859375,-0.07110633701086044,0.11611372232437134,-0.3854922354221344
1772649723815260200,1.89626025390625,0.15046846866607666,0.3680485486984253,-0.13302478194236755
1772649723825264400,1.906264404296875,0.30226853489875793,0.5528717637062073,0.16045531630516052
1772649723835268600,1.9162685546875,0.3368895947933197,0.5954822897911072,0.2179795503616333
1772649723845272800,1.92627294921875,0.2149169147014618,0.41172435879707336,-0.030226852744817734
1772649723855277000,1.936277099609375,0.05033370107412338,0.18269269168376923,-0.3716438114643097
1772649723865281300,1.94628125,-0.07856318354606628,0.0282294824719429,-0.6550039052963257
1772649723875285800,1.95628564453125,-0.17603479325771332,-0.011185267008841038,-0.8062713146209717
1772649723885290000,1.9662900390625,-0.19893796741962433,0.09853687882423401,-0.8147934675216675
1772649723895294200,1.976294189453125,-0.2383527159690857,0.3025348484516144,-0.7551386952400208
1772649723905298400,1.98629833984375,-0.31079062819480896,0.45966121554374695,-0.7029407620429993
1772649723915302700,1.996302734375,-0.37151065468788147,0.5060001611709595,-0.6805702447891235
1772649723925307000,2.006306884765625,-0.4348938465118408,0.3664506673812866,-0.72903972864151
1772649723935311000,2.01631103515625,-0.4652538299560547,0.20506322383880615,-0.7322354912757874
1772649723945315600,2.026315673828125,-0.4631233215332031,0.04154527932405472,-0.6443513035774231
1772649723955319800,2.03631982421875,-0.41571909189224243,-0.10759161412715912,-0.45899543166160583
1772649723965324000,2.046323974609375,-0.33049800992012024,-0.17736637592315674,-0.2203763872385025
1772649723975328300,2.056328369140625,-0.2516685128211975,-0.19494321942329407,-0.004660528153181076
1772649723985332500,2.06633251953125,-0.18722006678581238,-0.1512674242258072,0.17643427848815918
1772649723995336700,2.076336669921875,-0.13076110184192657,-0.06498107314109802,0.3223753869533539
1772649724005341000,2.0863408203125,-0.08602003008127213,0.00426105409860611,0.38043224811553955
1772649724015345400,2.096345458984375,-0.02316948212683201,0.11025477200746536,0.3458111584186554
1772649724025349600,2.106349609375,0.057257913053035736,0.26578325033187866,0.2611227333545685
1772649724035353900,2.116353759765625,0.157392680644989,0.19867165386676788,0.14021530747413635
1772649724045358000,2.126358154296875,0.29321378469467163,-0.12570109963417053,-0.07123950123786926
1772649724055362300,2.1363623046875,0.4226433038711548,-0.44954121112823486,-0.36898064613342285
1772649724065366500,2.146366455078125,0.48176541924476624,-0.37071171402931213,-0.6480796933174133
1772649724075370500,2.15637060546875,0.5009401440620422,-0.002130527049303055,-0.8366313576698303
1772649724085374700,2.166374755859375,0.5062664747238159,0.26205483078956604,-0.9623324275016785
1772649724095379000,2.17637890625,0.48922228813171387,0.2647179961204529,-1.0123997926712036
1772649724105383200,2.186383056640625,0.4732433259487152,0.11185266822576523,-0.888829231262207
1772649724115387400,2.196387451171875,0.4556664824485779,0.09853687882423401,-0.6331660151481628
1772649724125391400,2.206391357421875,0.2996053695678711,0.10333056002855301,-0.27044376730918884
1772649724135395600,2.2163955078125,0.11797793209552765,-0.0005326317623257637,0.16311848163604736
1772649724145399800,2.22639990234375,0.012516846880316734,-0.07403581589460373,0.5636575818061829
1772649724155403800,2.23640380859375,-0.0045273699797689915,-0.1177116185426712,0.8672576546669006
1772649724165408000,2.246407958984375,0.020506322383880615,-0.21891164779663086,1.0169272422790527
1772649724175412200,2.256412109375,0.03861580416560173,-0.22050954401493073,0.9737840294837952
1772649724185416400,2.26641650390625,0.009853687137365341,-0.1081242486834526,0.7825692296028137
1772649724195420400,2.27642041015625,-0.032756853848695755,0.07669897377490997,0.5535375475883484
1772649724205424600,2.286424560546875,-0.0822916105389595,0.20612849295139313,0.3452785313129425
1772649724215428900,2.296428955078125,-0.10040108859539032,0.22849902510643005,0.18335849046707153
1772649724225433000,2.30643310546875,-0.08655266463756561,0.21571587026119232,0.11092056334018707
1772649724235437000,2.31643701171875,-0.07376950234174728,0.3217095732688904,0.14554162323474884
1772649724245441300,2.326441162109375,-0.03382211551070213,0.600275993347168,0.29521116614341736
1772649724255445500,2.336445556640625,0.08548739552497864,1.1254509687423706,0.6574007272720337
1772649724265449700,2.34644970703125,0.2239716500043869,1.988847017288208,1.5261231660842896
1772649724275453700,2.35645361328125,0.17337164282798767,0.8639287352561951,2.091245412826538
1772649724285458000,2.3664580078125,-0.07696528732776642,-2.049034357070923,1.8254622220993042
1772649724295462100,2.376462158203125,-0.2985401153564453,-2.623744010925293,1.4217272996902466
1772649724305466400,2.38646630859375,-0.3086601197719574,-0.4479433000087738,1.0536787509918213
1772649724315470300,2.39647021484375,-0.342215895652771,0.8351665735244751,0.7799060344696045
1772649724325474600,2.406474609375,-0.682034969329834,-0.3312969505786896,0.5125249028205872
1772649724335478800,2.416478759765625,-1.071388840675354,-0.8383623957633972,0.05712475627660751
1772649724345482800,2.426482666015625,-0.9488834738731384,-0.7925560474395752,-0.25499746203422546
1772649724355487000,2.436487060546875,-0.6644580960273743,-0.666854977607727,-0.3370227515697479
1772649724365491200,2.4464912109375,-0.3358243405818939,-0.415452778339386,-0.22250692546367645
1772649724375495400,2.456495361328125,0.020506322383880615,-0.11664635688066483,-0.030759483575820923
1772649724385499400,2.46649951171875,0.2804306149482727,0.05752423033118248,0.06990791857242584
1772649724395503600,2.476503662109375,0.3944138288497925,0.07297055423259735,-0.022770008072257042
1772649724405507800,2.4865078125,0.3981422483921051,0.10972214490175247,-0.21185427904129028
1772649724415512000,2.496511962890625,0.34434643387794495,0.06498107314109802,-0.3604585528373718
1772649724425516000,2.50651611328125,0.20799270272254944,0.01597895286977291,-0.4323638379573822
1772649724435520300,2.516520263671875,0.1153147742152214,0.08575371652841568,-0.4856269955635071
1772649724445524500,2.5265244140625,0.0540621243417263,0.14381057024002075,-0.544216513633728
1772649724455528700,2.53652880859375,0.007723160553723574,0.17789900302886963,-0.6193175911903381
1772649724465532700,2.54653271484375,-0.03808316960930824,0.22317270934581757,-0.7146586775779724
1772649724475537000,2.556536865234375,-0.12596741318702698,0.2024000734090805,-0.8408923745155334
1772649724485541000,2.566541015625,-0.23515692353248596,0.13262531161308289,-0.9245156049728394
1772649724495545000,2.576545166015625,-0.3177148401737213,0.05006738752126694,-0.9191892743110657
1772649724505549300,2.58654931640625,-0.3145190477371216,-0.029294747859239578,-0.8238481879234314
1772649724515553500,2.596553466796875,-0.23568955063819885,-0.006924212910234928,-0.6757765412330627
1772649724525557800,2.606557861328125,-0.09933582693338394,0.12516845762729645,-0.4808333218097687
1772649724535561700,2.616561767578125,0.05033370107412338,0.3158506453037262,-0.28375956416130066
1772649724545566000,2.62656591796875,0.17070847749710083,0.438355952501297,-0.111719511449337
1772649724555570200,2.636570068359375,0.22983060777187347,0.40746331214904785,-0.01105210930109024
1772649724565574000,2.646573974609375,0.2474074512720108,0.30839377641677856,0.009720529429614544
1772649724575577900,2.656577880859375,0.25486430525779724,0.2588590383529663,0.014514215290546417
1772649724585581600,2.66658154296875,0.2910832464694977,0.26152220368385315,-0.001997369108721614
1772649724595585500,2.67658544921875,0.3619232773780823,0.1603221595287323,-0.05313001945614815
1772649724605589200,2.68658935546875,0.45140540599823,-0.09374319016933441,-0.14740583300590515
1772649724615593200,2.69659326171875,0.5398222804069519,-0.35579800605773926,-0.3109237849712372
1772649724625597000,2.706596923828125,0.5920202136039734,-0.46924859285354614,-0.5175849199295044
1772649724635601000,2.716600830078125,0.5542033314704895,-0.4053327739238739,-0.7226481437683105
1772649724645604600,2.7266044921875,0.474308580160141,-0.3387537896633148,-0.884035587310791
1772649724655608600,2.736608642578125,0.3709780275821686,-0.3494064211845398,-0.9506145119667053
1772649724665612300,2.7466123046875,0.30226853489875793,-0.35047170519828796,-0.9032102823257446
1772649724675616300,2.7566162109375,0.3874896168708801,-0.24394534528255463,-0.7455512881278992
1772649724685620000,2.766619873046875,0.4695149064064026,-0.1422126740217209,-0.5111933350563049
1772649724695624000,2.7766240234375,0.407196968793869,-0.20026955008506775,-0.1820269078016281
1772649724705627600,2.786627685546875,0.2798979878425598,-0.3829622268676758,0.231827974319458
1772649724715631600,2.796631591796875,0.1339568942785263,-0.5310338735580444,0.655802845954895
1772649724725635300,2.80663525390625,-0.00719052879139781,-0.6269075870513916,0.9924261569976807
1772649724735639300,2.816639404296875,-0.11638004332780838,-0.6961497068405151,1.1697925329208374
1772649724745643000,2.82664306640625,-0.22237375378608704,-0.6823012828826904,1.1388999223709106
1772649724755647000,2.83664697265625,-0.35712960362434387,-0.6018738746643066,0.928510308265686
1772649724765650700,2.846650634765625,-0.4354264736175537,-0.45433488488197327,0.6632596850395203
1772649724775654700,2.856654541015625,-0.49028754234313965,-0.27963167428970337,0.43689119815826416
1772649724785658400,2.866658447265625,-0.527039110660553,-0.06338317692279816,0.2936132550239563
1772649724795662300,2.876662353515625,-0.5382243990898132,0.18961690366268158,0.21478375792503357
1772649724805666000,2.886666015625,-0.5020054578781128,0.545414924621582,0.15779216587543488
1772649724815670000,2.896669921875,-0.38269591331481934,1.0972213745117188,0.19241322576999664
1772649724825673700,2.906673828125,-0.1488705724477768,2.2951102256774902,0.987099826335907
1772649724835677700,2.916677734375,-0.234091654419899,2.097503900527954,1.9634138345718384
1772649724845681400,2.926681396484375,-0.3709780275821686,-0.43622541427612305,1.5447652339935303
1772649724855685400,2.936685302734375,-0.08974844962358475,-1.589373230934143,0.6057354807853699
1772649724865689000,2.946689208984375,0.6191844344139099,-0.1784316450357437,0.07470160722732544
1772649724875693000,2.956693115234375,0.3981422483921051,-0.015446321107447147,0.22117534279823303
1772649724885696800,2.96669677734375,-0.2282327115535736,-0.7856318354606628,0.4858933389186859
1772649724895700700,2.97670068359375,-0.5845633745193481,-0.830905556678772,0.34740906953811646
1772649724905704400,2.986704345703125,-0.7321023344993591,-0.2966758906841278,-0.04833633080124855
1772649724915708400,2.99670849609375,-0.6010749340057373,-0.04953475296497345,-0.3141195774078369
1772649724925712100,3.006712158203125,-0.4929507076740265,0.07669897377490997,-0.25073641538619995
1772649724935716000,3.016716064453125,-0.4258390963077545,0.005326317623257637,-0.16711321473121643
1772649724945719800,3.0267197265625,-0.29161590337753296,0.06817686557769775,-0.25606271624565125
1772649724955723800,3.036723876953125,-0.17017585039138794,0.13528846204280853,-0.48669227957725525
1772649724965727500,3.0467275390625,-0.09880319237709045,0.18748638033866882,-0.6518081426620483
1772649724975731500,3.0567314453125,-0.04447475075721741,0.18748638033866882,-0.686961829662323
1772649724985735200,3.066735107421875,-0.0045273699797689915,0.25246745347976685,-0.6736460328102112
1772649724995739000,3.07673876953125,0.024234745651483536,0.2721748352050781,-0.641155481338501
1772649725005742800,3.086742919921875,0.027963167056441307,0.2311621904373169,-0.6390249729156494
1772649725015746800,3.096746826171875,0.028495799750089645,0.2306295484304428,-0.6305028200149536
1772649725025750500,3.10675048828125,-0.013049477711319923,0.20879164338111877,-0.5974797010421753
1772649725035754500,3.11675439453125,-0.08815055340528488,0.14274531602859497,-0.5612607002258301
1772649725045758200,3.12675830078125,-0.1914811134338379,0.0804273933172226,-0.4840291142463684
1772649725055762200,3.13676220703125,-0.3086601197719574,0.029827378690242767,-0.38868802785873413
1772649725065766100,3.14676611328125,-0.4210454225540161,-0.04633896425366402,-0.3572627604007721
1772649725075770000,3.15677001953125,-0.4460791051387787,-0.01704421639442444,-0.31731536984443665
1772649725085774000,3.166774169921875,-0.3411506414413452,0.14008215069770813,-0.23848587274551392
1772649725095778000,3.176778076171875,-0.18402427434921265,0.45113909244537354,-0.1639174222946167
1772649725105782000,3.186781982421875,-0.029028430581092834,0.8282423615455627,-0.16178689897060394
1772649725115786000,3.196785888671875,0.12277162075042725,0.8772445321083069,-0.2347574532032013
1772649725125790000,3.2067900390625,0.2655169367790222,0.46871596574783325,-0.3380880057811737
1772649725135794000,3.2167939453125,0.4130559265613556,-0.22743375599384308,-0.4137217104434967
1772649725145798000,3.2267978515625,0.5494096875190735,-0.8660592436790466,-0.38336169719696045
1772649725155801900,3.2368017578125,0.6452834010124207,-1.2538151741027832,-0.2954774796962738
1772649725165805800,3.246805908203125,0.673512876033783,-1.4753899574279785,-0.334892213344574
1772649725175809800,3.256809814453125,0.6378265619277954,-1.6223963499069214,-0.5351617336273193
1772649725185813800,3.266813720703125,0.5382243990898132,-1.527055263519287,-0.6949512958526611
1772649725195817700,3.276817626953125,0.5115928053855896,-1.0993520021438599,-0.6368944048881531
1772649725205821700,3.28682177734375,0.6223801970481873,-0.6945518255233765,-0.3956122398376465
1772649725215825700,3.29682568359375,0.5696496963500977,-0.5645896792411804,-0.06325002014636993
1772649725225829600,3.30682958984375,0.35446643829345703,-0.6332991719245911,0.27284061908721924
1772649725235833600,3.31683349609375,0.15899057686328888,-0.6764423251152039,0.5572659969329834
1772649725245837600,3.326837646484375,0.020506322383880615,-0.5699160099029541,0.7394260168075562
1772649725255841500,3.336841552734375,-0.11691267043352127,-0.5235770344734192,0.7713839411735535
1772649725265845500,3.346845458984375,-0.23568955063819885,-0.5358275771141052,0.638758659362793
1772649725275849700,3.356849609375,-0.30759483575820923,-0.44101908802986145,0.4299669861793518
1772649725285853700,3.366853759765625,-0.2532663941383362,-0.2396842986345291,0.2179795503616333
1772649725295857700,3.376857666015625,-0.1717737466096878,-0.09214529395103455,0.06298370659351349
1772649725305861600,3.386861572265625,-0.05246422812342644,0.059122126549482346,-0.010519477538764477
1772649725315865600,3.396865478515625,0.13768531382083893,0.3249053657054901,-0.0414121188223362
1772649725325869600,3.40686962890625,0.4029359221458435,0.621048629283905,-0.11278477311134338
1772649725335873500,3.41687353515625,0.7107970714569092,1.2058782577514648,0.04167843610048294
1772649725345877500,3.42687744140625,0.9563403129577637,2.2594239711761475,0.8853671550750732
1772649725355881500,3.436881591796875,0.9691234827041626,1.0327730178833008,1.4100093841552734
1772649725365885400,3.446885498046875,0.6676539182662964,-2.6461145877838135,1.1783145666122437
1772649725375889400,3.456889404296875,0.05992107465863228,-3.4141695499420166,1.3551483154296875
1772649725385893400,3.466893310546875,-0.1723063737154007,-0.7733812928199768,1.536243200302124
1772649725395897300,3.4768974609375,-0.0780305564403534,1.1808446645736694,0.9402282238006592
1772649725405901300,3.4869013671875,-0.38216328620910645,0.9219855666160583,0.3495396077632904
1772649725415905300,3.4969052734375,-1.1155972480773926,0.3201116919517517,0.231827974319458
1772649725425909200,3.5069091796875,-1.202948808670044,0.2679137885570526,0.31065747141838074
1772649725435913200,3.516913330078125,-0.8615318536758423,0.5645896792411804,0.22969745099544525
1772649725445917200,3.526917236328125,-0.5589970350265503,0.8809729218482971,-0.04833633080124855
1772649725455921200,3.536921142578125,-0.31132325530052185,1.1110697984695435,-0.2805637717247009
1772649725465925400,3.54692529296875,-0.045540016144514084,1.0386319160461426,-0.4568648934364319
1772649725475929000,3.55692919921875,0.2330264002084732,0.6641917824745178,-0.6560691595077515
1772649725485933300,3.566933349609375,0.3848264515399933,0.3430148661136627,-0.8222503066062927
1772649725495937300,3.576937255859375,0.37736961245536804,0.11132004112005234,-0.8819050192832947
1772649725505941200,3.586941162109375,0.3150516748428345,0.018642112612724304,-0.8350334167480469
1772649725515945200,3.5969453125,0.21172112226486206,0.10546109080314636,-0.7578018307685852
1772649725525949200,3.60694921875,0.13821794092655182,0.27483800053596497,-0.6640586256980896
1772649725535953200,3.616953125,0.06045370548963547,0.423974871635437,-0.5559344291687012
1772649725545957000,3.62695703125,-0.09520792961120605,0.4324969947338104,-0.4882901608943939
1772649725555961000,3.636961181640625,-0.33595749735832214,0.3201116919517517,-0.4989427924156189
1772649725565965300,3.64696533203125,-0.6251765489578247,0.1129179298877716,-0.5772396922111511
1772649725575969500,3.656969482421875,-0.8291745185852051,-0.14860425889492035,-0.6166543960571289
1772649725585973800,3.666973876953125,-0.774846076965332,-0.3163832724094391,-0.5309007167816162
1772649725595978000,3.67697802734375,-0.5724459886550903,-0.3110569417476654,-0.36898064613342285
1772649725605982200,3.686982177734375,-0.38868802785873413,-0.2311621904373169,-0.2246374487876892
1772649725615986400,3.696986328125,-0.2480732500553131,-0.18216006457805634,-0.1351553052663803
1772649725625991000,3.706990966796875,-0.10479529947042465,-0.03195790573954582,-0.033955276012420654
1772649725635995100,3.7169951171875,0.0022636849898844957,0.3430148661136627,0.09973529726266861
1772649725645999400,3.726999267578125,0.09867003560066223,0.5613938570022583,0.17643427848815918
1772649725656003600,3.737003662109375,0.20519638061523438,0.47404226660728455,0.17217321693897247
1772649725666007800,3.7470078125,0.30959221720695496,0.1464737355709076,0.07896266132593155
1772649725676012000,3.757011962890625,0.4113248884677887,-0.29933905601501465,-0.09361003339290619
1772649725686016500,3.7670166015625,0.47044700384140015,-0.7190528512001038,-0.32637012004852295
1772649725696020700,3.777020751953125,0.4858933389186859,-0.8948213458061218,-0.6257091760635376
1772649725706025000,3.78702490234375,0.5375586152076721,-0.666854977607727,-0.8941555619239807
1772649725716029200,3.797029296875,0.5583312511444092,-0.5970802307128906,-1.0321072340011597
1772649725726033400,3.807033447265625,0.47697174549102783,-0.6098633408546448,-0.9761808514595032
1772649725736037600,3.81703759765625,0.2900179922580719,-0.4953475296497345,-0.7780418395996094
1772649725746041900,3.827041748046875,0.18508954346179962,-0.2743053436279297,-0.5032038688659668
1772649725756046000,3.837046142578125,0.19254638254642487,-0.12197267264127731,-0.15805847942829132
1772649725766050600,3.847050537109375,0.10253161191940308,-0.06551370769739151,0.25845956802368164
1772649725776054800,3.8570546875,-0.032224223017692566,-0.14274531602859497,0.6834996938705444
1772649725786059000,3.86705908203125,-0.17337164282798767,-0.32277485728263855,0.983371376991272
1772649725796063200,3.877063232421875,-0.2756369411945343,-0.46392226219177246,1.0898977518081665
1772649725806067500,3.8870673828125,-0.3049316704273224,-0.4346275329589844,1.0046766996383667
1772649725816071700,3.89707177734375,-0.2522011399269104,-0.1976063847541809,0.7420892119407654
1772649725826076200,3.907076171875,-0.18988321721553802,0.039414748549461365,0.37510591745376587
1772649725836080000,3.917080078125,-0.19680742919445038,0.24447797238826752,0.012383688241243362
1772649725846084600,3.927084716796875,-0.2053295373916626,0.40373486280441284,-0.27097639441490173
1772649725856088800,3.9370888671875,-0.11265161633491516,0.6061349511146545,-0.4281027913093567
1772649725866093000,3.947093017578125,0.0013315794058144093,0.923583447933197,-0.3950796127319336
1772649725876097300,3.95709716796875,0.10839056223630905,1.2703267335891724,-0.14207951724529266
1772649725886101500,3.9671015625,0.28682219982147217,2.0021626949310303,0.6083986163139343
1772649725896105700,3.977105712890625,0.2793653607368469,2.404299736022949,1.6486284732818604
1772649725906110200,3.987110107421875,0.28362640738487244,0.2210421860218048,1.184173583984375
1772649725916114400,3.997114501953125,0.21065586805343628,-0.6439517736434937,0.05925528332591057
1772649725926118700,4.00711865234375,0.5275717377662659,0.7978823781013489,-0.5857617855072021
1772649725936123000,4.017122802734375,0.6878939270973206,1.368330955505371,-0.1639174222946167
1772649725946127000,4.027127197265625,0.13662004470825195,-0.054861072450876236,0.6728470921516418
1772649725956131300,4.03713134765625,-0.7145255208015442,-0.6775075793266296,0.9013460874557495
1772649725966135600,4.047135498046875,-1.1416962146759033,-0.46924859285354614,0.47524067759513855
1772649725976140000,4.05714013671875,-1.039430856704712,-0.3312969505786896,0.016644742339849472
1772649725986144300,4.067144287109375,-0.8317044973373413,-0.38402751088142395,-0.020639481022953987
1772649725996148500,4.0771484375,-0.5589970350265503,-0.2071937620639801,0.19134795665740967
1772649726006152700,4.087152587890625,-0.27297377586364746,0.042610540986061096,0.29947221279144287
1772649726016157000,4.097156982421875,-0.008788423612713814,0.13795162737369537,0.08695213496685028
1772649726026161200,4.1071611328125,0.15206636488437653,0.15233267843723297,-0.23156166076660156
1772649726036165400,4.117165283203125,0.17390426993370056,0.10333056002855301,-0.3567301332950592
1772649726046169900,4.127169921875,0.09507477283477783,0.10439582169055939,-0.40147119760513306
1772649726056174000,4.137174072265625,0.037550538778305054,0.13422320783138275,-0.45793014764785767
1772649726066178600,4.147178466796875,-0.00026631588116288185,0.21038953959941864,-0.4712459444999695
1772649726076183300,4.157183349609375,-0.06418212503194809,0.3158506453037262,-0.4318312108516693
1772649726086188000,4.16718798828125,-0.20319901406764984,0.3813643455505371,-0.41212382912635803
1772649726096192800,4.17719287109375,-0.3727090656757355,0.3584611713886261,-0.42543962597846985
1772649726106197200,4.187197265625,-0.5223786234855652,0.2450106143951416,-0.4462122619152069
1772649726116202000,4.197201904296875,-0.599077582359314,0.06657896935939789,-0.43023329973220825
1772649726126206700,4.207206787109375,-0.5520728230476379,-0.09960214048624039,-0.32743537425994873
1772649726136211500,4.21721142578125,-0.39068540930747986,-0.12463583052158356,-0.1351553052663803
1772649726146216200,4.22721630859375,-0.20639480650424957,-0.05752423033118248,0.08482161164283752
1772649726156220700,4.237220703125,-0.06471475958824158,-0.0026631588116288185,0.2664490342140198
1772649726166225400,4.247225341796875,-0.00026631588116288185,0.02077263966202736,0.3676490783691406
1772649726176230100,4.257230224609375,0.08122634142637253,0.06444844603538513,0.39907434582710266
1772649726186235000,4.26723486328125,0.19201375544071198,0.17576847970485687,0.4267711937427521
1772649726196239600,4.277239501953125,0.258060097694397,0.314785361289978,0.4448806941509247
1772649726206244000,4.287244140625,0.29640957713127136,0.32756853103637695,0.37031224370002747
1772649726216248800,4.297248779296875,0.3512706458568573,0.09534108638763428,0.14660689234733582
1772649726226253600,4.307253662109375,0.4125232994556427,-0.13475583493709564,-0.10799109190702438
1772649726236258300,4.31725830078125,0.47058016061782837,-0.18269269168376923,-0.34554484486579895
1772649726246263000,4.327262939453125,0.5227780938148499,-0.17630110681056976,-0.6123933792114258
1772649726256267800,4.337267822265625,0.5616601705551147,-0.23382534086704254,-0.838229238986969
1772649726266272300,4.347272216796875,0.5573991537094116,-0.26578325033187866,-0.9117324352264404
1772649726276277000,4.357277099609375,0.4732433259487152,-0.20026955008506775,-0.7769765853881836
1772649726286281700,4.36728173828125,0.39601171016693115,-0.08628634363412857,-0.4829638600349426
1772649726296286500,4.377286376953125,0.2809632420539856,-0.01597895286977291,-0.12397003918886185
1772649726306291200,4.387291259765625,0.0918789803981781,-0.07403581589460373,0.2605900764465332
1772649726316295700,4.397295654296875,-0.06205160170793533,-0.1837579607963562,0.5940175652503967
1772649726326300400,4.407300537109375,-0.13821794092655182,-0.28602325916290283,0.8017439842224121
1772649726336305200,4.41730517578125,-0.16058847308158875,-0.41651803255081177,0.8427566289901733
1772649726346310000,4.427309814453125,-0.16112111508846283,-0.554469645023346,0.7756450176239014
1772649726356314600,4.437314697265625,-0.16644743084907532,-0.604004442691803,0.6510091423988342
1772649726366319000,4.447319091796875,-0.2005358636379242,-0.5858949422836304,0.5210469961166382
1772649726376323800,4.45732373046875,-0.24474430084228516,-0.5619264841079712,0.4022701382637024
1772649726386328600,4.46732861328125,-0.27883273363113403,-0.49215173721313477,0.3159838020801544
1772649726396333300,4.477333251953125,-0.26019060611724854,-0.36165696382522583,0.2376869171857834
1772649726406338000,4.487338134765625,-0.15686005353927612,-0.08149266242980957,0.17856480181217194
1772649726416342500,4.497342529296875,-0.0402136966586113,0.24394534528255463,0.09440898150205612
1772649726426347300,4.50734716796875,0.006125265266746283,0.45060646533966064,-0.08615318685770035
1772649726436352000,4.51735205078125,0.021038955077528954,0.733966588973999,-0.2203763872385025
1772649726446356700,4.527356689453125,0.08069371432065964,1.212802529335022,0.1711079478263855
1772649726456361500,4.537361572265625,0.003462106455117464,0.9880319237709045,1.0403629541397095
1772649726466366200,4.5473662109375,-0.08602003008127213,-0.7478150129318237,0.9892303347587585
1772649726476370700,4.55737060546875,-0.11797793209552765,-1.9116153717041016,0.04114580526947975
1772649726486375400,4.56737548828125,0.12330425530672073,-0.8149266242980957,-0.7439534068107605
1772649726496380200,4.577380126953125,-0.09347687661647797,0.07882949709892273,-0.5719133615493774
1772649726506385000,4.587385009765625,-0.5078643560409546,-0.6183854937553406,0.023568956181406975
1772649726516389600,4.5973896484375,-0.8077360391616821,-0.8676571249961853,0.2131858617067337
1772649726526394000,4.60739404296875,-1.013864517211914,-0.3446127474308014,0.11624687910079956
1772649726536398800,4.61739892578125,-0.942491888999939,0.24820640683174133,0.018242638558149338
1772649726546403600,4.627403564453125,-0.6032054424285889,0.2636527121067047,0.03315632790327072
1772649726556408300,4.637408203125,-0.22716744244098663,-0.012783162295818329,0.09707213938236237
1772649726566412500,4.64741259765625,-0.05459475517272949,-0.14327794313430786,0.03475422412157059
1772649726576417000,4.6574169921875,0.0540621243417263,-0.12410320341587067,-0.23848587274551392
1772649726586421500,4.66742138671875,0.2239716500043869,0.017576847225427628,-0.46219122409820557
1772649726596425700,4.67742578125,0.3459443151950836,0.06444844603538513,-0.4424838423728943
1772649726606430200,4.68743017578125,0.3267695903778076,0.09161266684532166,-0.33542484045028687
1772649726616434400,4.697434326171875,0.25965797901153564,0.13422320783138275,-0.24594271183013916
1772649726626439000,4.70743896484375,0.19734007120132446,0.22743375599384308,-0.19800585508346558
1772649726636443400,4.717443359375,0.06684528291225433,0.2865558862686157,-0.20013637840747833
1772649726646447600,4.727447509765625,-0.11691267043352127,0.283360093832016,-0.2853574752807617
1772649726656452000,4.7374521484375,-0.33369380235671997,0.14700636267662048,-0.45793014764785767
1772649726666456300,4.747456298828125,-0.4988096356391907,0.005858949385583401,-0.6107954978942871
1772649726686465000,4.767465087890625,-0.41571909189224243,0.010652635246515274,-0.6459491848945618
1772649726696469500,4.777469482421875,-0.24101586639881134,0.13209268450737,-0.5048017501831055
1772649726706474000,4.787473876953125,-0.0774979218840599,0.22423797845840454,-0.28003114461898804
1772649726716478200,4.797478271484375,0.02316948212683201,0.2631200850009918,-0.025965798646211624
1772649726726482700,4.807482666015625,0.08335687220096588,0.19654111564159393,0.16737952828407288
1772649726736487000,4.81748681640625,0.1327584683895111,0.052197910845279694,0.25419852137565613
1772649726746491400,4.827491455078125,0.21425113081932068,-0.001597895286977291,0.26218798756599426
1772649726756496000,4.837495849609375,0.3032006323337555,0.10013477504253387,0.21212059259414673
1772649726766500000,4.8475,0.3932153880596161,0.10066740214824677,0.10399635136127472
1772649726776504600,4.857504638671875,0.4997417628765106,-0.12410320341587067,-0.08242476731538773
1772649726786508800,4.8675087890625,0.5934849381446838,-0.392549604177475,-0.36898064613342285
1772649726796513300,4.87751318359375,0.6510091423988342,-0.4063980281352997,-0.6566017866134644
1772649726806517800,4.887517822265625,0.7127944827079773,-0.08255792409181595,-0.9868335127830505
1772649726816522000,4.89752197265625,0.819320797920227,0.21571587026119232,-1.320261001586914
1772649726826526500,4.9075263671875,0.8416913151741028,0.2870885133743286,-1.5375747680664062
1772649726836530700,4.91753076171875,0.7703186869621277,0.31265485286712646,-1.509345293045044
1772649726846535200,4.92753515625,0.6142575740814209,0.36059170961380005,-1.240898847579956
1772649726856539600,4.93753955078125,0.34847432374954224,0.3020022213459015,-0.813195526599884
1772649726866543900,4.9475439453125,0.20200060307979584,0.15286532044410706,-0.30666273832321167
1772649726876548400,4.95754833984375,0.1050616130232811,0.01704421639442444,0.22437113523483276
1772649726886552600,4.967552490234375,0.0011984214652329683,-0.17044216394424438,0.7111965417861938
1772649726896557000,4.97755712890625,-0.07816371321678162,-0.3685811758041382,1.079777717590332
1772649726906561300,4.987561279296875,-0.13888372480869293,-0.5629917979240417,1.2566114664077759
1772649726916565800,4.997565673828125,-0.2155826985836029,-0.6817686557769775,1.2337082624435425
1772649726926570200,5.0075703125,-0.33103063702583313,-0.6024065017700195,1.0488851070404053
1772649726936574500,5.017574462890625,-0.39707696437835693,-0.39308223128318787,0.7554050087928772
1772649726946579000,5.027578857421875,-0.3933485448360443,-0.18482321500778198,0.39534592628479004
1772649726956583200,5.037583251953125,-0.3320958912372589,0.03621895983815193,0.1002679318189621
1772649726966587600,5.047587646484375,-0.2713758945465088,0.31425273418426514,0.00013315794058144093
1772649726976592100,5.057592041015625,-0.13715267181396484,0.6801707744598389,0.02623211406171322
1772649726986596400,5.067596435546875,0.03169158846139908,1.0594046115875244,0.03262369707226753
1772649726996600800,5.077600830078125,0.2516685128211975,1.9989670515060425,0.4432827830314636
1772649727006605000,5.08760498046875,0.31558433175086975,3.05517578125,1.5176010131835938
1772649727016609500,5.097609619140625,0.3981422483921051,0.47830331325531006,1.4456957578659058
1772649727026614000,5.107614013671875,0.4455464780330658,-1.9819227457046509,1.0147966146469116
1772649727036618200,5.1176181640625,0.6884265542030334,-1.3427646160125732,0.9119987487792969
1772649727046622700,5.127622802734375,0.6255760192871094,0.6945518255233765,0.6920218467712402
1772649727056627000,5.137626953125,-0.08016107976436615,0.0612526535987854,0.7953523993492126
1772649727066631400,5.14763134765625,-1.0373003482818604,-0.7121286392211914,0.668053388595581
1772649727076635600,5.1576357421875,-1.2934962511062622,-0.6604633927345276,0.24301324784755707
1772649727086639900,5.167639892578125,-1.0314414501190186,-0.3584611713886261,-0.07017423212528229
1772649727096644000,5.17764404296875,-0.8167908191680908,-0.3579285442829132,-0.1404816210269928
1772649727106648600,5.187648681640625,-0.5201148986816406,-0.11611372232437134,-0.0600542314350605
1772649727116652800,5.19765283203125,-0.19893796741962433,0.16831164062023163,0.07789739221334457
1772649727126657000,5.207656982421875,0.06524739414453506,0.30306747555732727,0.18229322135448456
1772649727136661500,5.21766162109375,0.20306585729122162,0.27590325474739075,0.10772477090358734
1772649727146665700,5.227665771484375,0.22170796990394592,0.21305270493030548,-0.12716583907604218
1772649727156670000,5.237669921875,0.15033531188964844,0.14913690090179443,-0.34714275598526
1772649727166674400,5.24767431640625,0.07097318023443222,0.13422320783138275,-0.5127912163734436
1772649727176678700,5.2576787109375,-0.045673172920942307,0.1507347822189331,-0.6129260063171387
1772649727186683000,5.267682861328125,-0.18628795444965363,0.1363537311553955,-0.637427031993866
1772649727196687400,5.277687255859375,-0.35459959506988525,0.13475583493709564,-0.6289049386978149
1772649727206691600,5.287691650390625,-0.5532712340354919,0.17097479104995728,-0.6720481514930725
1772649727216695800,5.29769580078125,-0.725311279296875,0.16671374440193176,-0.7530081272125244
1772649727226700300,5.3077001953125,-0.8520776629447937,0.14434321224689484,-0.7663239240646362
1772649727236704500,5.31770458984375,-0.8978840112686157,0.05432844161987305,-0.6576670408248901
1772649727246708700,5.327708740234375,-0.8126628994941711,0.0010652635246515274,-0.42970067262649536
1772649727256713200,5.337713134765625,-0.6219807267189026,0.012783162295818329,-0.13355740904808044
1772649727266717400,5.347717529296875,-0.40200382471084595,0.02503369376063347,0.13915005326271057
1772649727276721700,5.3577216796875,-0.21718059480190277,-0.017576847225427628,0.3415501117706299
1772649727286726100,5.36772607421875,-0.10106687992811203,-0.13741900026798248,0.45659857988357544
1772649727296730400,5.37773046875,-0.01584579423069954,-0.27537062764167786,0.5151880979537964
1772649727306734600,5.387734619140625,0.07257107645273209,-0.21891164779663086,0.496013343334198
1772649727316739000,5.397739013671875,0.12263846397399902,-0.08681897819042206,0.33302801847457886
1772649727326743300,5.407743408203125,0.1488705724477768,-0.2125200778245926,0.07150581479072571
1772649727336747500,5.41774755859375,0.17869795858860016,-0.5320991277694702,-0.2438121885061264
1772649727346751700,5.427751708984375,0.2537990212440491,-0.5896233320236206,-0.552738606929779
1772649727356756200,5.437756103515625,0.38642433285713196,-0.5496760010719299,-0.8126628994941711
1772649727366760400,5.447760498046875,0.6010749340057373,-0.4138548672199249,-0.9554082155227661
1772649727376764700,5.4577646484375,0.7123949527740479,-0.2306295484304428,-0.9873661398887634
1772649727386769200,5.46776904296875,0.623445451259613,-0.2870885133743286,-0.9202545285224915
1772649727396773400,5.4777734375,0.5387570261955261,-0.41651803255081177,-0.7396923303604126
1772649727406777600,5.487777587890625,0.736363410949707,-0.491086483001709,-0.4701806902885437
1772649727416782000,5.497781982421875,0.782169759273529,-0.4814991056919098,-0.14580795168876648
1772649727426786300,5.507786376953125,0.6665886640548706,-0.5571328401565552,0.18602164089679718
1772649727436790500,5.51779052734375,0.5121254324913025,-0.5784381031990051,0.46085962653160095
1772649727446795000,5.527794921875,0.3597927689552307,-0.5049349069595337,0.5854954719543457
1772649727456799200,5.53779931640625,0.25912535190582275,-0.4335622489452362,0.5455480813980103
1772649727466803500,5.547803466796875,0.223439022898674,-0.3872233033180237,0.38469329476356506
1772649727476808000,5.557807861328125,0.1488705724477768,-0.21518322825431824,0.18442374467849731
1772649727486812200,5.567812255859375,0.08974844962358475,0.02024000696837902,0.00918789766728878
1772649727496816400,5.57781640625,0.06791055202484131,0.20453059673309326,-0.12823109328746796
1772649727506820600,5.587820556640625,0.05512738600373268,0.40746331214904785,-0.1964079588651657
1772649727516825000,5.5978251953125,0.04713791236281395,0.6620612740516663,-0.20759323239326477
1772649727526829300,5.607829345703125,0.03914843499660492,0.9092023968696594,-0.16498269140720367
1772649727536833500,5.61783349609375,0.04607264697551727,1.1989541053771973,-0.07709844410419464
1772649727546838000,5.627838134765625,0.11957582831382751,1.9755312204360962,0.4102596044540405
1772649727556842200,5.63784228515625,0.11158635467290878,2.8602325916290283,1.427053689956665
1772649727566847000,5.647846923828125,0.030093694105744362,0.5134570002555847,1.5074810981750488
1772649727576851700,5.657851806640625,-0.1771000623703003,-1.9414427280426025,1.3791167736053467
1772649727586856200,5.667856201171875,-0.20639480650424957,-1.242629885673523,1.1879019737243652
1772649727596861000,5.67786083984375,0.14194636046886444,0.32330748438835144,1.0163946151733398
1772649727606865700,5.68786572265625,0.25859272480010986,0.4378232955932617,0.6238449811935425
1772649727616870400,5.697870361328125,-0.4492748975753784,-0.08522108197212219,0.1471395194530487
1772649727626875100,5.707875244140625,-0.9286434650421143,-0.11504846066236496,-0.2922816872596741
1772649727636880000,5.7178798828125,-0.9042755961418152,0.12889689207077026,-0.47657227516174316
1772649727646884400,5.72788427734375,-0.6182523369789124,0.3664506673812866,-0.36791539192199707
1772649727656889000,5.73788916015625,-0.3189132809638977,0.5949496626853943,-0.10639319568872452
1772649727666893800,5.747893798828125,-0.03448790684342384,0.6466149687767029,0.16684690117835999
1772649727676898600,5.757898681640625,0.15832479298114777,0.5299686193466187,0.23076270520687103
1772649727686903300,5.7679033203125,0.28615641593933105,0.3451453745365143,0.0858868733048439
1772649727696908000,5.777907958984375,0.3213101029396057,0.0990695059299469,-0.14261215925216675
1772649727706912500,5.78791259765625,0.1945437490940094,-0.18748638033866882,-0.35513222217559814
1772649727716917200,5.797917236328125,0.027297377586364746,-0.34194958209991455,-0.4717785716056824
1772649727726922000,5.807921875,-0.1735047996044159,-0.38402751088142395,-0.5063996315002441
1772649727736926700,5.8179267578125,-0.3423490524291992,-0.3621895909309387,-0.48722490668296814
1772649727746931500,5.827931396484375,-0.475506991147995,-0.23489060997962952,-0.4233090877532959
1772649727756936200,5.837936279296875,-0.5783049464225769,-0.04154527932405472,-0.3189132809638977
1772649727766940700,5.847940673828125,-0.6858965754508972,0.04101264476776123,-0.23156166076660156
1772649727776945400,5.8579453125,-0.7285071015357971,0.09001477062702179,-0.1543300598859787
1772649727786950100,5.8679501953125,-0.6944186687469482,0.10226529836654663,-0.09946898370981216
1772649727796955000,5.877954833984375,-0.6044039130210876,0.0804273933172226,-0.06910897046327591
1772649727806959600,5.887959716796875,-0.47231122851371765,0.07669897377490997,-0.04833633080124855
1772649727816964400,5.89796435546875,-0.31252169609069824,0.11078740656375885,0.004926843568682671
1772649727826968800,5.90796875,-0.15592794120311737,0.16831164062023163,0.07257107645273209
1772649727836973600,5.9179736328125,-0.06271739304065704,0.1837579607963562,0.08961529284715652
1772649727846978300,5.927978271484375,0.02623211406171322,0.164583221077919,0.052863702178001404
1772649727856983000,5.937983154296875,0.1327584683895111,0.2732400894165039,0.012383688241243362
1772649727866987800,5.94798779296875,0.22543638944625854,0.4282359480857849,-0.04833633080124855
1772649727876992500,5.957992431640625,0.31971222162246704,0.36591801047325134,-0.10905635356903076
1772649727886997000,5.9679970703125,0.4155859351158142,0.13422320783138275,-0.22250692546367645
1772649727897001700,5.978001708984375,0.5210469961166382,-0.11611372232437134,-0.4190480411052704
1772649727907006500,5.98800634765625,0.647280752658844,-0.09054739773273468,-0.637427031993866
1772649727917011200,5.99801123046875,0.8006786704063416,0.2221074402332306,-0.8036081790924072
1772649727927016000,6.008015869140625,0.8795081973075867,0.42557278275489807,-0.9335703253746033
1772649727937020700,6.018020751953125,0.7825692296028137,0.38882118463516235,-0.9575387239456177
1772649727947025200,6.028025146484375,0.6078659892082214,0.2721748352050781,-0.7780418395996094
1772649727957030000,6.03802978515625,0.4075964689254761,0.21145480871200562,-0.4408859312534332
1772649727967034600,6.04803466796875,0.26751428842544556,0.11611372232437134,-0.05206475406885147
1772649727977039400,6.058039306640625,0.20040270686149597,0.04527369886636734,0.31385326385498047
1772649727987044000,6.068044189453125,0.16524900496006012,0.026098955422639847,0.5769733786582947
1772649727997048800,6.078048828125,0.1471395194530487,-0.043143171817064285,0.6984133720397949
1772649728007053300,6.08805322265625,0.12689951062202454,-0.1747032105922699,0.7117291688919067
1772649728017058000,6.09805810546875,0.07896266132593155,-0.28122955560684204,0.6536723375320435
1772649728027062800,6.108062744140625,-0.0030626326333731413,-0.3392864465713501,0.5428849458694458
1772649728037067500,6.118067626953125,-0.07603318244218826,-0.2631200850009918,0.4171838164329529
1772649728047072300,6.128072265625,-0.08455529063940048,-0.06977476179599762,0.2808300852775574
1772649728057077000,6.138076904296875,-0.07017423212528229,0.16777899861335754,0.11731214821338654
1772649728067081000,6.1480810546875,-0.024900535121560097,0.46338963508605957,-0.007856318727135658
1772649728077085000,6.1580849609375,-0.05259738489985466,0.7962844967842102,-0.00519315991550684
1772649728087089200,6.168089111328125,-0.07230476289987564,1.2213246822357178,0.18868480622768402
1772649728097093400,6.17809326171875,-0.09147950261831284,2.3089587688446045,1.0888324975967407
1772649728107097300,6.188097412109375,-0.23156166076660156,3.15903902053833,3.0174920558929443
1772649728117101600,6.1981015625,-0.1495363712310791,-0.9933582544326782,3.271024703979492
1772649728127105500,6.20810546875,-0.11691267043352127,-3.3987233638763428,2.815092086791992
1772649728137109800,6.21810986328125,-0.1488705724477768,-1.4705963134765625,1.9208033084869385
1772649728147113700,6.22811376953125,-0.011451583355665207,0.2822948396205902,1.243828296661377
1772649728157118000,6.238117919921875,-0.6468812823295593,-0.2162484973669052,0.7399587035179138
1772649728167122000,6.248121826171875,-1.3100078105926514,-0.985901415348053,0.05073317512869835
1772649728177126100,6.258126220703125,-1.1960246562957764,-0.7765771150588989,-0.2533995509147644
1772649728187130000,6.268130126953125,-0.8295739889144897,-0.47777068614959717,-0.22357217967510223
1772649728197134300,6.27813427734375,-0.4700475335121155,-0.013848425820469856,-0.006791055202484131
1772649728207138300,6.28813818359375,-0.15632742643356323,0.32863378524780273,0.22650165855884552
1772649728217142500,6.298142578125,0.09347687661647797,0.3536674976348877,0.24301324784755707
1772649728227146500,6.308146484375,0.24421165883541107,0.3211769461631775,0.011851056478917599
1772649728237150700,6.318150634765625,0.3187801241874695,0.2886864244937897,-0.32743537425994873
1772649728247154700,6.32815478515625,0.3619232773780823,0.17736637592315674,-0.6193175911903381
1772649728257159000,6.338158935546875,0.3736411929130554,0.1560611128807068,-0.8302397727966309
1772649728267163000,6.348162841796875,0.388022243976593,0.1603221595287323,-0.955940842628479
1772649728277167000,6.3581669921875,0.3938812017440796,0.18002954125404358,-0.9878987669944763
1772649728287171000,6.368171142578125,0.23515692353248596,0.15659373998641968,-1.0070735216140747
1772649728297175300,6.37817529296875,-0.03169158846139908,0.029294747859239578,-1.0310419797897339
1772649728307179300,6.38817919921875,-0.3278348445892334,-0.24767376482486725,-1.0614019632339478
1772649728317183500,6.39818359375,-0.5739107131958008,-0.8356992602348328,-1.2121367454528809
1772649728327187500,6.4081875,-0.7166560292243958,-1.1190593242645264,-1.3144019842147827
1772649728337191700,6.418191650390625,-0.7305044531822205,-0.8048065900802612,-1.010269284248352
1772649728347195600,6.428195556640625,-0.6395576000213623,-0.6679202318191528,-0.6390249729156494
1772649728357200000,6.438199951171875,-0.5372923016548157,-0.6572675704956055,-0.43023329973220825
1772649728367203800,6.448203857421875,-0.3897532820701599,-0.5289033651351929,-0.39241644740104675
1772649728377208000,6.4582080078125,-0.2017342746257782,-0.22849902510643005,-0.36312171816825867
1772649728387212000,6.4682119140625,-0.04514054208993912,0.16724637150764465,-0.2970753610134125
1772649728397216300,6.47821630859375,0.1002679318189621,0.33662328124046326,-0.2395511418581009
1772649728407220200,6.48822021484375,0.23928481340408325,0.12197267264127731,-0.216115340590477
1772649728417224400,6.498224365234375,0.3415501117706299,-0.2689790427684784,-0.21185427904129028
1772649728427228400,6.508228515625,0.4342280328273773,-0.4857601523399353,-0.23795324563980103
1772649728437232600,6.518232666015625,0.5221123099327087,-0.4809664785861969,-0.33649012446403503
1772649728447236600,6.528236572265625,0.5828322768211365,-0.36165696382522583,-0.4701806902885437
1772649728457240800,6.53824072265625,0.5439502000808716,-0.17683374881744385,-0.5756417512893677
1772649728467244800,6.548244873046875,0.3495396077632904,-0.046871595084667206,-0.6267744302749634
1772649728477249000,6.5582490234375,0.14873741567134857,-0.09480845183134079,-0.5671196579933167
1772649728487253200,6.568253173828125,-0.03235737979412079,-0.15872426331043243,-0.36791539192199707
1772649728497257200,6.57825732421875,-0.15273216366767883,-0.272707462310791,-0.07337002456188202
1772649728507261200,6.58826123046875,-0.21238692104816437,-0.3829622268676758,0.22490376234054565
1772649728517265400,6.598265380859375,-0.216115340590477,-0.449008584022522,0.4294343590736389
1772649728527269400,6.608269287109375,-0.17763268947601318,-0.4846948981285095,0.5098617672920227
1772649728537273600,6.618273681640625,-0.1525990068912506,-0.48682543635368347,0.5162533521652222
1772649728547277800,6.62827783203125,-0.1765674352645874,-0.5060001611709595,0.4821648895740509
1772649728557281800,6.63828173828125,-0.22716744244098663,-0.46445488929748535,0.462457537651062
1772649728567286000,6.6482861328125,-0.2798979878425598,-0.3723095953464508,0.47097963094711304
1772649728577290500,6.65829052734375,-0.2761695683002472,-0.2785664200782776,0.4390217363834381
1772649728587294700,6.668294677734375,-0.2095905989408493,-0.11398319900035858,0.34368064999580383
1772649728597299200,6.67829931640625,-0.11744530498981476,0.11078740656375885,0.21584902703762054
1772649728607303400,6.688303466796875,-0.013049477711319923,0.3675159215927124,0.04647212103009224
1772649728617307600,6.6983076171875,0.0822916105389595,0.6476802229881287,-0.17510269582271576
1772649728627312000,6.70831201171875,0.21118849515914917,1.1845730543136597,-0.16285216808319092
1772649728637316400,6.71831640625,0.17337164282798767,2.608297824859619,0.9567397832870483
1772649728647320800,6.72832080078125,-0.12436951696872711,1.1153309345245361,1.8499633073806763
1772649728657325000,6.738324951171875,-0.22716744244098663,-2.495912551879883,1.6406389474868774
1772649728667329300,6.748329345703125,0.10412950813770294,-2.39524507522583,1.6800537109375
1772649728677333800,6.758333740234375,0.8135949969291687,0.2881537973880768,1.273123025894165
1772649728687338000,6.768337890625,0.7901592254638672,0.6354296803474426,0.7506113052368164
1772649728697342500,6.778342529296875,-0.0966726616024971,-0.5507412552833557,0.504535436630249
1772649728707346700,6.7883466796875,-0.7747129201889038,-0.772316038608551,0.23555639386177063
1772649728717351000,6.798350830078125,-0.8343676328659058,-0.6008086204528809,-0.0025300008710473776
1772649728727355400,6.80835546875,-0.6383591890335083,-0.31744852662086487,-0.14793847501277924
1772649728737359600,6.818359619140625,-0.42970067262649536,0.18002954125404358,-0.12290477752685547
1772649728747364000,6.828364013671875,-0.18149426579475403,0.48682543635368347,0.1284974068403244
1772649728757368300,6.838368408203125,0.10932266712188721,0.3403517007827759,0.2605900764465332
1772649728767372500,6.84837255859375,0.24727429449558258,0.11185266822576523,-0.04833633080124855
1772649728777377000,6.858376953125,0.35167011618614197,-0.06072001904249191,-0.4739091098308563
1772649728787381200,6.86838134765625,0.3820301294326782,-0.11824425309896469,-0.586294412612915
1772649728797385700,6.8783857421875,0.31545117497444153,-0.06285054981708527,-0.531965970993042
1772649728807390000,6.888389892578125,0.2605900764465332,-0.03142527490854263,-0.5042691230773926
1772649728817394200,6.898394287109375,0.2137184888124466,-0.021837901324033737,-0.5468796491622925
1772649728827398700,6.908398681640625,0.17377111315727234,0.03195790573954582,-0.6177197098731995
1772649728837403000,6.91840283203125,0.09387634694576263,0.09960214048624039,-0.6800376176834106
1772649728847407400,6.928407470703125,-0.04727106913924217,0.11558109521865845,-0.7759113311767578
1772649728857411600,6.93841162109375,-0.23262691497802734,-0.025566324591636658,-0.9777787327766418
1772649728867415800,6.948415771484375,-0.3189132809638977,-0.046871595084667206,-1.1764503717422485
1772649728877420300,6.958420166015625,-0.2816290557384491,0.15659373998641968,-1.2595409154891968
1772649728887424500,6.968424560546875,-0.15752583742141724,0.4058654010295868,-1.1860377788543701
1772649728897429000,6.978428955078125,-0.04354264587163925,0.5294359922409058,-0.9649956226348877
1772649728907433200,6.98843310546875,0.014514215290546417,0.5038696527481079,-0.6667218208312988
1772649728917437400,6.9984375,0.056059494614601135,0.36964643001556396,-0.36951327323913574
1772649728927442000,7.00844189453125,0.05073317512869835,0.22530323266983032,-0.09361003339290619
1772649728937446100,7.018446044921875,0.011851056478917599,0.13102741539478302,0.04913527891039848
1772649728947450600,7.02845068359375,-0.03289001062512398,0.027696851640939713,0.06191844120621681
1772649728957454800,7.038454833984375,0.0027963167522102594,-0.05432844161987305,-0.014780531637370586
1772649728967459000,7.048458984375,0.12263846397399902,0.08575371652841568,-0.10692582279443741
1772649728977463600,7.058463623046875,0.21158796548843384,0.42184436321258545,-0.17616795003414154
1772649728987467800,7.0684677734375,0.28242799639701843,0.5731117725372314,-0.282161682844162
1772649728997472300,7.07847216796875,0.37084487080574036,0.480433851480484,-0.46272385120391846
1772649729007476500,7.0884765625,0.4779038429260254,0.4063980281352997,-0.6811028718948364
1772649729017480700,7.098480712890625,0.6147902011871338,0.41332224011421204,-0.9197219014167786
1772649729027485200,7.108485107421875,0.7767102718353271,0.48789069056510925,-1.1753851175308228
1772649729037489400,7.118489501953125,0.8241145014762878,0.52837073802948,-1.2824441194534302
1772649729047494000,7.128493896484375,0.6787060499191284,0.41705065965652466,-1.1412967443466187
1772649729057498000,7.138498046875,0.42410802841186523,0.23648850619792938,-0.7343660593032837
1772649729067502000,7.148502197265625,0.353268027305603,0.16724637150764465,-0.19747322797775269
1772649729077505800,7.158505859375,0.2936132550239563,0.03675159066915512,0.31119009852409363
1772649729087509800,7.168509765625,0.15992268919944763,-0.1885516494512558,0.7617965936660767
1772649729097513700,7.178513671875,0.02143842913210392,-0.38882118463516235,1.0936261415481567
1772649729107517700,7.188517578125,-0.11118687689304352,-0.5182507038116455,1.2129356861114502
1772649729117521700,7.198521728515625,-0.1964079588651657,-0.5358275771141052,1.0691250562667847
1772649729127525400,7.208525390625,-0.15899057686328888,-0.3334274888038635,0.7884281873703003
1772649729137529300,7.218529296875,-0.14247900247573853,-0.022903166711330414,0.48056700825691223
1772649729147533300,7.228533203125,-0.17124110460281372,0.14487583935260773,0.23875218629837036
1772649729157537300,7.238537353515625,-0.1957421749830246,0.2263685017824173,0.07896266132593155
1772649729167541200,7.248541259765625,-0.14940321445465088,0.37390750646591187,0.013981583528220654
1772649729177545000,7.258544921875,0.005060001742094755,0.5326317548751831,-0.0003994738217443228
1772649729187549000,7.268548828125,0.1914811134338379,0.6514086723327637,-0.0552605465054512
1772649729207556900,7.288556884765625,0.4162517189979553,0.9741834998130798,-0.20333217084407806
1772649729217560800,7.298560791015625,0.57657390832901,1.7518258094787598,0.06990791857242584
1772649729227564500,7.308564453125,0.5440833568572998,2.6301355361938477,0.9349018931388855
1772649729237568500,7.318568603515625,0.43436118960380554,0.5528717637062073,1.0653966665267944
1772649729247572500,7.328572509765625,0.6293044090270996,-1.5291857719421387,0.8395608067512512
1772649729257576400,7.338576416015625,1.2918983697891235,-0.8921582102775574,0.7522091865539551
1772649729267580400,7.348580322265625,1.6210647821426392,0.5709812641143799,0.5093291401863098
1772649729277584100,7.358584228515625,1.059138298034668,0.12303793430328369,0.5572659969329834
1772649729287588000,7.368588134765625,-0.10679266601800919,-0.755271852016449,0.6158554553985596
1772649729297592000,7.378592041015625,-0.820519208908081,-1.1249182224273682,0.29041746258735657
1772649729307596000,7.388595947265625,-0.8700540065765381,-0.8426234722137451,-0.13941636681556702
1772649729317600000,7.39860009765625,-0.6282391548156738,-0.4665854275226593,-0.3247722089290619
1772649729327603700,7.408603759765625,-0.38216328620910645,-0.08096002787351608,-0.2949448525905609
1772649729337607700,7.418607666015625,-0.1639174222946167,0.3243727385997772,-0.19108164310455322
1772649729347611600,7.428611572265625,0.03262369707226753,0.45966121554374695,-0.11278477311134338
1772649729357615600,7.43861572265625,0.23875218629837036,0.3723095953464508,-0.11385004222393036
1772649729367619300,7.448619384765625,0.33835431933403015,0.2545979917049408,-0.21291954815387726
1772649729377623300,7.458623291015625,0.24514377117156982,0.1928126960992813,-0.4190480411052704
1772649729387627300,7.468627197265625,0.06671212613582611,0.11717899143695831,-0.5852291584014893
1772649729397631200,7.47863134765625,-0.024900535121560097,0.054861072450876236,-0.5713807344436646
1772649729407635200,7.48863525390625,-0.14740583300590515,0.002130527049303055,-0.4286354184150696
1772649729417639000,7.498638916015625,-0.32157641649246216,-0.03142527490854263,-0.3428817093372345
1772649729427643000,7.508642822265625,-0.5452817678451538,-0.09321055561304092,-0.4504733085632324
1772649729437646800,7.518646728515625,-0.8323702812194824,-0.22530323266983032,-0.7247786521911621
1772649729447650800,7.52865087890625,-1.0784461498260498,-0.40266960859298706,-1.0012145042419434
1772649729457654800,7.53865478515625,-1.1785808801651,-0.6109286546707153,-1.0954903364181519
1772649729467658500,7.548658447265625,-1.0859030485153198,-0.7344992160797119,-0.9692566394805908
1772649729477662500,7.558662353515625,-0.9229176640510559,-0.738760232925415,-0.7231807708740234
1772649729487666400,7.56866650390625,-0.7508776187896729,-0.6940191984176636,-0.4190480411052704
1772649729497670400,7.57867041015625,-0.5958817601203918,-0.5709812641143799,-0.0978710874915123
1772649729507674400,7.58867431640625,-0.445679634809494,-0.4761728048324585,0.16844479739665985
1772649729517678000,7.598677978515625,-0.28375956416130066,-0.4751075208187103,0.33249539136886597
1772649729527682000,7.60868212890625,-0.12703268229961395,-0.314785361289978,0.428901731967926
1772649729537686000,7.61868603515625,-0.013049477711319923,-0.23808640241622925,0.44594594836235046
1772649729547690000,7.62868994140625,0.09400950372219086,-0.45912858843803406,0.353268027305603
1772649729557694000,7.63869384765625,0.2378200888633728,-0.7126613259315491,0.16418373584747314
1772649729567698000,7.648697998046875,0.4737759530544281,-0.658332884311676,-0.07177212834358215
1772649729577702000,7.658701904296875,0.7518097162246704,-0.23808640241622925,-0.4243743419647217
1772649729587705900,7.668705810546875,0.8860329389572144,0.3217095732688904,-0.7956187129020691
1772649729597709800,7.678709716796875,0.8125297427177429,0.5880254507064819,-1.0241177082061768
1772649729607713800,7.6887138671875,0.5664538741111755,0.38509276509284973,-1.0454230308532715
1772649729617717800,7.6987177734375,0.35286855697631836,-0.12037477642297745,-0.7844334244728088
1772649729627721700,7.7087216796875,0.331563264131546,-0.37550538778305054,-0.2917490601539612
1772649729637725700,7.7187255859375,0.3219758868217468,-0.37550538778305054,0.2270342856645584
1772649729647729700,7.728729736328125,0.27883273363113403,-0.4303664565086365,0.6030722856521606
1772649729657733600,7.738733642578125,0.19734007120132446,-0.46445488929748535,0.7815039753913879
1772649729667737600,7.748737548828125,0.1105210930109024,-0.4516717195510864,0.7708513140678406
1772649729677741600,7.758741455078125,0.05619265139102936,-0.373374879360199,0.6382260322570801
1772649729687745500,7.76874560546875,0.024234745651483536,-0.27537062764167786,0.450206995010376
1772649729697749500,7.77874951171875,-0.02210421860218048,-0.17736637592315674,0.22863218188285828
1772649729707753500,7.78875341796875,-0.1296958327293396,-0.10226529836654663,0.014514215290546417
1772649729717757400,7.79875732421875,-0.20213375985622406,-0.09587371349334717,-0.1255679428577423
1772649729727761400,7.808761474609375,-0.224504292011261,-0.052197910845279694,-0.19427743554115295
1772649729737765400,7.818765380859375,-0.1579253226518631,0.003195790573954582,-0.21398481726646423
1772649729747769300,7.828769287109375,-0.016777900978922844,0.08681897819042206,-0.20812585949897766
1772649729757773300,7.838773193359375,0.10998845845460892,0.2215748131275177,-0.1735047996044159
1772649729767777300,7.84877734375,0.1952095478773117,0.47350963950157166,-0.13195951282978058
1772649729777781200,7.85878125,0.2383527159690857,0.8026760816574097,-0.08242476731538773
1772649729787785200,7.86878515625,0.24634219706058502,1.545164704322815,0.31065747141838074
1772649729797789200,7.8787890625,0.14088110625743866,3.1606369018554688,1.6933695077896118
1772649729807793200,7.888793212890625,-0.0732368677854538,1.6351795196533203,2.388986587524414
1772649729817797000,7.898797119140625,-0.017310531809926033,-1.9158765077590942,2.2531654834747314
1772649729827801000,7.908801025390625,0.037017907947301865,-1.6852469444274902,2.190847635269165
1772649729837805000,7.91880517578125,0.3358243405818939,0.283360093832016,1.7157400846481323
1772649729847809000,7.92880908203125,0.07057370990514755,0.18588848412036896,1.2246536016464233
1772649729857813000,7.93881298828125,-0.8263781666755676,-0.8862992525100708,0.48376280069351196
1772649729867817000,7.94881689453125,-1.1954920291900635,-0.7808381915092468,-0.15060162544250488
1772649729877821000,7.958821044921875,-1.0522140264511108,-0.21145480871200562,-0.35939326882362366
1772649729887825000,7.968824951171875,-0.7145255208015442,0.055926334112882614,-0.257127970457077
1772649729897829000,7.9788291015625,-0.34914010763168335,0.480433851480484,-0.15379741787910461
1772649729907833000,7.9888330078125,0.05992107465863228,0.6359623074531555,-0.13781847059726715
1772649729917836800,7.9988369140625,0.3747064471244812,0.42770329117774963,-0.24168166518211365
1772649729927841000,8.008841064453126,0.5121254324913025,0.21145480871200562,-0.4323638379573822
1772649729937845000,8.018844970703125,0.538091242313385,0.018109479919075966,-0.6347638964653015
1772649729947849000,8.028848876953125,0.3868238031864166,-0.052197910845279694,-0.7492797374725342
1772649729957853000,8.03885302734375,0.11677951365709305,-0.0005326317623257637,-0.7977492213249207
1772649729967857000,8.04885693359375,-0.11491530388593674,0.07882949709892273,-0.7732481360435486
1772649729977860900,8.05886083984375,-0.3061301112174988,0.06817686557769775,-0.7498123645782471
1772649729987864800,8.06886474609375,-0.5271722674369812,0.01651158556342125,-0.8062713146209717
1772649730007872800,8.088872802734375,-0.8787092566490173,0.026098955422639847,-1.018258810043335
1772649730017876700,8.098876708984376,-0.8488819003105164,0.011717898771166801,-0.8829703330993652
1772649730027880700,8.108880615234375,-0.7652586698532104,-0.014913689345121384,-0.6155891418457031
1772649730037884700,8.118884765625,-0.6544712781906128,-0.015446321107447147,-0.2912164032459259
1772649730047888600,8.128888671875,-0.5660544037818909,-0.034621063619852066,-0.025965798646211624
1772649730057892600,8.138892578125,-0.5005406737327576,-0.06285054981708527,0.08695213496685028
1772649730067896800,8.148896728515625,-0.3748396039009094,-0.021305270493030548,0.1572595238685608
1772649730077900800,8.15890087890625,-0.20759323239326477,0.08309055864810944,0.21957744657993317
1772649730087904800,8.16890478515625,-0.07070686668157578,0.16724637150764465,0.24407850205898285
1772649730097909000,8.178908935546875,0.03741738200187683,-0.0990695059299469,0.1705753207206726
1772649730107913200,8.188913330078124,0.13488899171352386,-0.6535391807556152,-0.03342264145612717
1772649730117917200,8.198917236328125,0.2920153737068176,-0.9624655842781067,-0.23529008030891418
1772649730127921400,8.20892138671875,0.6062681078910828,-0.8021434545516968,-0.49627965688705444
1772649730137925400,8.21892529296875,0.9050745368003845,-0.16138742864131927,-0.7844334244728088
1772649730147929600,8.2289296875,1.0472872257232666,0.5044022798538208,-1.0139976739883423
1772649730157933600,8.23893359375,0.9908282160758972,0.6854971051216125,-1.1205240488052368
1772649730167937800,8.248937744140624,0.7394260168075562,0.4143875241279602,-1.0081387758255005
1772649730177941800,8.258941650390625,0.5311670303344727,-0.1794968992471695,-0.5878922939300537
1772649730187946000,8.268946044921876,0.492284893989563,-0.654604434967041,0.044341593980789185
1772649730197950000,8.278949951171874,0.41292276978492737,-0.8255792260169983,0.6616618037223816
1772649730207954200,8.2889541015625,0.2749711573123932,-0.8628634810447693,1.0648640394210815
1772649730217958400,8.29895849609375,0.08162581920623779,-0.8080024123191833,1.201217770576477
1772649730227962400,8.30896240234375,-0.05099949240684509,-0.6306359767913818,1.1143988370895386
1772649730237966300,8.31896630859375,-0.11331740766763687,-0.3536674976348877,0.9189229607582092
1772649730247970600,8.328970458984376,-0.09361003339290619,-0.11185266822576523,0.6803039312362671
1772649730257974800,8.338974853515625,-0.12982898950576782,-0.030892642214894295,0.4102596044540405
1772649730267978800,8.348978759765625,-0.13941636681556702,0.00426105409860611,0.18868480622768402
1772649730277983000,8.35898291015625,-0.11331740766763687,0.07882949709892273,0.04913527891039848
1772649730287987000,8.368987060546875,-0.0009321055840700865,0.26684850454330444,-0.07763107866048813
1772649730297991200,8.3789912109375,0.2083921730518341,0.4996086061000824,-0.2683132588863373
1772649730307995100,8.3889951171875,0.40440067648887634,0.7621960639953613,-0.4712459444999695
1772649730317999400,8.398999267578125,0.5199817419052124,1.1179940700531006,-0.5495428442955017
1772649730328003300,8.40900341796875,0.5705817937850952,1.4040173292160034,-0.489888072013855
1772649730338007600,8.419007568359374,0.6073333621025085,1.8700700998306274,-0.17030900716781616
1772649730348011500,8.429011474609375,0.4012048840522766,3.1718220710754395,0.9119987487792969
1772649730358015700,8.439015625,-0.15646058320999146,1.9920427799224854,2.041710615158081
1772649730368019700,8.449019775390624,-0.37856802344322205,-1.7837837934494019,2.815092086791992
1772649730378024000,8.45902392578125,-0.33169642090797424,-2.301501750946045,2.974349021911621
1772649730388028000,8.46902783203125,0.1615205854177475,-0.6082654595375061,1.8973674774169922
1772649730398032100,8.4790322265625,0.45553332567214966,0.4484759569168091,1.0483524799346924
1772649730408036400,8.489036376953125,-0.2613890469074249,-0.21837902069091797,0.4954806864261627
1772649730418040300,8.499040283203126,-1.0321072340011597,-0.5241096615791321,-0.15699321031570435
1772649730428044500,8.50904443359375,-1.345827341079712,-0.04420843720436096,-0.7966839671134949
1772649730438048500,8.519048583984375,-1.139166235923767,0.2599242925643921,-1.0219871997833252
1772649730448052700,8.529052734375,-0.7333008050918579,0.621048629283905,-0.6890923380851746
1772649730458056700,8.539056640625,-0.47923544049263,0.9278445243835449,-0.21025638282299042
1772649730468061000,8.54906103515625,-0.1729721575975418,1.0077393054962158,0.17430374026298523
1772649730478065000,8.55906494140625,0.08322371542453766,1.0061414241790771,0.318114310503006
1772649730488069000,8.569069091796875,0.2376869171857834,0.9017455577850342,0.18708691000938416
1772649730498073000,8.579072998046875,0.34847432374954224,0.6977475881576538,-0.02330263890326023
1772649730508077300,8.589077392578124,0.3559311628341675,0.480433851480484,-0.15646058320999146
1772649730518081300,8.599081298828125,0.20253323018550873,0.1794968992471695,-0.27470484375953674
1772649730528085500,8.60908544921875,-0.05033370107412338,-0.09534108638763428,-0.4318312108516693
1772649730538089500,8.61908935546875,-0.23568955063819885,-0.2269011288881302,-0.574043869972229
1772649730548093700,8.62909375,-0.33369380235671997,-0.2721748352050781,-0.6145238876342773
1772649730558097700,8.63909765625,-0.43010014295578003,-0.25140219926834106,-0.5261070132255554
1772649730568102000,8.649101806640624,-0.5552685856819153,-0.16777899861335754,-0.3940143585205078
1772649730578106000,8.659106201171875,-0.7267760634422302,-0.18109479546546936,-0.3055974841117859
1772649730588110300,8.6691103515625,-0.866858184337616,-0.34621065855026245,-0.26085641980171204
1772649730598114600,8.679114501953125,-0.8956202864646912,-0.5800359845161438,-0.25553008913993835
1772649730608118800,8.689118896484375,-0.791224479675293,-0.7265097498893738,-0.29334694147109985
1772649730618122800,8.699122802734376,-0.6394244432449341,-0.7350318431854248,-0.3237069547176361
1772649730628127000,8.709126953125,-0.4876243770122528,-0.5736443996429443,-0.26937851309776306
1772649730638131200,8.719131103515625,-0.3523359000682831,-0.4005391001701355,-0.1356879472732544
1772649730648135400,8.729135498046874,-0.2511358857154846,-0.3051980137825012,0.005992107093334198
1772649730658139600,8.7391396484375,-0.16644743084907532,-0.21038953959941864,0.10879004001617432
1772649730668143900,8.749143798828126,-0.10253161191940308,-0.17683374881744385,0.1045289859175682
1772649730678147800,8.75914794921875,-0.049268439412117004,-0.15286532044410706,0.06138581037521362
1772649730688152000,8.769152099609375,-0.027430536225438118,-0.12037477642297745,0.00013315794058144093
1772649730698156300,8.77915625,-0.024767376482486725,-0.1272989958524704,-0.06804370880126953
1772649730708160500,8.789160400390625,-0.0306263267993927,-0.18216006457805634,-0.150068998336792
1772649730718164700,8.799164794921875,-0.03968106582760811,-0.26258745789527893,-0.2438121885061264
1772649730728169000,8.8091689453125,-0.07376950234174728,-0.3536674976348877,-0.3338269591331482
1772649730738173200,8.819173095703125,-0.14247900247573853,-0.5070654153823853,-0.3748396039009094
1772649730748177400,8.829177490234375,-0.2095905989408493,-0.6407560110092163,-0.34181642532348633
1772649730758181400,8.839181396484374,-0.24527692794799805,-0.7574023604393005,-0.2294311374425888
1772649730768185600,8.849185546875,-0.2149169147014618,-0.9512803554534912,-0.03874896094202995
1772649730778189800,8.85918994140625,-0.18881796300411224,-1.0668613910675049,0.1711079478263855
1772649730788194000,8.869194091796874,-0.23142850399017334,-0.9624655842781067,0.2035984843969345
1772649730798198300,8.8791982421875,-0.1914811134338379,-0.8532760739326477,0.12530162930488586
1772649730808202500,8.889202392578126,-0.16591478884220123,-0.7952192425727844,0.04700475186109543
1772649730818206500,8.89920654296875,-0.16644743084907532,-0.7563371062278748,0.00013315794058144093
1772649730828210700,8.909210693359375,-0.1962748020887375,-0.7233139276504517,-0.025433165952563286
1772649730838215000,8.91921484375,-0.23249375820159912,-0.6812360286712646,-0.0318247489631176
1772649730848219100,8.92921923828125,-0.24953797459602356,-0.6274402141571045,-0.013715268112719059
1772649730858223400,8.939223388671875,-0.2527337670326233,-0.621048629283905,0.15459637343883514
1772649730868227600,8.9492275390625,-0.25007060170173645,-0.4900212287902832,0.32344064116477966
1772649730878231600,8.9592314453125,-0.20426428318023682,-0.3829622268676758,0.44275015592575073
1772649730888235800,8.96923583984375,-0.14620742201805115,-0.3547327518463135,0.5263733267784119
1772649730898240000,8.979239990234374,-0.12277162075042725,-0.41172435879707336,0.5205143690109253
1772649730908244200,8.989244140625,-0.13235899806022644,-0.49694544076919556,0.46085962653160095
1772649730918248400,8.99924853515625,-0.20639480650424957,-0.5400885939598083,0.4155859351158142
1772649730928252700,9.009252685546874,-0.29281431436538696,-0.5422191619873047,0.4214448928833008
1772649730938257000,9.0192568359375,-0.3514038026332855,-0.524642288684845,0.4384891092777252
1772649730948260900,9.0292607421875,-0.36898064613342285,-0.49641281366348267,0.42357540130615234
1772649730958265000,9.03926513671875,-0.35033854842185974,-0.46498751640319824,0.3633880317211151
1772649730968269300,9.049269287109375,-0.32104378938674927,-0.4298338294029236,0.265383780002594
1772649730978273500,9.0592734375,-0.27896589040756226,-0.3760380148887634,0.1386174112558365
1772649730988277800,9.06927783203125,-0.2299637645483017,-0.31798115372657776,-0.0003994738217443228
1772649730998282000,9.079281982421875,-0.17989638447761536,-0.28016430139541626,-0.12237215042114258
1772649731008286200,9.0892861328125,-0.12769846618175507,-0.2599242925643921,-0.15326479077339172
1772649731018290200,9.099290283203125,-0.07123950123786926,-0.2258358597755432,-0.09201213717460632
1772649731028294400,9.10929443359375,-0.021172111853957176,-0.18269269168376923,0.016112111508846283
1772649731038298600,9.119298583984374,0.02516685053706169,-0.13475583493709564,0.1002679318189621
1772649731048302800,9.129302734375,0.060320548713207245,-0.09054739773273468,0.11731214821338654
1772649731058307000,9.13930712890625,0.06937528401613235,-0.08415582031011581,0.1045289859175682
1772649731068311800,9.149311767578125,0.06404896825551987,-0.06498107314109802,0.04966791346669197
1772649731078316500,9.159316650390625,0.052863702178001404,-0.04048001393675804,0.017710005864501
1772649731088321300,9.1693212890625,0.023568956181406975,-0.0378168560564518,0.023568956181406975
1772649731098326000,9.179325927734375,-0.012650004588067532,-0.05006738752126694,0.05499422922730446
1772649731108331000,9.1893310546875,-0.04673843830823898,-0.07137265801429749,0.08215844631195068
1772649731118335700,9.199335693359375,-0.06697844713926315,-0.10066740214824677,0.07470160722732544
1772649731128340500,9.209340576171876,-0.07550055533647537,-0.14061477780342102,0.0576573871076107
1772649731138345200,9.21934521484375,-0.07123950123786926,-0.1794968992471695,0.03475422412157059
1772649731148350000,9.229349853515625,-0.054727911949157715,-0.2125200778245926,0.00918789766728878
1772649731158354700,9.239354736328124,-0.028628956526517868,-0.23648850619792938,-0.006791055202484131
1772649731168359400,9.249359375,-0.00519315991550684,-0.2269011288881302,-0.018508953973650932
1772649731178364200,9.2593642578125,0.005992107093334198,-0.22317270934581757,0.00013315794058144093
1772649731188369000,9.269368896484375,0.016112111508846283,-0.2071937620639801,0.031025800853967667
1772649731198373600,9.27937353515625,0.02516685053706169,-0.18748638033866882,0.044341593980789185
1772649731208378600,9.289378662109375,0.0390152782201767,-0.17044216394424438,0.036352116614580154
1772649731218383400,9.29938330078125,0.044341593980789185,-0.15446321666240692,0.02090579643845558
1772649731228388000,9.30938818359375,0.048602648079395294,-0.14860425889492035,0.004394211806356907
1772649731238392800,9.319392822265625,0.06138581037521362,-0.14753900468349457,-0.014780531637370586
1772649731248397600,9.3293974609375,0.05872265249490738,-0.1411474198102951,-0.02809632569551468
1772649731258402300,9.33940234375,0.0624510757625103,-0.15712636709213257,-0.0073236869648098946
1772649731268407000,9.349406982421876,0.047537386417388916,-0.17789900302886963,0.01344895176589489
1772649731278411800,9.359411865234375,0.04966791346669197,-0.19121479988098145,0.03741738200187683
1772649731288416500,9.36941650390625,0.043808963149785995,-0.19014954566955566,0.051798440515995026
1772649731298421500,9.37942138671875,0.031025800853967667,-0.18535585701465607,0.06617949903011322
1772649731308426200,9.38942626953125,0.012383688241243362,-0.16192005574703217,0.052331071346998215
1772649731318431000,9.399430908203126,-0.001997369108721614,-0.14061477780342102,0.031558431684970856
1772649731328435700,9.409435791015625,-0.01038631983101368,-0.13315793871879578,0.004926843568682671
1772649731338440400,9.4194404296875,-0.012516846880316734,-0.11984214931726456,-0.017443690448999405
1772649731348445200,9.429445068359374,-0.0029294746927917004,-0.11451582610607147,-0.037683695554733276
1772649731358450000,9.439449951171875,0.009321056306362152,-0.09587371349334717,-0.05259738489985466
1772649731368454700,9.44945458984375,0.0189084280282259,-0.08681897819042206,-0.06751107424497604
1772649731378459600,9.459459716796875,0.025300009176135063,-0.09214529395103455,-0.06271739304065704
1772649731388464400,9.46946435546875,0.027963167056441307,-0.09267792850732803,-0.054727911949157715
1772649731398469000,9.47946923828125,0.027963167056441307,-0.09534108638763428,-0.05099949240684509
1772649731408473900,9.489473876953125,0.027963167056441307,-0.09960214048624039,-0.04727106913924217
1772649731418478600,9.499478515625,0.0189084280282259,-0.09747160971164703,-0.041944749653339386
1772649731428483300,9.5094833984375,0.016245268285274506,-0.08415582031011581,-0.04780369997024536
1772649731438488000,9.519488037109374,0.008788423612713814,-0.06977476179599762,-0.05206475406885147
1772649731448492800,9.529492919921875,0.006125265266746283,-0.05379580706357956,-0.05313001945614815
1772649731458497500,9.53949755859375,0.009853687137365341,-0.022903166711330414,-0.0600542314350605
1772649731468502300,9.549502197265625,0.01038631983101368,0.005858949385583401,-0.06538055092096329
1772649731478507000,9.559507080078125,0.008255792781710625,0.030892642214894295,-0.06271739304065704
1772649731488512000,9.569511962890624,-0.0007989476434886456,0.04154527932405472,-0.06165212765336037
1772649731498516700,9.579516845703125,-0.010918950662016869,0.05699159950017929,-0.05739107355475426
1772649731508521500,9.589521484375,-0.011984214186668396,0.05805686116218567,-0.04460791125893593
1772649731518526200,9.599526123046875,-0.009321056306362152,0.055393703281879425,-0.03715106472373009
1772649731528531000,9.609531005859376,-0.004127896390855312,0.055926334112882614,-0.03448790684342384
1772649731538535700,9.61953564453125,0.006524738855659962,0.070840023458004,-0.04301001504063606
1772649731548540400,9.62954052734375,0.011851056478917599,0.08362318575382233,-0.049934227019548416
1772649731558545200,9.639545166015624,0.017710005864501,0.09108003228902817,-0.02809632569551468
1772649731568550000,9.6495498046875,0.02090579643845558,0.11025477200746536,-0.03289001062512398
1772649731578554600,9.6595546875,0.015579478815197945,0.11025477200746536,-0.02809632569551468
1772649731588559400,9.669559326171875,0.012383688241243362,0.10173266381025314,-0.01531316339969635
1772649731598564000,9.679564208984376,0.011851056478917599,0.0894821360707283,-0.014247899875044823
1772649731608568800,9.68956884765625,0.016112111508846283,0.07616633921861649,-0.012650004588067532
1772649731618573600,9.699573486328125,0.027297377586364746,0.07776423543691635,-0.030759483575820923
1772649731628578300,9.709578369140624,0.032091062515974045,0.08681897819042206,-0.05206475406885147
1772649731638583000,9.7195830078125,0.031025800853967667,0.09693898260593414,-0.08135949820280075
1772649731648587800,9.729587890625,0.02516685053706169,0.1038631945848465,-0.11065424978733063
1772649731658592500,9.739592529296875,0.02090579643845558,0.1177116185426712,-0.10532793402671814
1772649731668597200,9.74959716796875,0.018242638558149338,0.10918951034545898,-0.0739026591181755
1772649731678602000,9.75960205078125,0.005992107093334198,0.11132004112005234,-0.06378265470266342
