time,seconds_elapsed,z,y,x
1772648267406926800,0.0689267578125,-0.47718642734438177,-0.15940438001453874,-0.14462795890420674
1772648267416968000,0.078968017578125,-0.6095423491746187,-0.08320727551877498,-0.12045308339484036
1772648267427008000,0.089008056640625,-0.33305268169790503,-0.15923545318841933,-0.0668291183002293
1772648267437048800,0.099048828125,-0.14460077863633633,-0.30370529892146586,-0.015778876151144504
1772648267447089000,0.1090888671875,-0.26964842327982186,-0.2979337297827005,-0.015325214099511503
1772648267457130000,0.1191298828125,-0.2729512642174959,-0.1909744072765112,0.03950871130675077
1772648267467170000,0.129170166015625,-0.21726561735272407,-0.14092764308154582,0.039899829516187306
1772648267477211000,0.1392109375,-0.28558365903645755,-0.08356324934959411,-0.09811842892467976
1772648267487251000,0.1492509765625,-0.26626930223554374,-0.018353987336158752,-0.24287848977595566
1772648267497292000,0.1592919921875,-0.189486506806314,-0.026415128716826438,-0.2975893002592027
1772648267507333000,0.1693330078125,-0.06512070694714785,-0.10903320617079734,-0.33561427581422026
1772648267517373000,0.179373046875,-0.10427344442307948,-0.13971066850721836,-0.46073009032309054
1772648267527413800,0.189413818359375,-0.07346446466147899,-0.08245207323729992,-0.48612157508060333
1772648267537453800,0.199453857421875,-0.049689621320366854,-0.05946399635970592,-0.48562312403917307
1772648267547495000,0.209494873046875,0.08401976094543934,-0.07973521549403667,-0.43550227169468997
1772648267557535000,0.219534912109375,0.11316226879954337,-0.09471534248292446,-0.33795324015580114
1772648267567575800,0.229575927734375,0.04975099611878395,-0.08266074755191803,-0.28557817914374173
1772648267577616000,0.239615966796875,0.21046587421000001,-0.0818815798729658,-0.1290466511517763
1772648267587657000,0.249656982421875,0.5811906994372605,-0.25511048710048195,0.16891389357261358
1772648267597698000,0.259697998046875,0.5501987643241882,-0.342319983997941,0.4663475648786872
1772648267607738000,0.269738037109375,0.4910606389179826,-0.22631693881452083,0.6453859621025622
1772648267617779000,0.279779052734375,0.48071489373147486,-0.027290742507576942,0.7231430824566633
1772648267627818800,0.28981884765625,0.5592527161344886,0.08945756808519363,0.7519574543349444
1772648267637859800,0.29985986328125,0.41439854725897307,0.1163116727411747,0.8221982077095658
1772648267647900000,0.30989990234375,0.318865750913322,0.11218728628754615,0.6888659881930798
1772648267657941000,0.31994091796875,0.2944076014831662,0.08806640598773956,0.5384711363252253
1772648267667980800,0.329980712890625,0.19197393970787524,0.03812485573291778,0.3919092867489904
1772648267678022000,0.34002197265625,-0.000943126069009304,0.011503390789031983,0.24498203792646525
1772648267688063000,0.35006298828125,-0.3178215025573969,0.010054361024498939,0.2592286630090326
1772648267698103000,0.36010302734375,-0.5031912216946482,0.021914310166239737,0.27786504748314617
1772648267708143900,0.370143798828125,-0.5246484357431531,0.004093406793475151,0.27587051266506313
1772648267718184000,0.380183837890625,-0.41436785985976454,-0.05486497813165187,0.3040872109111398
1772648267728225000,0.39022509765625,-0.3485442653402686,-0.1853787792265415,0.385964772196114
1772648267738265000,0.40026513671875,-0.4096811633482575,-0.3487760282695293,0.5720002617657184
1772648267748306000,0.410305908203125,-0.4052113244578242,-0.4433201058387756,0.7851119743093847
1772648267758345700,0.420345703125,-0.24891952350586652,-0.5251379728257656,1.052964600213617
1772648267768386800,0.43038671875,-0.09265577960461377,-0.6504863539814949,1.3158191255696117
1772648267778427000,0.440427001953125,-0.014286299505829811,-0.7725491375952959,1.495460384057462
1772648267788468000,0.450468017578125,0.11222557247132062,-0.8279968840509653,1.5875398250788448
1772648267798508800,0.4605087890625,0.1328857909232378,-0.8412269525021314,1.6478186449527739
1772648267808548900,0.470548828125,0.11078209566473961,-0.8330173425614833,1.692444260881841
1772648267818590000,0.48058984375,0.10038988098800182,-0.7763029371708631,1.5816788240909576
1772648267828630000,0.490630126953125,0.12990239119827746,-0.6799877582758664,1.4014537743657827
1772648267838670800,0.5006708984375,0.12035773326158523,-0.5816109706759452,1.1779266124002634
1772648267848711000,0.5107109375,0.07192074235081672,-0.4656739764660597,0.9915813262291252
1772648267858752000,0.520751953125,-0.05516249977350235,-0.36428222495913504,0.9339224795952439
1772648267868791800,0.530791748046875,-0.02273030272424221,-0.3270961113810539,0.8598061268962919
1772648267878833000,0.5408330078125,-0.09320639922469853,-0.3248521318465471,0.7517180926211178
1772648267888873700,0.550873779296875,-0.22110621842890976,-0.21549159341752527,0.5820493620932102
1772648267898913800,0.560913818359375,-0.2458221420124173,-0.1139367603033781,0.3915926950804889
1772648267908955000,0.570954833984375,-0.30962592114210125,-0.10609949080646038,0.21973113068342207
1772648267918995000,0.580994873046875,-0.40516514722853897,-0.15887012700736522,0.15497764961346983
1772648267929035800,0.591035888671875,-0.4328226772218942,-0.28490006068646906,0.12203677238970995
1772648267939075600,0.60107568359375,-0.3711934656523168,-0.3656593585312366,0.07579261534810065
1772648267949116700,0.61111669921875,-0.3326541838996112,-0.4302969581365585,0.15964140364080667
1772648267959156700,0.62115673828125,-0.3030284225732088,-0.4982569801628589,0.34244127229005095
1772648267969197800,0.63119775390625,-0.3776823892802,-0.5754857657939195,0.5523870681487023
1772648267979238000,0.64123779296875,-0.4020815019994974,-0.6321428880393505,0.6944520446971059
1772648267989278700,0.65127880859375,-0.3828922328829765,-0.6909434520542621,0.8236858159188181
1772648267999319800,0.66131982421875,-0.29654943581745025,-0.7285597737431526,0.9359912486933171
1772648268009360000,0.67135986328125,-0.2293681430786848,-0.7515034269571303,1.0384525291278959
1772648268019401000,0.68140087890625,-0.18010054656267166,-0.7711912932455539,1.1725585094958544
1772648268029440800,0.691440673828125,-0.2177045932918787,-0.7207295185089111,1.3773226649329064
1772648268039481900,0.70148193359375,-0.2860398783713579,-0.5725982276588678,1.574719798733294
1772648268049521700,0.711521728515625,-0.24518705897927282,-0.40930677707791324,1.6490004020832478
1772648268059563000,0.72156298828125,-0.16226678370833397,-0.34655192247927186,1.6642647528409957
1772648268069602800,0.731602783203125,-0.0943855260066688,-0.3161988697916269,1.6603057860821484
1772648268079643600,0.7416435546875,-0.07901625356972217,-0.31859307145178317,1.6309280081674455
1772648268089684700,0.751684814453125,-0.10146773935258388,-0.3529693883061409,1.556205652399361
1772648268099724800,0.761724853515625,-0.17442118575200438,-0.35044659183025356,1.4254749936833977
1772648268109766000,0.771765869140625,-0.2302247599080205,-0.36218496041893955,1.352864223241806
1772648268119805700,0.7818056640625,-0.3674897888287902,-0.39765667129456994,1.321854752472043
1772648268129846800,0.7918466796875,-0.4540966436579823,-0.4193009323477745,1.2676719113856554
1772648268139886800,0.801886962890625,-0.49129883158802984,-0.4035317008078098,1.2006653906919063
1772648268149928000,0.811927978515625,-0.46093818011581894,-0.3863724762141704,1.2142943953327834
1772648268159968000,0.821968017578125,-0.49545185961425303,-0.32946050242483615,1.3618649835601448
1772648268170008800,0.8320087890625,-0.4550093745887279,-0.10826514440774918,1.527374402451515
1772648268180048600,0.842048583984375,-0.3217896755360067,0.27476035946607585,1.5234375013940036
1772648268190089700,0.85208984375,-0.46582244502604003,0.7779998042166233,1.5108961458593606
1772648268200130800,0.862130859375,-0.4805323767714202,1.209556991547346,1.6349549255959688
1772648268210170600,0.872170654296875,-0.3947216407559812,1.5300088426083325,1.7925170387446878
1772648268220211700,0.882211669921875,-0.3765558694683015,1.7932839314639568,1.776627103434503
1772648268230251800,0.892251708984375,-0.3180241855226457,1.9156243629753589,1.656753208167106
1772648268240292900,0.90229296875,-0.2260150332584977,1.8488444906443355,1.581923300371319
1772648268250333000,0.9123330078125,-0.22889278065189717,1.7083499782830476,1.3786159196138381
1772648268260373800,0.922373779296875,-0.25133432956263424,1.4766490083426236,1.0154906096048653
1772648268270413800,0.932413818359375,-0.231205733769387,1.220612638568878,0.6956856781452894
1772648268280455000,0.942454833984375,-0.13195873920619486,1.0110504352003336,0.47381811995506284
1772648268290495000,0.952494873046875,-0.08867182453498244,0.9145902948766946,0.29636925694495436
1772648268300535800,0.962535888671875,-0.0022325813576579093,0.9065075261861085,0.1366637020267546
1772648268310577000,0.972576904296875,0.2097486658513546,0.8621879074662924,-0.0716876642473042
1772648268320616700,0.98261669921875,0.5085059869766235,0.7486386851757765,-0.3159185915455222
1772648268330657800,0.99265771484375,0.7777513824135065,0.6124141052186489,-0.5886595740132033
1772648268340697900,1.00269775390625,0.8027771025985478,0.39139468829035756,-0.8525200615413486
1772648268350738700,1.01273876953125,0.7019722110688686,0.2480722590267658,-1.1535536570355296
1772648268360778800,1.02277880859375,0.6113761404730379,0.24527239917516708,-1.4954302811801432
1772648268370819800,1.03281982421875,0.5819326038457453,0.2950333321660757,-1.7267501428484915
1772648268380860000,1.04285986328125,0.36923107953816653,0.27252164062857626,-1.8023071958750485
1772648268390900700,1.052900634765625,0.005042962603271008,0.21580606619417667,-1.7679253260627388
1772648268400941800,1.06294189453125,-0.30529680589661,0.12206453717947005,-1.715243098797649
1772648268410982000,1.07298193359375,-0.5330588289529085,0.04033201038837433,-1.7148922395333648
1772648268421023000,1.08302294921875,-0.6806473912283778,0.1869131491869688,-1.6962581200815736
1772648268431062800,1.093062744140625,-0.7097285242840647,0.39388533606231213,-1.515653715649992
1772648268441103600,1.103103515625,-0.5513824211508035,0.4819973347574472,-1.2829029443956912
1772648268451143700,1.113143798828125,-0.43116205053329465,0.44901744069755073,-1.0163399199105798
1772648268461184800,1.123184814453125,-0.42701691355258226,0.36927111928761003,-0.7305855804823339
1772648268471224800,1.133224853515625,-0.27519144435971976,0.26745383584499355,-0.474875227792561
1772648268481265700,1.143265625,-0.11166121658682822,0.10628653781116008,-0.38515126385614273
1772648268491305700,1.1533056640625,-0.12073445761948823,-0.06520458583831787,-0.2688531812489033
1772648268501346800,1.163346923828125,-0.16026654980182647,-0.21930384518206117,-0.22769641047418115
1772648268511388000,1.173387939453125,-0.08946458234786987,-0.20513035840094088,-0.2672510067492723
1772648268521428000,1.183427978515625,0.21027911946624517,-0.2807978860646486,-0.3100454617284238
1772648268531468800,1.19346875,0.29199381833970545,-0.6802455324292183,-0.2990614186383784
1772648268541508900,1.2035087890625,0.23792846615314484,-1.1605623667538165,-0.29322379852607844
1772648268551550000,1.213550048828125,0.21642507487535476,-1.5730845987468958,-0.2848475998468697
1772648268561589800,1.22358984375,0.11441723729670047,-1.909835258179903,-0.3507710014790296
1772648268571630600,1.233630615234375,-0.0031806758627295493,-1.9877222154587506,-0.4090661001898348
1772648268581670700,1.243670654296875,-0.0638309593975544,-1.8441022645533083,-0.4428104027509689
1772648268591711700,1.253711669921875,-0.2106499986052513,-1.5464543659746646,-0.3327862858466804
1772648268601752800,1.2637529296875,-0.3235647223845124,-1.3318722886174916,-0.27219883841499687
1772648268611793000,1.27379296875,-0.472986053045094,-1.1260451801240443,-0.26517522338852284
1772648268621833700,1.283833740234375,-0.5068652340322732,-0.9811603238493204,-0.2162337900869548
1772648268631873800,1.293873779296875,-0.4689572359204292,-0.864085265520215,-0.19826485654562712
1772648268641915000,1.303914794921875,-0.49063949089646336,-0.876383021557331,-0.17208455949798226
1772648268651955000,1.313954833984375,-0.46746875092834234,-1.0024076945394278,-0.22380904764682052
1772648268661995800,1.323995849609375,-0.4346095606386661,-1.0608850179493428,-0.24358269252255557
1772648268672035600,1.33403564453125,-0.44513855343759057,-1.079538280493021,-0.26710516853779553
1772648268682076700,1.34407666015625,-0.5075450329899788,-1.0984575004965067,-0.24734452927410602
1772648268692116700,1.35411669921875,-0.5811009753271937,-1.039302716216445,-0.2188002795740962
1772648268702157800,1.36415771484375,-0.6273696822881698,-0.8894500084012746,-0.13210983811467886
1772648268712198700,1.37419873046875,-0.7399436298057437,-0.81221011685431,-0.004299596890062094
1772648268722238700,1.38423876953125,-0.741226070831716,-0.8236030330061912,0.21513883445709941
1772648268732279800,1.39427978515625,-0.6624994478583336,-0.7898159142166375,0.4889772567726671
1772648268742319900,1.40431982421875,-0.5888093577474355,-0.8124164530813693,0.6007989246182144
1772648268752360700,1.414360595703125,-0.6403101201429963,-1.001875779619813,0.5197974885806441
1772648268762400800,1.42440087890625,-0.9264794701129198,-1.0459078135699034,0.42391149488314983
1772648268772441900,1.43444189453125,-1.2913950245395303,-0.8217465914845467,0.33061157215610143
1772648268782482000,1.44448193359375,-1.4902026096597314,-0.41130759550631046,0.3906457696191966
1772648268792523000,1.45452294921875,-1.3890887983113527,-0.22882629128694532,0.6099241880990565
1772648268802563800,1.464563720703125,-1.3133379762783646,-0.1133966620773077,0.8125548386387527
1772648268812603600,1.474603759765625,-1.1811913132846354,-0.044502574071288103,0.9693725631609559
1772648268822644700,1.484644775390625,-0.9918608738228678,0.02809212201833725,1.1159783980093896
1772648268832684800,1.494684814453125,-1.0616495725810526,-0.010355974319577216,1.328543290325254
1772648268842725600,1.5047255859375,-1.3269640583097935,-0.2501362058192491,1.3565773985460399
1772648268852765700,1.514765625,-1.5960130543917417,-0.5262731143355369,1.2886017405591905
1772648268862806800,1.524806884765625,-1.9351552851364016,-0.7733487635403871,1.1648429666824638
1772648268872846800,1.534846923828125,-2.2024092144951224,-0.973684288880229,1.004372564871609
1772648268882888000,1.544887939453125,-2.521372288303077,-1.155270690086484,0.9088247170872986
1772648268892928000,1.554927978515625,-2.7342697735741734,-1.082054062706232,0.6836044874683022
1772648268902968800,1.56496875,-2.229708140309155,-0.3319377061933279,0.25812267452850934
1772648268913010000,1.575010009765625,-0.8588233994692563,1.0716863979488611,-0.38307080432027574
1772648268923049700,1.5850498046875,-1.1373951339170336,2.539725983378291,-0.6060287880957126
1772648268933091300,1.59509130859375,-1.340555069027841,4.0490339832633735,-0.5153212199494243
1772648268943131100,1.605131103515625,-0.45720834593772886,4.856430562356114,-0.5361252307862043
1772648268953172200,1.615172119140625,0.08592617908865213,4.20047775966227,-0.5084013575583696
1772648268963212300,1.62521240234375,0.34076632481515406,2.615456054884195,-0.7842084495984017
1772648268973253400,1.63525341796875,0.7166133153617381,1.0629834515333174,-1.4276159512348472
1772648268983293200,1.645293212890625,0.9527052137374877,-0.08039046453237533,-1.806107464940846
1772648268993334300,1.655334228515625,0.7127619006305933,-0.7453741304218768,-1.9311751294590531
1772648269003374300,1.665374267578125,0.6287170052438974,-0.9696879127204417,-1.9556296256273984
1772648269013415400,1.67541552734375,0.9829983529314398,-0.9226794933080673,-1.8462524283245205
1772648269023456300,1.685456298828125,1.5386775944933295,-0.786245654514432,-1.6772199498735367
1772648269033496300,1.695496337890625,1.6765967034086584,-0.4751701190859079,-1.4300503387749195
1772648269043537400,1.705537353515625,1.7302806550621985,0.04589490521252155,-1.2193312204562128
1772648269053577200,1.7155771484375,2.0206959720388054,0.637265053358674,-0.9446955102831125
1772648269063618300,1.725618408203125,2.2341119282260538,1.068139519122243,-0.6252849849686026
1772648269073658000,1.735658203125,2.306692011268437,1.1864958494335411,-0.31098186579570175
1772648269083699200,1.74569921875,2.1661592127233744,1.128761453345418,-0.07378098326474428
1772648269093739300,1.7557392578125,1.9667188826575874,1.04334000890851,-0.11407806847020983
1772648269103780400,1.7657802734375,1.7437331340923905,0.8714788829028606,-0.345008346299082
1772648269113820400,1.7758203125,1.6075445022314785,0.6944026525974273,-0.760709938980639
1772648269123861200,1.785861328125,1.4916490090757608,0.441452558401227,-1.172857492442429
1772648269133902300,1.79590234375,1.2330237918525933,0.19588146854043006,-1.3572149657972157
1772648269143942400,1.8059423828125,0.9638400634750723,-0.01681903285384178,-1.38821245386824
1772648269153983200,1.815983154296875,0.7878072047427296,-0.21282266646921633,-1.2558609159521759
1772648269164023300,1.826023193359375,0.5244464834302663,-0.4314198246866464,-0.8494483990110456
1772648269174064400,1.836064453125,0.43305502467304463,-0.7128261980384588,-0.4658336970724165
1772648269184104200,1.846104248046875,0.47729076450169083,-0.9636252516806125,-0.2661741712979972
1772648269194145300,1.856145263671875,0.6609668314635754,-1.1532868227928876,-0.13221636722907423
1772648269204185300,1.866185302734375,0.8819161057651043,-1.2947446272283791,-0.01528846228569746
1772648269214226200,1.87622607421875,0.9400497303038835,-1.2557137625664472,0.12384849798679351
1772648269224267300,1.886267333984375,1.020423243701458,-1.0666384669095277,0.29200945430025455
1772648269234307300,1.896307373046875,1.0248287851840256,-0.8406441841781139,0.4331254595607519
1772648269244348200,1.90634814453125,0.8587912507653236,-0.611906740218401,0.5275036790437996
1772648269254388200,1.91638818359375,0.7854092036902904,-0.3758656952470541,0.48824835797622795
1772648269264429300,1.92642919921875,0.6873880976602434,-0.22469489057064054,0.38613311450034377
1772648269274469400,1.936469482421875,0.5455138213783502,-0.10768588321506976,0.32227614387869835
1772648269284510500,1.946510498046875,0.4256456251993775,-0.051716158711910244,0.2888720330573618
1772648269294550500,1.956550537109375,0.3824538414657116,-0.09754735103845595,0.2821115990117192
1772648269304591400,1.96659130859375,0.27953035034686324,-0.21900983067154883,0.2925143350824714
1772648269314631200,1.976631103515625,0.1791869388490915,-0.4115998564511537,0.23864114446714518
1772648269324672300,1.98667236328125,0.10000848045498133,-0.5435322921723127,0.19819398326650262
1772648269334713300,1.99671337890625,0.033033085551857945,-0.5773305168777704,0.1943115888752043
1772648269344753200,2.006753173828125,0.023127485348284245,-0.5865466735124588,0.19561492655873297
1772648269354794200,2.016794189453125,0.022558745549619195,-0.5960410625666379,0.241352303121984
1772648269364834300,2.026834228515625,-0.02979308071732521,-0.6054004270642995,0.33956323263570665
1772648269374875400,2.03687548828125,-0.09461275889128445,-0.5948632509589195,0.47270431349426506
1772648269384915500,2.04691552734375,-0.1192544481948018,-0.5681991159170866,0.6323194136500359
1772648269394956300,2.056956298828125,-0.1611827878639102,-0.5189028778284788,0.7262934362463652
1772648269404996400,2.066996337890625,-0.22318477826863525,-0.4912883101940155,0.7650657961025834
1772648269415037400,2.077037353515625,-0.2723316710144281,-0.5050421102583408,0.7889828243933618
1772648269425077200,2.0870771484375,-0.3037354017987847,-0.47697278459370135,0.8231805698104202
1772648269435118000,2.0971181640625,-0.21523644961267707,-0.3988584482997656,0.8943503476634621
1772648269445159200,2.1071591796875,-0.13096066807955503,-0.32613924904763697,1.015397670624405
1772648269455199200,2.11719921875,-0.10685732343643903,-0.2383873158365488,1.1144608330532908
1772648269465240300,2.127240234375,-0.1356271985858679,-0.09775485630929469,1.13258554167822
1772648269475280400,2.1372802734375,-0.2140834801852703,-0.015194646522402763,1.1483807844422758
1772648269485321200,2.1473212890625,-0.22933161046057937,-0.012977554994821547,1.1450501787148415
1772648269495361300,2.157361328125,-0.2764090034559369,-0.0679436554133892,1.1398289369352161
1772648269505402400,2.16740234375,-0.3616644436761737,-0.20045710589289664,1.1501935329526662
1772648269515442400,2.1774423828125,-0.36430122192054987,-0.35980712537169457,1.046565108434856
1772648269525483300,2.187483154296875,-0.3697875443771481,-0.4668658165991306,0.8822416844576597
1772648269535523300,2.1975234375,-0.3960758318439126,-0.4010176721602678,0.7500714944578707
1772648269545564400,2.207564453125,-0.44512423265129325,-0.23082594067156315,0.8334668398946523
1772648269555605500,2.21760546875,-0.5518690356239676,-0.1050835917621851,1.0275292763143777
1772648269565645300,2.227645263671875,-0.6386848570287227,-0.05723521439433098,1.2699239280961454
1772648269575686100,2.23768603515625,-0.691799776622653,-0.09275953224003314,1.4783011594638227
1772648269585726200,2.247726318359375,-0.6524525394879281,-0.13123510110676287,1.6037977169185875
1772648269595767300,2.257767333984375,-0.610404372831434,-0.10984686064124106,1.6536181250117719
1772648269605807400,2.267807373046875,-0.5697399156183004,-0.10035831680595875,1.7616512142293155
1772648269615848200,2.27784814453125,-0.36133506559133527,-0.04363865071833133,1.931636024969071
1772648269625888300,2.28788818359375,-0.1467259540967643,0.1766173806220293,1.9948612735584377
1772648269635929300,2.297929443359375,-0.5006656487397849,0.5789280152022839,1.7136796488732098
1772648269645969400,2.307969482421875,-0.5363157849222421,1.0974667358934878,1.5927784563846885
1772648269656010500,2.318010498046875,-0.3771918292842805,1.482595934048295,1.5049698245503007
1772648269666051300,2.32805126953125,-0.46545770336687564,1.5448182892054318,1.2484982782296836
1772648269676091100,2.338091064453125,-0.30544892771840093,1.3347148185670374,0.9785418119139969
1772648269686132200,2.34813232421875,0.1759375816643238,1.0816413902521134,0.8998191344633698
1772648269696172300,2.35817236328125,0.5847849245369434,1.0860960315734147,0.828793587386608
1772648269706213000,2.368213134765625,0.908802359125018,1.3521177887886762,0.4151175091832876
1772648269716253200,2.378253173828125,1.2018098845519125,1.5711282039821146,-0.22600553477779028
1772648269726294300,2.388294189453125,1.4241741402179002,1.4956494768887758,-0.8579417943291365
1772648269736334300,2.398334228515625,1.5868299232438206,1.122830894252658,-1.4735165555357932
1772648269746375400,2.40837548828125,1.5518462881460784,0.5258166027396917,-2.0385808805584906
1772648269756416300,2.418416259765625,1.3341352651134133,-0.08677169000208378,-2.547152333986759
1772648269766456300,2.428456298828125,1.1191288248643279,-0.5551403123795986,-2.981319996076822
1772648269776497400,2.438497314453125,0.9169850810587405,-0.7860363956779242,-3.2587375920534134
1772648269786537500,2.448537353515625,0.7165504792585968,-0.8395984745174646,-3.4158950699239967
1772648269796578300,2.458578369140625,0.5277611609362065,-0.6679197193413973,-3.4229581401780247
1772648269806618000,2.4686181640625,0.3433255077786743,-0.2199953345775604,-3.231510562431812
1772648269816659200,2.4786591796875,0.16454831877425313,0.23744740463793276,-2.805588166117668
1772648269826699300,2.48869921875,-0.03331584801599383,0.5448480509459972,-2.3121286493644115
1772648269836740400,2.498740234375,-0.09522022326514125,0.8266074755191802,-1.7492919372633098
1772648269846780400,2.508780517578125,-0.08263327502310276,0.9758160402119159,-1.0400247468806803
1772648269856821200,2.5188212890625,-0.006353752940893173,1.1440589757204056,-0.2679164849206805
1772648269866862300,2.5288623046875,0.01282236443310976,1.232200200510025,0.41254912000000477
1772648269876902400,2.53890234375,-0.1345323890864849,1.2152239312678574,0.8272444582484662
1772648269886943200,2.548943115234375,-0.2256722111701965,1.0609750343203543,1.096866870304197
1772648269896983300,2.5589833984375,-0.06126987673789262,0.8118652489393949,1.0738089430607856
1772648269907024400,2.5690244140625,0.061411623296141624,0.4818628947228193,0.8345759701803326
1772648269917064200,2.579064208984375,-0.08521130881756543,0.13581483011245726,0.4832392976425588
1772648269927105300,2.589105224609375,-0.15857085179984567,-0.1564262409865856,0.10931874511390924
1772648269937144800,2.599144775390625,-0.18834347425103187,-0.406921927767992,-0.09111980220898985
1772648269947185700,2.609185546875,-0.1326399994686246,-0.5155430460065603,-0.3394305461667478
1772648269957226800,2.619226806640625,-0.13669745816588402,-0.4505453809171915,-0.35342005468308924
1772648269967266600,2.6292666015625,-0.22463936099112033,-0.5161445190310477,-0.33167686330005525
1772648269977308000,2.639307861328125,-0.17528730106204748,-0.748704736149311,-0.4072255868896842
1772648269987347700,2.64934765625,-0.01727963610291481,-1.0535971990287303,-0.28297259975522754
1772648269997388500,2.659388427734375,-0.11884352930635213,-1.290261344334483,-0.16574468895196914
1772648270007428600,2.6694287109375,-0.1006327498331666,-1.2977058151215315,-0.14194675699621437
1772648270017469700,2.6794697265625,-0.08167056747078895,-1.221854747584462,-0.05658814866244793
1772648270027509800,2.689509765625,-0.12812281430512665,-1.136823763769865,-0.0474580628760159
1772648270037550600,2.699550537109375,-0.1804372311711311,-1.0676724861323832,-0.09808321148082613
1772648270047590700,2.709590576171875,-0.31063305235803124,-1.3925707952082156,-0.24191285961419343
1772648270057631700,2.7196318359375,-0.4068234358295798,-1.4466788174927234,-0.1480585178747773
1772648270067672800,2.7296728515625,-0.4787839256688952,-1.4836188473552465,-0.004951046536117792
1772648270077713000,2.739712890625,-0.482872364026308,-1.5851666662067174,0.12577683570086956
1772648270087753700,2.749753662109375,-0.4251163406282663,-1.6640040560781955,0.24985008235424755
1772648270097793500,2.75979345703125,-0.4861369187802076,-1.5677297937154768,0.40859234519824383
1772648270107834600,2.769834716796875,-0.5820584221825004,-1.6469173121988772,0.3954924789980054
1772648270117874700,2.779874755859375,-0.5350754294723272,-1.5313661024361849,0.47464273421093817
1772648270127915500,2.78991552734375,-0.5969330429702997,-1.1930091768503188,0.5693089768551289
1772648270137955600,2.79995556640625,-0.7082625433847308,-0.8938064500451087,0.5834319024927914
1772648270147996700,2.80999658203125,-0.9173606363728642,-0.5612333685576916,0.5595736186519265
1772648270158036700,2.82003662109375,-1.266025605483353,-0.2597656194299459,0.5051850258603692
1772648270168077800,2.830077880859375,-1.3996931944340467,-0.04368833507895469,0.29728520274609327
1772648270178118700,2.84011865234375,-1.2788649210512637,0.047986909055709834,0.019652794975042343
1772648270188158700,2.85015869140625,-1.1909119123101233,-0.023782442125678063,-0.1353324534229934
1772648270198199800,2.86019970703125,-1.2098925071120261,-0.10063245757222175,-0.08911474599689245
1772648270208239900,2.870239990234375,-1.2133195589512586,-0.2024900730252266,0.05904021798968315
1772648270218280700,2.88028076171875,-1.3568307887852191,-0.2496715109169483,0.32826383998617525
1772648270228320500,2.890320556640625,-1.2662471392795442,-0.39352643962204453,0.3505138118475675
1772648270238361600,2.900361572265625,-0.975823346735537,-0.6895388459533452,0.23058745574057102
1772648270248401700,2.910401611328125,-0.8104913302376866,-1.0932342128902672,0.09089841454327106
1772648270258442800,2.92044287109375,-0.9302987361401319,-1.378045426249504,-0.010996171919256448
1772648270268483600,2.930483642578125,-1.239014848960936,-1.4682961905390024,0.01948416040986776
1772648270278523600,2.940523681640625,-1.4055126943677663,-1.050606200519204,-0.1348261113360524
1772648270288564700,2.950564697265625,-0.6755021372944117,0.1279658701777458,-0.5904670618265867
1772648270298604800,2.960604736328125,-0.32590807064026595,1.7774878119170665,-0.7105442245811223
1772648270308645600,2.970645751953125,-0.9995999436423182,3.6886557800054547,-0.5146271002054215
1772648270318685700,2.980685791015625,-1.075010281674564,5.477478640407323,-0.11142053969874978
1772648270328726800,2.990726806640625,-1.2624042001157998,6.171172267952561,0.6617224721364676
1772648270338766600,3.0007666015625,-1.1862801608562468,5.612423701947927,0.6414411699995398
1772648270348807700,3.0108076171875,-0.9034577832266688,4.242748629158735,0.3327832171067595
1772648270358847700,3.02084765625,-0.7803057430714369,2.634613175296783,-0.12036460139378904
1772648270368888600,3.030888671875,-0.2874170119434595,1.4262813416302202,-0.7192420564301312
1772648270378929700,3.0409296875,0.06360153455585241,0.5995668986052274,-0.9633582713074982
1772648270388969700,3.0509697265625,0.3178568661317229,0.008752046254277229,-1.0445281957797705
1772648270399010600,3.061010498046875,0.8627019944682717,-0.4144201745688915,-1.1268186487145722
1772648270409050600,3.071050537109375,1.336412854656577,-0.7067687976956367,-1.0758489244557916
1772648270419091700,3.081091796875,1.7307772064074873,-0.8381026830017566,-0.9165214090697467
1772648270429131800,3.0911318359375,2.1583836102858185,-0.6958470061868429,-0.8559947519145905
1772648270439172900,3.1011728515625,2.4509540594696997,-0.31687282353043555,-0.7946135237567127
1772648270449212700,3.111212646484375,2.887676666739583,-0.12515490441024302,-0.6652534227415919
1772648270459253800,3.121253662109375,3.2050922188445923,-0.21552315759956836,-0.5048511177308858
1772648270469293600,3.13129345703125,3.316771555610001,-0.38889001199305057,-0.30853330359980463
1772648270479334700,3.141334716796875,3.074986706289649,-0.44539223593771454,-0.15720073249042033
1772648270489375500,3.15137548828125,2.615126969060302,-0.40933775673806666,-0.20412074296697974
1772648270499415600,3.16141552734375,2.304991052569449,-0.29175884054005147,-0.4067348807632923
1772648270509456600,3.17145654296875,2.017800542858243,-0.21093407624363897,-0.7074000813364982
1772648270519496700,3.18149658203125,1.6669173131763935,-0.1422708743840456,-0.9965377795927226
1772648270529537800,3.191537841796875,1.2495733601152896,-0.11639233676195145,-1.1520942520074546
1772648270539577600,3.20157763671875,0.7727738862618804,-0.04722936868667602,-1.141603691522777
1772648270549618700,3.21161865234375,0.43653234539479013,-0.03347907575368881,-0.9867436038743704
1772648270559658800,3.22165869140625,0.5051321266293526,-0.16382687263190746,-0.7048889752984047
1772648270569699800,3.231699951171875,0.5647992443457246,-0.26765666494071483,-0.3608572920117527
1772648270579740700,3.24174072265625,0.7571250662311911,-0.4023030357956886,-0.10673325866535305
1772648270589780500,3.251780517578125,0.8633686416834593,-0.5347732316553593,0.12101546651795506
1772648270599821600,3.261821533203125,0.9242547798007726,-0.6174766493052244,0.3385435341991484
1772648270609861600,3.271861572265625,1.0166586304709315,-0.6975789445459842,0.4891181265480816
1772648270619902700,3.28190283203125,1.0187845365837216,-0.8201163599342107,0.6478278022967279
1772648270629942500,3.291942626953125,0.9504314235866069,-0.9265642257869243,0.7519934024311602
1772648270639983600,3.301983642578125,0.7912237351879478,-0.9642349080115556,0.853311065788567
1772648270650023700,3.312023681640625,0.6874398278474807,-0.9198229348331689,0.8873122657202184
1772648270660064800,3.322064697265625,0.6819082049444317,-0.8671995981484651,0.8388067396178841
1772648270670104800,3.332104736328125,0.6177043205812573,-0.7790788316249847,0.7276585871197283
1772648270680145700,3.342145751953125,0.4895598789662122,-0.6944061597287654,0.5459377458788455
1772648270690186800,3.352186767578125,0.364461380918324,-0.6253729555130004,0.3789309280365705
1772648270700226800,3.362226806640625,0.2575920747831464,-0.5896189205646515,0.20578443839550017
1772648270710268000,3.372267822265625,0.28422201529443264,-0.5540191993951797,0.0844935159370303
1772648270720307700,3.3823076171875,0.20962445494979617,-0.4765297170013189,-0.0015418226145207882
1772648270730348500,3.3923486328125,0.08735504284799099,-0.31761750441789627,0.014348258826136589
1772648270740388600,3.402388671875,0.056250002749264234,-0.17801029628515241,0.09722279525920748
1772648270750429700,3.4124296875,-0.04138356526792049,-0.10105097524523735,0.2967879207484424
1772648270760469800,3.4224697265625,-0.08264993389695882,-0.16410919670462606,0.5196981198593974
1772648270770510600,3.432510498046875,-0.06769231100082397,-0.29935236440896984,0.7452103181622922
1772648270780551700,3.4425517578125,0.03247603619098663,-0.39700726747512816,0.8823318469591438
1772648270790591700,3.452591796875,0.17660773601084948,-0.5321329462796449,1.0003216820456087
1772648270800632800,3.4626328125,0.13362199624329804,-0.6033265433996915,1.1706840939261018
1772648270810672600,3.472672607421875,0.20128361984491347,-0.6037953299552202,1.2792632727190851
1772648270820713700,3.482713623046875,0.33561113400906323,-0.5890431665033101,1.2672849578946828
1772648270830753500,3.49275341796875,0.34146921238750216,-0.4951607677131891,1.1458923286274074
1772648270840794600,3.502794677734375,0.3196256293699145,-0.2490963413774967,0.941977191235125
1772648270850834700,3.512834716796875,0.25264146663844583,-0.0944558147639036,0.7176786065056919
1772648270860875500,3.52287548828125,0.0999354152187705,-0.0465332031160593,0.5370708410732448
1772648270870915600,3.53291552734375,-0.12401713255196808,-0.03790975167751312,0.4346404672335833
1772648270880956700,3.542956787109375,-0.2349848139166832,-0.015377017351984977,0.4010562506049871
1772648270890997800,3.552997802734375,-0.194661863617599,0.05043605577349662,0.39948439817838366
1772648270901037600,3.56303759765625,-0.10092968695312737,0.02127718130648136,0.5323615674037486
1772648270911078700,3.57307861328125,-0.05572364078760147,-0.11509937434196471,0.7809730478737503
1772648270921118700,3.58311865234375,-0.14254793775975702,-0.24111527949571607,1.1874943589515983
1772648270931159800,3.593159912109375,-0.23524024998247622,-0.2861626279681921,1.6543388405017554
1772648270941200400,3.603200439453125,-0.30319968748688697,-0.33057518566846844,2.0003138398759064
1772648270951241500,3.613241455078125,-0.30674452048689127,-0.33859365695118904,2.22359082647264
1772648270961281500,3.623281494140625,-0.3056599401205778,-0.25308979492783545,2.449331134442985
1772648270971322600,3.633322509765625,-0.29514848297834395,-0.13721417551636694,2.6622633987665174
1772648270981362400,3.643362548828125,-0.16439181303828954,0.06913666459023952,2.806865638707578
1772648270991403300,3.6534033203125,0.13182546821534633,0.4312093968063593,2.8877690211981535
1772648271001444400,3.6634443359375,0.01681903285384178,0.928718773472309,2.596860075485706
1772648271011484400,3.673484375,-0.047937224695086475,1.4515928930193185,2.290149895659834
1772648271021525500,3.683525390625,-0.04921674311161041,1.8252450038701296,2.1765927823238074
1772648271031565300,3.6935654296875,-0.12607245764657854,2.0996827072530984,1.801302987268567
1772648271041606400,3.7036064453125,-0.16611469130814074,2.1013830814301966,1.4053700710266828
1772648271051646500,3.713646484375,0.029949148061871527,1.8961451710015533,1.2324921691939235
1772648271061687600,3.7236875,0.23974077627211807,1.6463362974405287,1.1088039763353765
1772648271071727600,3.7337275390625,0.2889231787227094,1.4303992983430622,0.7588073202297091
1772648271081768400,3.7437685546875,0.3887050108149647,1.2635931176394224,0.25169366439431906
1772648271091809500,3.7538095703125,0.648248219665885,1.0497013606339693,-0.25923794229403135
1772648271101849300,3.763849365234375,0.9128279613792896,0.6755991679280996,-0.7065393728539348
1772648271111890400,3.773890380859375,1.2001561259955167,0.1363099201530218,-1.1282561341717838
1772648271121930200,3.78393017578125,1.4841203671365975,-0.36125732418000694,-1.5667466278970241
1772648271131971300,3.793971435546875,1.5686013158529997,-0.7595733361661434,-1.9550969800554214
1772648271142011400,3.804011474609375,1.2953186277240514,-1.0638450367987156,-2.20022704815045
1772648271152052500,3.814052490234375,0.9564180967807769,-1.1756330946356057,-2.4225271525390446
1772648271162092500,3.824092529296875,0.5878694465488195,-1.1710463513672351,-2.6180174298048016
1772648271172133400,3.83413330078125,0.20527911922186612,-0.9970406145483255,-2.699698518669605
1772648271182173400,3.84417333984375,-0.10061696774214506,-0.6512234360843896,-2.605588740864396
1772648271192214500,3.854214599609375,-0.2456339259639382,-0.26383447630405427,-2.386076659759134
1772648271202255400,3.86425537109375,-0.219826407751441,0.2666957109540701,-2.12022675197944
1772648271212295400,3.87429541015625,-0.06022036768496036,0.847456786802411,-1.7515061061814425
1772648271222336500,3.88433642578125,0.10381430247873068,1.2971101873159407,-1.1926559794984757
1772648271232376300,3.894376220703125,0.14446137016564606,1.6556471466213463,-0.52074704439044
1772648271242417400,3.90441748046875,0.12599836949706078,1.9124094925820827,0.11328750261440873
1772648271252457500,3.91445751953125,0.10202186610400676,1.9835247637689113,0.5925520514070988
1772648271262498300,3.924498291015625,0.00032061025649309156,1.9312842889219521,0.8337197917424142
1772648271272538400,3.934538330078125,-0.11753624610006809,1.703475650244951,0.74437503638193
1772648271282579500,3.944579345703125,-0.19689970567226409,1.3212217152655124,0.452373034735769
1772648271292620500,3.95462060546875,-0.27548224399983884,0.9976929409772157,0.2080798558562994
1772648271302660400,3.964660400390625,-0.17954817337691784,0.5916349365621805,-0.06054492346420884
1772648271312701400,3.974701416015625,-0.10752134030312299,0.2948340102016926,-0.3759872758001089
1772648271322741500,3.984741455078125,0.017855682425200938,0.09205284527540207,-0.5319501370586455
1772648271332782600,3.994782470703125,0.07161796001195907,-0.3174573454201221,-0.5004052442379295
1772648271342822400,4.004822509765625,0.1855056204766035,-0.8392249650299548,-0.5205889312192797
1772648271352863200,4.01486328125,0.34123277328312396,-1.1865361814439297,-0.521096734610945
1772648271362903300,4.0249033203125,0.4230366117447614,-1.4071043474733829,-0.44285643384978174
1772648271372944400,4.0349443359375,0.34120559301525355,-1.4985837767750023,-0.28321532246991993
1772648271382984400,4.044984375,0.2510439683139324,-1.3846078535050153,-0.10520604909807443
1772648271393025300,4.055025390625,0.12207973474860191,-1.0706915416926146,0.07602905445247889
1772648271403066400,4.06506640625,-0.02640665314942598,-0.7990864313870668,0.20522139768525957
1772648271413106400,4.0751064453125,-0.18402005809396504,-0.7417898421943188,0.2267116372205317
1772648271423147500,4.0851474609375,-0.24567571927905082,-0.7876835783630609,0.12353577877581119
1772648271433187600,4.0951875,-0.14149638288021088,-0.8753016560614109,-0.1531046953484416
1772648271443228400,4.105228515625,0.04558773895949125,-1.2465911294341088,-0.5447333385251462
1772648271453268500,4.1152685546875,0.16498188788592816,-1.4826806897222995,-0.6897256006971001
1772648271463309600,4.1253095703125,0.19740385580211878,-1.7178636565595864,-0.6715956313751638
1772648271473349400,4.135349365234375,0.06791852097213268,-1.8911434171915054,-0.51922217291072
1772648271483390200,4.14539013671875,-0.034330724146962165,-1.91301155012846,-0.41759997364878654
1772648271493431300,4.155431396484375,-0.2325748301655054,-1.7737240754693746,-0.3307166399657726
1772648271503471400,4.165471435546875,-0.2894721909075975,-1.5460510458707808,-0.30291137206479907
1772648271513512400,4.175512451171875,-0.26801673042476176,-1.22963590297997,-0.2328833115927875
1772648271523552500,4.185552490234375,-0.16851210783869028,-0.8388941256403922,-0.16597177570611238
1772648271533593300,4.19559326171875,-0.10756167231351137,-0.46175475719571113,-0.16385302998647092
1772648271543633400,4.20563330078125,-0.277257436978817,-0.11164660353958607,-0.12673194446861744
1772648271553674500,4.215674560546875,-0.5890566105067729,0.24870588075518607,-0.02676788767725229
1772648271563714600,4.225714599609375,-0.7682850504100323,0.5380886398136615,0.0944463162831962
1772648271573755400,4.23575537109375,-0.7168231587201357,0.6382067181229591,0.1943796856753528
1772648271583795200,4.245795166015625,-0.6205851367145776,0.6945259867161512,0.5309495817139744
1772648271593836500,4.25583642578125,-0.7310998136147856,0.688817545941472,0.8802459805957973
1772648271603877600,4.265877685546875,-0.9975079397991299,0.7021048975378275,1.2138538119584321
1772648271613917400,4.27591748046875,-1.0718173308521508,0.680249624082446,1.3272609954297543
1772648271623958300,4.285958251953125,-1.0627475969508289,0.45608898651897906,1.1705838484220206
1772648271633998300,4.295998291015625,-1.0271294633418322,0.05791559787392616,0.8651387200959026
1772648271644039400,4.306039306640625,-1.1130252472922206,-0.3741653210699558,0.6361934786044061
1772648271654079500,4.31607958984375,-1.211823182913661,-0.8412246144145726,0.528615293547511
1772648271664120300,4.326120361328125,-1.4179729474902152,-1.1944932779282331,0.4843666942372918
1772648271674160400,4.336160400390625,-1.5949015860185025,-1.3434709564745426,0.4545379576846957
1772648271684201500,4.346201416015625,-1.5401625723540782,-1.2463514754593372,0.27307883611992
1772648271694242600,4.35624267578125,-1.3685279485806823,-0.7608657140642404,0.015929975059628485
1772648271704282600,4.36628271484375,-0.6293757614135742,0.06863280672132968,-0.48447585370019075
1772648271714323500,4.376323486328125,-0.0614735826164484,0.8433540276587009,-0.8498584411166608
1772648271724363300,4.38636328125,-0.187604638582468,1.8000673079937695,-0.6694527741275728
1772648271734404400,4.396404296875,-0.6009995617568492,3.04391352263391,-0.2688441211596131
1772648271744444400,4.4064443359375,-0.6135661978632211,3.5538650322437286,-0.415687418025732
1772648271754485200,4.4164853515625,-0.4721779515326023,3.0013644207179544,-0.9079843207404017
1772648271764525300,4.426525390625,-0.4782330137878656,2.0535440564125773,-1.457382874597609
1772648271774566400,4.43656640625,-0.20908289541900157,1.232295477578044,-1.988170105356723
1772648271784607500,4.446607421875,0.15874796193242072,0.6474047545790672,-2.3075177945680916
1772648271794647600,4.4566474609375,0.44475773742645974,0.23394027329981326,-2.3661954628556967
1772648271804688400,4.4666884765625,0.6898503961205482,-0.061408700686693185,-2.139904973656684
1772648271814728400,4.476728515625,0.9171849875450133,-0.23758593632578848,-1.8224318461455404
1772648271824769500,4.48676953125,1.2967644426181912,-0.286503988751769,-1.4084079774178564
1772648271834809600,4.4968095703125,1.6338558783128856,-0.2546305946290493,-0.923305662382394
1772648271844850400,4.506850341796875,1.9307538353070615,-0.1749608455866575,-0.3074617288455367
1772648271854890200,4.51689013671875,2.2610484504684805,-0.09253566035628319,0.18087503806650637
1772648271864931300,4.526931396484375,2.367365383417904,0.012591186025738716,0.5742245136864483
1772648271874971400,4.536971435546875,2.275382096247375,0.301998495003581,0.7994006119027733
1772648271885012500,4.547012451171875,2.179457377974689,0.665613195964694,0.8687037191011011
1772648271895053300,4.55705322265625,2.0360130758970976,0.853462164697051,0.6914008404329419
1772648271905093400,4.56709326171875,1.634343661829829,0.739950351807475,0.21651479898542164
1772648271915134500,4.577134521484375,1.2844585032746194,0.6080927348881959,-0.37453298533856866
1772648271925174500,4.587174560546875,1.004583577273786,0.47322190762758254,-0.8007366828121244
1772648271935215400,4.59721533203125,0.6975672541081905,0.3335778746157884,-1.0471507993683218
1772648271945255200,4.607255126953125,0.269280759011209,0.13446926072239876,-1.1971909925796091
1772648271955296300,4.617296142578125,0.28127544044852254,-0.16598960362374782,-1.0990199566848575
1772648271965336300,4.62733642578125,0.3177843854174018,-0.5855453875154256,-0.8576616622135043
1772648271975377400,4.63737744140625,0.39133360575288534,-0.9465005138784647,-0.6917052302069961
1772648271985418200,4.647418212890625,0.5270280243560671,-1.1689479177832602,-0.472822825307399
1772648271995458300,4.657458251953125,0.756209704951942,-1.2561609218120575,-0.16875965285897254
1772648272005499400,4.66749951171875,0.8357552430927753,-1.2426502828538417,0.1572822732940316
1772648272015539500,4.67753955078125,0.9282751213580369,-1.0707739592790604,0.39453985444828865
1772648272025580300,4.687580322265625,0.8711205709844827,-0.8113000162720679,0.5839661554999649
1772648272035620000,4.6976201171875,0.7979998051941395,-0.6028378830999136,0.7114953878261149
1772648272045661200,4.7076611328125,0.7342226218104362,-0.4438754016339779,0.6318266616970301
1772648272055701200,4.717701171875,0.5974050443962216,-0.3346300140172243,0.48044411396607756
1772648272065742300,4.727742431640625,0.5228907784208655,-0.2584294023901224,0.26502617030665276
1772648272075783200,4.737783203125,0.39873920583426953,-0.2592173378974199,0.1632926196247339
1772648272085823200,4.7478232421875,0.3257005653694272,-0.32565292683541774,0.13601941277384758
1772648272095864300,4.7578642578125,0.21802081963419914,-0.39934184790253635,0.17316358690634368
1772648272105904400,4.767904296875,0.08996113369315863,-0.4698030390948057,0.22993702900782226
1772648272115945200,4.7779453125,0.03869154970496893,-0.5527104548841715,0.2891775918751955
1772648272125985300,4.7879853515625,-0.004388005825877189,-0.6027303310722112,0.35703327674418683
1772648272136026400,4.7980263671875,-0.02514145551919937,-0.683582567897439,0.4143776506014168
1772648272146067500,4.8080673828125,-0.017179975120723247,-0.7819967648983002,0.47913843819499013
1772648272156107300,4.818107177734375,0.16710165651887654,-0.8799936132699251,0.6594571575529873
1772648272166148000,4.828148193359375,0.16508856313079595,-0.9438514606744051,0.8493282797627151
1772648272176188200,4.838188232421875,0.1448112065166235,-0.9343722691893577,1.1264743653215468
1772648272186229200,4.848229248046875,0.18976853861808776,-0.9372609763681888,1.298627898402512
1772648272196269300,4.858269287109375,0.09086977297067642,-0.93490886028409,1.452433143235743
1772648272206310400,4.868310302734375,0.10007219334095716,-0.891825505360961,1.4407038347363472
1772648272216350200,4.87835009765625,0.22780922319889066,-0.8654507086545229,1.3631252127543092
1772648272226391300,4.888391357421875,0.34708909809589383,-0.9035480918586254,1.2274090207107364
1772648272236432400,4.898432373046875,0.39681495977342124,-0.9330892436414957,1.0786161241468042
1772648272246472400,4.908472412109375,0.30062896021604535,-0.912998641771078,0.908895225040242
1772648272256513300,4.91851318359375,0.10583879404366016,-0.6997796694606542,0.7876013069070875
1772648272266553300,4.92855322265625,0.007325520582497119,-0.4097060055285692,0.663588192943111
1772648272276594400,4.938594482421875,-0.1601715649947524,-0.09177811998724937,0.6904686741493642
1772648272286634200,4.94863427734375,-0.19702917727082966,0.19228373630940912,0.7582136651854962
1772648272296675300,4.95867529296875,-0.17197598455697297,0.36143501883447166,0.9492859068132936
1772648272306715100,4.968715087890625,-0.0448231843277812,0.43403322205543515,1.2041196958642453
1772648272316756200,4.978756103515625,0.032202772207558156,0.48240533103644845,1.5006671589203178
1772648272326797300,4.98879736328125,0.021833207754045722,0.551045736542344,1.8332517847150562
1772648272336837400,4.99883740234375,-0.018659692284464836,0.5624269622564315,2.097669029343128
1772648272346878200,5.008878173828125,-0.13285773387253283,0.6051145958602429,2.3304458118215203
1772648272356918300,5.018918212890625,-0.21701982589811086,0.7508119375616311,2.493553430268168
1772648272366959400,5.02895947265625,-0.18967136185392736,1.2337076824635267,2.4453325663261114
1772648272376999400,5.03899951171875,-0.38284254852235317,1.892257515913248,1.7554130504921077
1772648272387040300,5.049040283203125,-0.24363880662396548,2.1830255918502806,1.595598336111009
1772648272397081300,5.059081298828125,-0.3528431315779686,2.1296686801940203,1.9152385785281658
1772648272407121400,5.069121337890625,-0.5285545032709836,2.008221398130059,1.4392701486714183
1772648272417162500,5.07916259765625,-0.17000322317928074,1.7352070055484772,1.1855157523550093
1772648272427202300,5.089202392578125,0.16777736382335423,1.5415788688927887,1.2438628735139965
1772648272437243100,5.0992431640625,0.12678411304727197,1.400859900125861,1.125240658808127
1772648272447283200,5.109283203125,0.07608736051097512,1.3734452389776706,0.7849843293417245
1772648272457324300,5.11932421875,0.019991233149170874,1.5182038385242222,0.2893152467802167
1772648272467365400,5.129365478515625,0.09091682698279618,1.6182009208023547,-0.3068414049901068
1772648272477405200,5.1394052734375,0.4426821001961827,1.4574883807986974,-0.8407049744546413
1772648272487446300,5.1494462890625,0.7007473454490304,1.0911468852221966,-1.2552984597638248
1772648272497486300,5.159486328125,0.8168617420524358,0.7681915269076823,-1.7263507682673631
1772648272507527400,5.16952734375,0.7956343912370503,0.5824164418399334,-2.22760546894148
1772648272517567500,5.1795673828125,0.763662066784501,0.4362222565323114,-2.6774241430193184
1772648272527608300,5.1896083984375,0.7639417605087161,0.271173733150959,-3.0010902799516916
1772648272537648000,5.199648193359375,0.6203311619535088,0.06572539484202862,-3.21946648889482
1772648272547689200,5.209689208984375,0.2670525615677237,-0.08703881650567054,-3.2838504060000178
1772648272557730300,5.219730224609375,0.13710662348866462,-0.11670213336348532,-3.2651717167541383
1772648272567770400,5.229770263671875,0.21719868959635494,-0.09053718001544475,-3.1154449734061953
1772648272577811200,5.239811279296875,0.3247258751183748,-0.03620528584718704,-2.70336347091794
1772648272587851300,5.249851318359375,0.2004810712903738,0.0757516988158226,-2.0611986628189682
1772648272597892400,5.259892333984375,0.04784779284596443,0.1972434045433998,-1.3796172056108713
1772648272607932400,5.269932373046875,-0.04449263719916344,0.35658582523763177,-0.7744163927718997
1772648272617973200,5.27997314453125,0.06164718561768531,0.484427776774764,-0.33072774588167664
1772648272628014300,5.290014404296875,0.06152969671785831,0.5570347478240728,-0.04679594570547342
1772648272638054400,5.300054443359375,0.32860680820494886,0.5628899035930633,0.049357174495607614
1772648272648095500,5.310095458984375,0.4781120177567005,0.3501104917436838,0.035322219402343036
1772648272659390200,5.32139013671875,0.4686509464502334,0.15348492683768272,-0.01235460079088807
1772648272669431300,5.331431396484375,0.3684028120204806,-0.04557166460752487,-0.10089359272643923
1772648272679471400,5.341471435546875,0.3474088315695524,-0.19888941818475722,-0.29738924764245744
1772648272689512200,5.35151220703125,0.4286839699819684,-0.526371898534894,-0.4526490751981735
1772648272699553300,5.36155322265625,0.3857031986504793,-0.9325549906343221,-0.5835157813839614
1772648272709593300,5.37159326171875,0.35154958463609215,-1.290268943119049,-0.6905458310388028
1772648272719634200,5.38163427734375,0.2681540930688381,-1.591238095074892,-0.662462184587866
1772648272729674200,5.39167431640625,0.2621615746557712,-1.7266630490869284,-0.7238270461328328
1772648272739715300,5.40171533203125,0.19487901349961756,-1.6640134084284304,-0.7375649179756641
1772648272749755400,5.41175537109375,0.04565583575963974,-1.4942045387774705,-0.6276870776742697
1772648272759796500,5.42179638671875,-0.10465718304365873,-1.3478279826402664,-0.4474025528468191
1772648272769837300,5.43183740234375,-0.16883125679045916,-1.2605740620791912,-0.4100158021301031
1772648272779877000,5.441877197265625,-0.3160901487201452,-1.1284306139558553,-0.4061545966573059
1772648272789918200,5.451918212890625,-0.36953590770363803,-0.9804244107902049,-0.3745275785110891
1772648272799958300,5.461958251953125,-0.45654666715860365,-0.8541834647089243,-0.36522067485302684
1772648272809999000,5.4719990234375,-0.5359627337008714,-0.7396037303268909,-0.407955070208013
1772648272820039200,5.4820390625,-0.4691881220668554,-0.6881804170817136,-0.4876670509569347
1772648272830080300,5.492080322265625,-0.4433677443727851,-0.7586760950654745,-0.4752195111855864
1772648272840121300,5.502121337890625,-0.6283014101803303,-0.8870096295118332,-0.33505773791000243
1772648272850161400,5.512161376953125,-0.7402817757189274,-1.0011994877934456,-0.24725173642411827
1772648272860202200,5.5222021484375,-0.6636117930144071,-1.1408411827176808,-0.185630562030524
1772648272870242300,5.5322421875,-0.5357593200832605,-1.2068722825080156,-0.14092588951587676
1772648272880283400,5.542283447265625,-0.49751229927539825,-1.211080840113759,-0.09072101214975119
1772648272890323500,5.552323486328125,-0.558578470134735,-1.1230717172712088,-0.09112111738324165
1772648272900364300,5.5623642578125,-0.6011018530875444,-0.9930044909000396,-0.06195040634796023
1772648272910405400,5.5724052734375,-0.46519466851651664,-0.8336006954073906,-0.0723952279947698
1772648272920445200,5.582445068359375,-0.26730916667729615,-0.6175812787234782,-0.10635726495981215
1772648272930486300,5.592486328125,-0.20694354530274867,-0.40963820098936554,-0.0542582444101572
1772648272940525800,5.60252587890625,-0.38395372463464733,-0.14503449387848377,0.006940612918138503
1772648272950566700,5.612566650390625,-0.6327154272302985,0.23852292491495608,0.05163344886451959
1772648272960606700,5.622606689453125,-0.8906021010458469,0.6027554655134677,0.08976984890475868
1772648272970647800,5.632647705078125,-1.099475153106451,0.8433475979179144,0.18611703037321567
1772648272980689000,5.64268896484375,-1.2253513575285673,0.8328127599000931,0.3101230570092797
1772648272990729000,5.65272900390625,-1.3418021464794874,0.6256050107032061,0.3876971489466727
1772648273000769800,5.662769775390625,-1.3593681983083485,0.22373685919344424,0.420947676641494
1772648273010809900,5.672809814453125,-1.3947227125450967,-0.29742227312922476,0.5106906375393271
1772648273020851000,5.682850830078125,-1.5215341519907115,-0.7683984476566315,0.6517296320408582
1772648273030891800,5.692891845703125,-1.6913766316503285,-1.1557231100291012,0.8926745234057307
1772648273040931600,5.702931640625,-1.8711261728182433,-1.350443133574724,1.0978384918153286
1772648273050972700,5.71297265625,-2.03852652002275,-1.2690186498194933,1.130304006612301
1772648273061012700,5.7230126953125,-1.8899983388096093,-0.5114747736543417,0.8234576331861316
1772648273071053800,5.7330537109375,-0.7135217790871858,0.9939368033140897,0.048720776288211344
1772648273081094000,5.743093994140625,-0.5818132152497768,2.657620541396737,-0.435814552514255
1772648273091134700,5.753134765625,-0.9997966352581977,4.423916512691974,-0.4794048340462148
1772648273101175800,5.76317578125,-0.9390487365677952,5.760570774888992,-0.26376477206870913
1772648273111215900,5.7732158203125,-0.7810819881409407,5.579643714374304,-0.22890257139354944
1772648273121256700,5.783256591796875,-0.4512704803213477,3.8767964251607654,-0.7691494121544062
1772648273131296800,5.793296875,-0.22572657170593738,1.9936568662047385,-1.353616649044305
1772648273141337900,5.803337890625,-0.05783142672181129,0.2850730791658163,-1.6357814395479857
1772648273151379000,5.81337890625,0.06565291412770748,-0.9835457576811313,-1.8869328137591481
1772648273161419000,5.8234189453125,0.3706497141644358,-1.6264543698847294,-1.9533260248601436
1772648273171459800,5.8334599609375,0.4133125055879354,-2.0174176810204982,-1.8478186547279356
1772648273181499600,5.843499755859375,0.2282321247860789,-2.000112910476327,-1.758745117524266
1772648273191540700,5.853540771484375,0.5429617988079786,-1.531106574717164,-1.4753281350024043
1772648273201580800,5.863580810546875,1.000989936695993,-1.017898109138012,-1.170401623722911
1772648273211622000,5.873621826171875,1.415733644130826,-0.6104547878444194,-0.9307488179951906
1772648273221662700,5.883662841796875,1.8434657202154396,-0.28341128343343736,-0.6335208983942866
1772648273231702800,5.893702880859375,2.1606942253157495,-0.0719172352194786,-0.3819160813271999
1772648273241744000,5.903743896484375,2.4800606192275882,0.05351531708836555,-0.28723727146238087
1772648273251784000,5.913783935546875,2.4164690215438602,0.17563596836924553,-0.16673589194640517
1772648273261824800,5.92382470703125,2.1184289087772368,0.4377431824892759,-0.09680603115186094
1772648273271864800,5.93386474609375,1.8469816193819044,0.723819885739684,-0.14084084158092736
1772648273281906000,5.943906005859375,1.7438748806506394,0.8480553372174501,-0.2673649885177612
1772648273291947000,5.953947021484375,1.6091010840237139,0.7652110497921705,-0.5580411483876406
1772648273301986800,5.96398681640625,1.4245602169260383,0.517550294175744,-0.8260838900364935
1772648273312027600,5.974027587890625,1.1046908419281243,0.2517722825884819,-0.9400283952549099
1772648273322067700,5.984067626953125,0.8285396126255392,0.12281564780771731,-0.9580357611104845
1772648273332108800,5.99410888671875,0.6499754818499088,0.07488660641908645,-0.890349149198085
1772648273342149600,6.004149658203125,0.5606885941565036,-0.07337152568101883,-0.7120733338445424
1772648273352189700,6.014189697265625,0.6566507218301296,-0.2735118207097053,-0.45240518343970176
1772648273362230800,6.024230712890625,0.674781421804428,-0.46787645494639873,-0.1419759830906987
1772648273372270800,6.034270751953125,0.788088067510724,-0.6703747112780809,0.09149491913169622
1772648273382312000,6.04431201171875,0.8196990113049745,-0.7972299898654222,0.2820399950802326
1772648273392351700,6.054351806640625,0.7648305260419845,-0.8637468273460864,0.4105107460401952
1772648273402392800,6.064392822265625,0.8856339572444558,-0.890585149911046,0.4093145219929516
1772648273412434000,6.074433837890625,1.0483183818429709,-0.8894003240406513,0.30703488173559307
1772648273422474000,6.084473876953125,1.023045116637647,-0.8778875809013843,0.17835282611250877
1772648273432514800,6.094514892578125,0.9277610343560576,-0.813332983404398,0.05618804342895746
1772648273442554600,6.1045546875,0.8222609707474708,-0.7187503273904323,0.0038610593423247337
1772648273452595700,6.114595703125,0.6874699307247996,-0.5409679946422576,-0.006330079804360866
1772648273462636800,6.12463671875,0.41542175282686944,-0.30969197211563587,0.017865327036380767
1772648273472676900,6.1346767578125,0.31605332384109497,-0.14160042777657508,-0.01704787317365408
1772648273482717700,6.1447177734375,0.29817981349825856,-0.05296294390261173,-0.12936492332071065
1772648273492757800,6.1547578125,0.18213643630445003,-0.0007826748102903366,-0.17254136335477233
1772648273502798800,6.164798828125,0.10803279695659876,0.011294131952524185,-0.23674860871881245
1772648273512839000,6.1748388671875,0.11201572911292314,0.0005868599772453308,-0.28048838172405954
1772648273522879700,6.184879638671875,-0.00544715948998928,-0.08062485781013966,-0.13177534546330572
1772648273532920800,6.1949208984375,-0.11926146245747804,-0.19498948813676834,0.05120251010134816
1772648273542961000,6.2049609375,-0.15514496900439262,-0.32550328923165794,0.281310950153321
1772648273553002000,6.215001953125,-0.2473714172810316,-0.5180950685769319,0.5481425624467432
1772648273563041800,6.225041748046875,-0.27932196829319,-0.7238999652385711,0.6985330304004251
1772648273573082600,6.23508251953125,-0.2578264680609107,-0.8215221350789069,0.8118073812723159
1772648273583123700,6.245123779296875,-0.2680211143389344,-0.8991022183656692,0.9741190270356833
1772648273593163800,6.255163818359375,-0.22222587010860442,-0.8960930996775627,1.1348849046617746
1772648273603204600,6.26520458984375,-0.11315583905875683,-0.803496649044752,1.3313666771829127
1772648273613244700,6.27524462890625,0.0647957127764821,-0.7260229487419128,1.4460979488648473
1772648273623285800,6.28528564453125,0.25250527303814885,-0.5160848977982998,1.4356724164403973
1772648273633325800,6.295325927734375,0.23348814561814069,-0.18977847549021243,1.4657014978706835
1772648273643367000,6.305366943359375,-0.030322657549381255,0.00860123960673809,1.5281224443398416
1772648273653407700,6.31540771484375,-0.315271818074584,0.053070495930314064,1.5382061775892972
1772648273663447800,6.32544775390625,-0.4851283262595534,-0.026600422155857086,1.44320704972893
1772648273673489000,6.335489013671875,-0.48189562794864177,-0.16620061602592467,1.2770010268755256
1772648273683529000,6.345529052734375,-0.34466903134211896,-0.28905191966891286,1.1212583111736922
1772648273693569800,6.35556982421875,-0.18492840511053799,-0.4168757510274648,1.1487289402928202
1772648273703611000,6.36561083984375,-0.19088249120935796,-0.46870706055164335,1.3505056774169206
1772648273713650700,6.375650634765625,-0.291261704672873,-0.388754987436533,1.62615027237162
1772648273723691800,6.38569189453125,-0.4496320654645562,-0.2472439915090799,1.8790351923771202
1772648273733731800,6.39573193359375,-0.6013999592512845,-0.11889292140603065,2.0222814876645803
1772648273743772700,6.405772705078125,-0.6537658140435815,-0.03966390186846256,2.0993740796953437
1772648273753812700,6.415812744140625,-0.6842413240671158,-0.06315174496173859,2.0750562155187127
1772648273763853800,6.425853759765625,-0.5271154103785753,-0.11996025837659835,1.9895181589648125
1772648273773895000,6.43589501953125,-0.24019436525851487,-0.08325403726994991,2.1248687325663864
1772648273783934700,6.445934814453125,-0.03558218551278114,0.26974749974012374,2.2376605606183406
1772648273793975800,6.455975830078125,-0.580450548594445,0.9169733906209468,1.6708987840279936
1772648273804015900,6.466015869140625,-0.5378330576173961,1.5266121859073638,1.391934250870347
1772648273814057000,6.476056884765625,-0.31111089900285005,1.8222078281313179,1.3841491499520837
1772648273824097800,6.486097900390625,-0.32007424992024897,2.016319364389777,0.9368523955672979
1772648273834137900,6.496137939453125,-0.02778407898247242,2.085059723138809,0.7203845044635235
1772648273844179000,6.506178955078125,0.49215018772035835,2.165219886046648,0.8665582315050065
1772648273854218800,6.51621875,0.4962044315472245,2.2721230944514272,0.9453142267033458
1772648273864259800,6.526259765625,0.5464912881083787,2.4679963796854016,0.5940075109124183
1772648273874299600,6.536299560546875,0.8367430850863457,2.5431623875677585,-0.022495471055060622
1772648273884340700,6.5463408203125,1.0753013735756278,2.1734189745932815,-0.7284133510097861
1772648273894381800,6.5563818359375,1.257278819926083,1.4066232859581709,-1.3289581547364593
1772648273904422000,6.566421875,1.4256798686057328,0.4657862046688795,-1.8640426442980764
1772648273914462700,6.576462646484375,1.4968952391661703,-0.3729495155394077,-2.357631924910843
1772648273924502800,6.586502685546875,1.367636844959855,-1.0137865821659564,-2.7000635525897145
1772648273934543600,6.596543701171875,1.175634263679385,-1.4619266555070876,-2.8694913139685987
1772648273944584700,6.606584716796875,0.8214403020143508,-1.6568910092025995,-2.8586212526470423
1772648273954624800,6.616624755859375,0.37095688041746616,-1.5590823768794535,-2.642939105093479
1772648273964665600,6.62666552734375,0.030595190880447626,-1.2394786670804023,-2.478632339990139
1772648273974705400,6.636705322265625,-0.09494257536754011,-0.6096376262426376,-2.368731411074102
1772648273984746500,6.64674658203125,-0.038887656798958774,0.07657879728972912,-2.0869320928819475
1772648273994787300,6.656787353515625,-0.008543956461548805,0.6919073286503553,-1.5815562206245959
1772648274004827400,6.666827392578125,-0.0034592005431652068,1.277471420866251,-0.8532407770313322
1772648274014868500,6.676868408203125,0.010179156447947025,1.689465829592943,-0.13035393435806036
1772648274024908500,6.686908447265625,0.08014964151382446,1.8533821340739727,0.47100525449141856
1772648274034949600,6.69694970703125,0.11665770969986915,1.8003280047565697,0.8658649885438382
1772648274044989700,6.70698974609375,0.060196986809372896,1.5646517014443873,0.939764337491244
1772648274055030500,6.717030517578125,-0.0003635726153850555,1.255883858436346,0.7559455010578036
1772648274065071600,6.727071533203125,-0.043676060119271276,0.7893073801726103,0.3924817528747022
1772648274075111700,6.737111572265625,-0.14919833555966613,0.39075463682115075,0.019594342786073683
1772648274085152500,6.747152587890625,-0.1865951692789793,0.11398995179533958,-0.2977922754853964
1772648274095192600,6.757192626953125,-0.21008125880658626,-0.21452245612442492,-0.5350820053435862
1772648274105233700,6.767233642578125,-0.16031097346544265,-0.5881172838300466,-0.7059788163617253
1772648274115274800,6.777274658203125,-0.05540127696543932,-0.9773118317276239,-0.7754124180719256
1772648274125314600,6.787314453125,0.01460048002153635,-1.3636603425443172,-0.7630709690235554
1772648274135355400,6.79735546875,0.02642185071855783,-1.5953233185619116,-0.7256110069401562
1772648274145395500,6.8073955078125,0.0704948012009263,-1.5855080269902944,-0.6153896138980984
1772648274155436500,6.8174365234375,-0.010559972459077834,-1.367008483928442,-0.3593343932934105
1772648274165476600,6.8274765625,-0.12161503984630107,-0.9942951152324676,-0.16479893253445624
1772648274175517400,6.837517333984375,-0.20007307501137256,-0.71726271918118,-0.0092946286983788
1772648274185558500,6.84755859375,-0.30786651025414463,-0.49642508856058115,0.06936915817186236
1772648274195598600,6.8575986328125,-0.3022290888890624,-0.4165384818971157,0.0077547057799994944
1772648274205639700,6.8676396484375,-0.2681108384490013,-0.47170448880195615,-0.10751038051769136
1772648274215679700,6.8776796875,-0.29083821856379505,-0.6542799010455608,-0.23312881078645586
1772648274225720600,6.887720458984375,-0.20718115345090626,-1.1411235067903995,-0.557695403689891
1772648274235761700,6.89776171875,-0.13521248030513525,-1.436627379077673,-0.6659013652563095
1772648274245801500,6.907801513671875,-0.12859335442632436,-1.6651058798402547,-0.6546607170566916
1772648274255842600,6.917842529296875,-0.15723083536773919,-1.8126023799180984,-0.5867733218751847
1772648274265882400,6.92788232421875,-0.22860709557831285,-1.8698826024979351,-0.4320535925455391
1772648274275923500,6.93792333984375,-0.27261750221848485,-1.9428133986741303,-0.3259897575743496
1772648274285964500,6.947964599609375,-0.1851695203900337,-1.8413778080254792,-0.22990604934766887
1772648274296004600,6.958004638671875,-0.1349117437928915,-1.6359166102349758,-0.18096520056799054
1772648274306045400,6.96804541015625,-0.22298370273858306,-1.3938631731063127,-0.13124182310849428
1772648274316085500,6.97808544921875,-0.37325317466109986,-1.0984469791024922,-0.12475538369864225
1772648274326126600,6.988126708984375,-0.6190653798013925,-0.7229127077668905,-0.19106880756169556
1772648274336166700,6.998166748046875,-0.7948597536027431,-0.3101432230144739,-0.3118132020533085
1772648274346207700,7.008207763671875,-0.9481398055180906,-0.007001403194665908,-0.30948052132204174
1772648274356248600,7.01824853515625,-0.9651832947775721,0.14674363588392733,-0.1238882454752922
1772648274366288600,7.02828857421875,-0.8373594634190201,0.2280821949213743,0.18692308605909347
1772648274376329700,7.038329833984375,-0.7494532164290547,0.3029699703842401,0.5594647514499723
1772648274386369500,7.04836962890625,-0.7159376080572605,0.39102819306552405,0.9560308510288595
1772648274396410400,7.058410400390625,-0.7352355982452631,0.3364297569155693,1.1882114211797714
1772648274406451500,7.068451416015625,-0.821576203353703,0.2716132936120033,1.2298621129512786
1772648274416491500,7.078491455078125,-1.0342083156868815,0.21564649171829223,1.1491345254190266
1772648274426532600,7.08853271484375,-1.215985563290119,0.04081424094736576,1.1690817732959986
1772648274436572700,7.09857275390625,-1.471698692458868,-0.20146365258693694,1.1932258883409201
1772648274446613500,7.108613525390625,-1.3791025340870022,-0.4339408675968647,1.0542106547519563
1772648274456653600,7.118653564453125,-1.6401564397618174,-0.28766192661523815,0.8224199607014656
1772648274466694700,7.128694580078125,-1.290979721736908,0.6667313863396644,0.2813924909569323
1772648274476735500,7.138735595703125,-0.4593430198788643,1.96390704010725,-0.3571927050895989
1772648274486775600,7.148775634765625,-0.8682038067549467,3.454470007511973,-0.3475831652231514
1772648274496816600,7.158816650390625,-1.2348758494600653,5.004117616569996,0.27595862933993337
1772648274506856400,7.1688564453125,-1.0260618341103196,5.403889088061452,0.6922352454304694
1772648274516897500,7.1788974609375,-0.9290475670352578,4.305558428815007,0.8734335241019725
1772648274526938400,7.1889384765625,-0.4983750535845756,2.6617081029713154,0.01936857120618224
1772648274536978400,7.198978515625,0.1674003472045064,1.0769546937406063,-1.2769805686093867
1772648274547019500,7.20901953125,0.26926234657168385,-0.12285890242755412,-1.8450741783253848
1772648274557059600,7.2190595703125,0.5589765295416116,-0.8544681268692016,-2.1642967798523602
1772648274567100400,7.229100341796875,1.0902058049798011,-1.4318500816732644,-2.3334137217164037
1772648274577140500,7.239140380859375,1.4658058350279926,-1.8460493069678543,-2.048645470716059
1772648274587181600,7.249181640625,1.5901199046999215,-1.856671238747239,-1.5642264617696404
1772648274597222700,7.25922265625,1.837674277332425,-1.4250076684325932,-1.1586942347943783
1772648274607262700,7.2692626953125,2.229732397967577,-0.7793810294419526,-0.7877445147700607
1772648274617303600,7.279303466796875,2.613975460937619,-0.13723930995762348,-0.43341552854850884
1772648274627343600,7.289343505859375,2.7491818037629128,0.44366146662235256,-0.17551468007713555
1772648274637384700,7.299384765625,2.640896493349969,0.980073697656393,-0.09104264531955122
1772648274647425500,7.309425537109375,2.481370240521431,1.3468132526397705,-0.06769172647893429
1772648274657465300,7.31946533203125,2.177899627138674,1.4079969123989342,-0.24199527720063924
1772648274667506400,7.32950634765625,1.8331603070393203,1.2760311589300632,-0.7112846676848829
1772648274677546500,7.33954638671875,1.5564795009046792,1.0587298857420682,-1.2816792478196322
1772648274687587600,7.349587646484375,1.1915829434394836,0.6797229698598385,-1.5904894686646758
1772648274697628400,7.35962841796875,0.6973989118039607,0.32128304118812084,-1.7566953453876077
1772648274707668500,7.36966845703125,0.3542684882059693,-0.11710662251114845,-1.7218118096634745
1772648274717709600,7.37970947265625,0.20051175868958235,-0.5873924766868353,-1.4996343087412416
1772648274727749600,7.38974951171875,0.2716404738798737,-0.9769751471191644,-1.0984291511848567
1772648274737790500,7.39979052734375,0.4005219975978136,-1.2660422643572091,-0.6025286710202694
1772648274747830500,7.40983056640625,0.5189449634045362,-1.474546483105421,-0.2044379922226071
1772648274757871600,7.41987158203125,0.746125533311069,-1.517950740545988,0.09561652910634874
1772648274767912700,7.42991259765625,0.9924658539786935,-1.4863345360547304,0.45789559754952786
1772648274777952800,7.439952880859375,1.0038584778696298,-1.2701701579421758,0.8004270323410629
1772648274787993600,7.44999365234375,0.9568415828898549,-0.8907447243869304,1.018356666560471
1772648274798033400,7.460033447265625,0.8779092082113027,-0.3944721960395574,1.1201264575995504
1772648274808074500,7.470074462890625,0.7866065967813134,0.10209902299344539,1.1410014878459274
1772648274818115600,7.480115478515625,0.5539823745161294,0.41574353212714193,1.119849394223839
1772648274828155400,7.4901552734375,0.40016602376699445,0.44169162785410876,1.025568497635424
1772648274838196500,7.500196533203125,0.21430793659090994,0.24246201792955396,0.850655290582776
1772648274848236500,7.510236572265625,0.11009762053191662,-0.10175766220986843,0.6028472354501485
1772648274858277600,7.520277587890625,0.02605477097183466,-0.5599556037068366,0.29327596710473297
1772648274868317700,7.530317626953125,-0.03542436460256576,-0.926937735274434,0.14268968431800602
1772648274878358500,7.540358642578125,-0.09798866506516933,-1.163150045159459,0.1524694661848247
1772648274888399600,7.550399658203125,-0.11639262902289628,-1.3057090888351202,0.14764964481294154
1772648274898439700,7.560439697265625,-0.12833061183691025,-1.3636854769855737,0.21049378513023256
1772648274908480800,7.570480712890625,-0.1534896030128002,-1.3798837475925683,0.3366702876731753
1772648274918520600,7.5805205078125,-0.10137684619873762,-1.3477864815860985,0.5095043503642082
1772648274928561400,7.5905615234375,-0.1438324246123433,-1.291568919801712,0.7357011699303985
1772648274938603300,7.600603271484375,-0.13913520670682192,-1.1594044288903473,0.8694326178975402
1772648274948643300,7.610643310546875,-0.04603109881281853,-0.9942144512116908,0.9148863552138209
1772648274958684200,7.62068408203125,0.03559066108018159,-0.8519476684808731,0.9712868723496794
1772648274968724200,7.63072412109375,0.11844459311664103,-0.6935171019345522,0.9802264040000737
1772648274978765300,7.640765380859375,0.19701134935319423,-0.5473188249737024,0.9561255435749888
1772648274988805400,7.650805419921875,0.22685294538736342,-0.4388748168677091,0.9057384415097535
1772648274998846200,7.66084619140625,0.32081074750125405,-0.3417892381221056,0.8655648365534842
1772648275008887300,7.67088720703125,0.35089550464153285,-0.26924130378365513,0.8168734324902296
1772648275018927000,7.680927001953125,0.38675796840041876,-0.10036825367808341,0.6924494727030396
1772648275028968200,7.69096826171875,0.28242431822270153,0.10546937620937824,0.6183372116573155
1772648275039008300,7.70100830078125,0.10650193412750959,0.1784077711701393,0.6173406018353998
1772648275049049000,7.711049072265625,-0.05716214915812015,0.04423486304581165,0.6328294089987874
1772648275059090200,7.721090087890625,-0.10904314304292201,-0.11941489945352077,0.6816779033198952
1772648275069130200,7.731130126953125,-0.0196241534024477,-0.24825229176878927,0.7196154197871685
1772648275079171000,7.741171142578125,0.13683189820051192,-0.2969225069135427,0.8165290029667317
1772648275089211100,7.751211181640625,0.15371727428883314,-0.2036696381986141,1.0338991036072374
1772648275099252200,7.761252197265625,0.08813158017843961,-0.055602060234546655,1.2203040110111236
1772648275109292300,7.771292236328125,0.039430969895422455,0.037387189108133316,1.3851247169859706
1772648275119333400,7.78133349609375,-0.036272505864500995,0.1626648431152105,1.58040631993711
1772648275129374200,7.791374267578125,0.01513926307335496,0.3807698339015245,1.8448400773085654
1772648275139414000,7.8014140625,0.2714391060888767,0.8031710703521966,2.1084752316482365
1772648275149455000,7.811455078125,-0.19357231481522322,1.503582607975602,1.7880872396036982
1772648275159495200,7.8214951171875,-0.3647375675112009,2.280077852848172,1.1165835242956876
1772648275169536000,7.831535888671875,-0.20406126786470413,2.6614146729826924,1.1207087875321506
1772648275179577000,7.8415771484375,-0.3825236918315291,2.645076701644063,0.9913593540415168
1772648275189617200,7.8516171875,-0.30314474242925643,2.401267945280671,0.6286264043509959
1772648275199658200,7.861658203125,0.05938815464451909,2.038591986474395,0.6962425813756883
1772648275209698300,7.8716982421875,0.38045068494975565,1.8071669108659028,0.9312168738983571
1772648275219739100,7.8817392578125,0.4051306604370475,1.770451921930909,0.9413255954585968
1772648275229780200,7.8917802734375,0.4349146810650825,1.7756231870889663,0.6518287085011601
1772648275239820300,7.9018203125,0.5412491496711969,1.6155284867227075,0.23865648816674948
1772648275249861000,7.911861083984375,0.5119933907009661,1.3519675666630266,-0.14835092495009303
1772648275259901200,7.921901123046875,0.4992012752756476,0.8837368914514779,-0.483740525162965
1772648275269942300,7.9319423828125,0.7242164838418365,0.3225520382106304,-0.9009497459284961
1772648275279982000,7.941982177734375,1.1140041753269732,-0.1249555824458599,-1.3595928008444607
1772648275290023200,7.952023193359375,1.1381447832405567,-0.31009821482896804,-1.599337814900279
1772648275300064000,7.96206396484375,0.9243151316858828,-0.2305044536322355,-1.7895755784653127
1772648275310104000,7.97210400390625,0.7858927494235336,-0.044483869370818135,-2.0412821023412047
1772648275320145200,7.982145263671875,0.7078229829236865,0.0754904175311327,-2.314928363085538
1772648275330185200,7.992185302734375,0.5656546921312808,0.1800157908886671,-2.4593302581489085
1772648275340226000,8.00222607421875,0.6345014338642359,0.3503793718129396,-2.51257318803668
1772648275350266000,8.01226611328125,0.8341749881640076,0.5043307471185923,-2.482898765262961
1772648275360307200,8.02230712890625,0.7994763074874878,0.595054389616847,-2.2755198972828685
1772648275370348300,8.032348388671876,0.5048036253273487,0.6147001703292131,-1.9897423231095075
1772648275380388400,8.042388427734375,0.2885863479837775,0.7195061141937971,-1.6124487870164215
1772648275390429200,8.05242919921875,0.6992877942904829,0.557901593786478,-1.2686897101260721
1772648275400469000,8.062468994140625,0.6616229572847485,0.28732758009433745,-0.8666071852132677
1772648275410510000,8.072510009765624,0.5839823759824038,0.13497370311319828,-0.7506568931303917
1772648275420551200,8.08255126953125,0.43143268416821956,0.0786620333045721,-0.8544576054751872
1772648275430591200,8.09259130859375,0.1666091968268156,0.04798749357759952,-1.0520328723214567
1772648275440632000,8.102632080078125,-0.10415595552325248,0.024707155755162236,-1.4045257291570306
1772648275450672000,8.112672119140624,-0.08845189817398787,-0.011645429608225821,-1.661308241122961
1772648275460713200,8.122713134765625,-0.0923562121361494,-0.21450316690206525,-1.7820307160437105
1772648275470753300,8.132753173828124,-0.09868863002806902,-0.4077899427741766,-1.7883334694497286
1772648275480794000,8.142794189453125,-0.11547434513419866,-0.5300362662613392,-1.6355286338306962
1772648275490835200,8.152835205078125,-0.06387859793156385,-0.7638356697857379,-1.347941526017338
1772648275500875300,8.162875244140626,0.029927520751953124,-1.0793658465355633,-1.0697834869369864
1772648275510916400,8.172916259765625,0.10715513733923435,-1.3136778757572174,-0.700022538305819
1772648275520956200,8.1829560546875,0.09017068479061126,-1.4302560904800892,-0.2356019229017198
1772648275530997200,8.192997314453125,0.08585340611338615,-1.3961375477790832,0.08794248734712601
1772648275541038300,8.203038330078124,0.08566080615073442,-1.1096762291252613,0.28785949501395225
1772648275551078100,8.213078125,0.07560147669017314,-0.690706720688939,0.5389828121744096
1772648275561119000,8.223118896484374,-0.13892682465314865,-0.40077977175116536,0.8590724057942628
1772648275571159000,8.233158935546875,-0.3161737353503704,-0.3209486946672201,0.9823799287721514
1772648275581200100,8.2432001953125,-0.3745730250880122,-0.3525245671480894,0.8972181581847369
1772648275591240200,8.253240234375,-0.3577034310907125,-0.4735112459629774,0.7692340216979384
1772648275601281300,8.26328125,-0.33709698865264653,-0.6340764864504337,0.5200855117417872
1772648275611322000,8.273322021484375,-0.33086014008969067,-0.8597469440549611,0.266329361859709
1772648275621362200,8.283362060546875,-0.4187000438451767,-1.0286503892987966,0.14185864032134413
1772648275631403300,8.2934033203125,-0.48251989732682704,-1.1801947034627198,0.13833514237031339
1772648275641443300,8.303443359375,-0.47811640167087316,-1.3352940797597168,0.15204831816330552
1772648275651484200,8.313484130859376,-0.48895226846188306,-1.4445213471978902,0.143811527954787
1772648275661525200,8.323525146484375,-0.5313745291277766,-1.4732611194700003,0.10948913324475287
1772648275671565300,8.3335654296875,-0.6107721832305193,-1.3996820885181427,-0.004804769933223724
1772648275681606400,8.3436064453125,-0.6969646120399237,-1.2386813792228697,-0.08995002777725458
1772648275691646200,8.353646240234376,-0.8126125601753592,-0.9836977333724498,-0.20938874649778008
1772648275701687000,8.36368701171875,-0.9023796326011418,-0.6747177089184522,-0.40411096200048924
1772648275711727000,8.37372705078125,-0.9412295877382159,-0.34577217027843,-0.622561405223608
1772648275721768200,8.383768310546875,-1.0710042609035968,-0.03504910154938698,-0.6608943507492542
1772648275731809000,8.39380908203125,-1.1080068346083163,0.10407412245869636,-0.5525498574949801
1772648275741849000,8.40384912109375,-1.0287088414877652,0.08914660243988036,-0.44658027667850253
1772648275751890200,8.41389013671875,-0.9175023829311132,0.0444984824180603,-0.2711320859663188
1772648275761930200,8.42393017578125,-0.8106073578327894,0.03591711655557155,0.027225276055932043
1772648275771971300,8.433971435546875,-0.8333557807356119,-0.06847615485489368,0.3134811352655291
1772648275782011400,8.444011474609376,-0.8187532548874616,-0.21124562641084194,0.43382557065412397
1772648275792052200,8.45405224609375,-0.7490951967716216,-0.3803454710096121,0.47809492049142716
1772648275802093300,8.46409326171875,-0.929804230621457,-0.6206687233448028,0.5059317525744438
1772648275812133000,8.474133056640625,-1.154229656600952,-0.8352098841696977,0.5518522306196392
1772648275822174000,8.484174072265626,-1.2686615069448948,-0.9967945308327675,0.6379148955695331
1772648275832214000,8.494214111328125,-1.1803618767231703,-1.1251701508551835,0.6923043651439249
1772648275842255000,8.504255126953124,-1.1763532256036997,-1.1974451134711503,0.9521339897207916
1772648275852296200,8.514296142578125,-1.4392597734078765,-1.05339261636734,1.3664701392680405
1772648275862336300,8.524336181640624,-1.5390131100580096,-0.3574164308428764,1.4503012457735835
1772648275872377000,8.534377197265625,-0.6543474133238196,0.7849725658386946,0.5514880734823644
1772648275882417200,8.544417236328124,-0.4349842391699552,2.118461642003059,-0.08722732481509446
1772648275892458200,8.554458251953125,-1.1075830562382936,3.6411060933232307,0.03219166629165411
1772648275902499000,8.5644990234375,-1.1569482679098844,4.976452195531129,0.15677461603283882
1772648275912539100,8.5745390625,-0.9221732973515987,5.237708345779776,0.05103372940570116
1772648275922580200,8.584580322265625,-0.8312205222725868,4.297049543666839,-0.3624810207560658
1772648275932620300,8.594620361328126,-0.745034523203969,2.8873224464744327,-0.8207328843973577
1772648275942660600,8.60466064453125,-0.6044096624612808,1.4111170902460812,-1.438962982418388
1772648275952700700,8.61470068359375,-0.15059621965885162,0.2154255424439907,-1.9891965257950126
1772648275962741500,8.624741455078125,0.18194003694951533,-0.543932689666748,-2.2971099439308045
1772648275972782600,8.634782470703126,0.759034991505742,-1.0411924754858017,-2.280570897062123
1772648275982822700,8.64482275390625,1.2408470328241585,-1.499621303129196,-2.1779424433670935
1772648275992863700,8.65486376953125,1.5657441728562116,-1.7142589100658892,-1.9066154193505644
1772648276002903600,8.664903564453125,1.7446733375519512,-1.7071914558976888,-1.6328570765338837
1772648276012944400,8.6749443359375,1.7344062105596065,-1.4570646024286746,-1.3517121305972337
1772648276022984400,8.684984375,2.087512669248879,-1.067359766921401,-1.0763578968912362
1772648276033025500,8.695025634765624,2.174444225987792,-0.6984159798920154,-0.7528399362578988
1772648276043066600,8.705066650390625,2.128676746547222,-0.3250952929526567,-0.4895306528717279
1772648276053106400,8.7151064453125,1.8809172067314386,0.13542670757770536,-0.3197602155350148
1772648276063147500,8.7251474609375,1.7010650819718838,0.6636538785904645,-0.2442282969497144
1772648276073187600,8.7351875,1.7434844200283288,1.0188123013734818,-0.20995865534022448
1772648276083228700,8.745228759765626,1.577491017012298,1.2208324187994002,-0.3286184986427426
1772648276093269500,8.75526953125,1.2328569108530878,1.3610960450142622,-0.5190414095163345
1772648276103309600,8.7653095703125,0.9164777160584926,1.3735066137760876,-0.605398527368158
1772648276113350700,8.7753505859375,0.8122665232166647,1.1282254467725754,-0.6407764224804937
1772648276123390500,8.785390380859376,0.688007983124256,0.6779635589718819,-0.5405947774156927
1772648276133431600,8.795431640625,0.6289999138385057,0.10759528232216835,-0.37449718337282534
1772648276143471400,8.805471435546876,0.6009750118374824,-0.3158411423951387,-0.15949541929885744
1772648276153512400,8.815512451171875,0.583996696768701,-0.5835235262989997,0.1469363819770515
1772648276163553500,8.825553466796874,0.6719333388969302,-0.8506073597878218,0.4211262480787933
1772648276173593600,8.835593505859375,0.8221332527145743,-1.0258680651038885,0.6241578806348145
1772648276183634400,8.845634521484374,0.8789911582291126,-1.0368073922693728,0.7231082303389906
1772648276193674500,8.855674560546875,0.8422694472923874,-0.9583750760674477,0.8218931603483856
1772648276203715600,8.865715576171874,0.8125535234645008,-0.8842840039402245,0.8272432892046868
1772648276213755600,8.875755615234375,0.7232020461022853,-0.819106890630722,0.7659642062470317
1772648276223796500,8.88579638671875,0.666855304980278,-0.7673626748681068,0.6072017773978412
1772648276233837600,8.895837646484376,0.5293529601722955,-0.6458972726255655,0.42605493665263056
1772648276243877600,8.905877685546875,0.3313505539551377,-0.4223451223492622,0.17927111000120638
1772648276253918700,8.915918701171876,0.17909926056563852,-0.19783201808631418,0.014256342758983373
1772648276263958500,8.92595849609375,0.19395605343580244,-0.04924304659664631,-0.2100701528906822
1772648276273999400,8.935999267578126,0.25881343327164646,0.006235679519176483,-0.372282137671858
1772648276284040400,8.94604052734375,0.2499456516832113,0.0005775076270103454,-0.5882029162868857
1772648276294080500,8.95608056640625,0.2776233476817608,0.0031400515913963317,-0.7145638354860245
1772648276304121600,8.96612158203125,0.2877659715116024,0.02757832727730274,-0.6803837718561291
1772648276314161700,8.97616162109375,0.28995091433525083,0.036137481307983395,-0.5648122499577701
1772648276324202500,8.986202392578125,0.21677403444349763,-0.023477321699261665,-0.40017406094297764
1772648276334242600,8.99624267578125,0.12722002024650572,-0.11545067199766636,-0.1731853603467345
1772648276344283600,9.00628369140625,0.09212181885838508,-0.17785948963761328,-0.009373393023014069
1772648276354324500,9.016324462890625,0.13597586589306593,-0.25018822826743126,0.1971359986461699
1772648276364364500,9.026364501953125,0.11600246066153048,-0.367510539355874,0.47447512255907054
1772648276374405600,9.036405517578125,0.1390615569487214,-0.48861412254869935,0.685546269185841
1772648276384445700,9.04644580078125,0.1846881666138768,-0.6104027653962374,0.8718908247046172
1772648276394486800,9.05648681640625,0.2633300339132547,-0.6708224550455808,1.0075073557659984
1772648276404526600,9.066526611328126,0.3291927913993597,-0.7172592120498419,1.0861648590259254
1772648276414567400,9.0765673828125,0.2946849571198225,-0.6568646568417549,1.1492197194844485
1772648276424608500,9.0866083984375,0.2919061400562525,-0.4641220708489418,1.1653650908604263
1772648276434648600,9.096648681640625,0.38546705180704594,-0.23581951117515562,1.0965366154365241
1772648276444689400,9.106689453125,0.45002281834781166,-0.07993979815542697,0.9900555779665708
1772648276454729500,9.1167294921875,0.5484957597985863,-0.003685410514473915,0.8737098568253219
1772648276464770600,9.1267705078125,0.6261842718958854,-0.05955868890583515,0.7098048043906688
1772648276474811600,9.136811767578125,0.6333601548746228,-0.19370237093567846,0.5895424943275749
1772648276484851700,9.146851806640624,0.47079643404632804,-0.31422318580448627,0.5445099050328135
1772648276494892500,9.156892578125,0.3012944383874535,-0.275791456079483,0.43450639252513645
1772648276504932600,9.1669326171875,0.11121464186310767,-0.140375269895792,0.252396844227612
1772648276514973700,9.1769736328125,-0.12788257580846546,0.003939677536487579,0.11470102267414331
1772648276525013500,9.187013427734374,-0.3104085959523916,0.11968377952277659,0.07838423927649855
1772648276535054300,9.197054443359375,-0.39826691214740273,0.23857085570991038,0.10925590901076793
1772648276545095400,9.207095458984375,-0.415398371951282,0.30637597943544387,0.19320143567621706
1772648276555135500,9.217135498046876,-0.42748891497850416,0.24476444965302943,0.36602278501614927
1772648276565176600,9.227176513671875,-0.4916954296901822,0.08978782295286655,0.6139036131240427
1772648276575216600,9.237216552734376,-0.49317163972258565,-0.10762100128531456,0.8029258634194731
1772648276585257500,9.247257568359375,-0.3942050695359707,-0.22861352531909943,0.8766944255940615
1772648276595297500,9.257297607421876,-0.11836217553019523,-0.18886545229852197,0.9401011682301759
1772648276605338600,9.267338623046875,0.06508183624148368,0.11692483620345592,0.7068395248442888
1772648276615379500,9.27737939453125,-0.14003390911221503,0.6137777947872877,0.5498351917088031
1772648276625419500,9.28741943359375,-0.24103432321399448,1.1381880378603935,0.8466521924212574
1772648276635460600,9.297460693359374,-0.17575813344419,1.58540398209393,0.8411731764882803
1772648276645500700,9.307500732421875,0.001954056677222252,1.6942822899639605,0.6575555617153644
1772648276658051600,9.320051513671874,0.3430284245282411,1.5023065966904163,0.7401616564705967
1772648276668091600,9.330091552734375,0.6922036812484264,1.348296769195795,1.0397279558911918
1772648276678132500,9.340132568359374,0.6235027777269482,1.2973545174658299,1.2005933483690023
1772648276688173600,9.350173583984375,0.4191559709191322,1.164183479860425,1.038475179351121
1772648276698213600,9.360213623046874,0.3930824952468276,0.9771294608980416,0.6493060581557453
1772648276708254500,9.37025439453125,0.4332683751627803,0.8129156347751617,0.22430618351399897
1772648276718294500,9.38029443359375,0.6178454826176166,0.6465431693136692,-0.15333309727683664
1772648276728335600,9.390335693359376,0.7617480498567223,0.4156932632446289,-0.47179026738926766
1772648276738376700,9.400376708984375,0.84535133895576,0.23588673119246958,-0.8298676463589072
1772648276748416800,9.410416748046876,0.8713985111430287,0.14605740718543528,-1.211286007297039
1772648276758457600,9.42045751953125,0.842587134939432,0.13866963502168655,-1.552372942368686
1772648276768497400,9.430497314453126,0.716413993397355,0.1710831273704767,-1.7982358547829091
1772648276778538500,9.44053857421875,0.6923828372076153,0.24354864412248134,-1.967393859309703
1772648276788578600,9.45057861328125,0.6481070576295256,0.31734687078297136,-2.1055353788040576
1772648276798619400,9.460619384765625,0.5113555311888456,0.33533787002563475,-2.0730627036139366
1772648276808660500,9.470660400390624,0.4639069667935371,0.2648988906651735,-1.8754887519419192
1772648276818700500,9.480700439453125,0.42130379660278555,0.20971125645041463,-1.6527669150099158
1772648276828741600,9.49074169921875,0.4685255665048957,0.24107903913855552,-1.3994190536677837
1772648276838781700,9.50078173828125,0.383538421832025,0.3518237254023552,-1.1532326083876192
1772648276848822500,9.510822509765624,0.27955197765678164,0.5566366884171963,-1.0228893415540457
1772648276858862600,9.520862548828125,0.2133969592258334,0.7522036841809749,-0.9233902719259262
1772648276868903700,9.530903564453125,0.10516922421902418,0.8486854518145323,-0.7625826009847223
1772648276878944500,9.540944580078126,-0.07808774054795503,0.872869460478425,-0.6166930977120996
1772648276888984300,9.550984375,-0.23857962353825568,0.8779068701237439,-0.53089259082973
1772648276899025400,9.561025390625,-0.2674099967032671,0.8832622596770524,-0.6554742253966629
1772648276909065500,9.5710654296875,-0.18727905988991259,0.7780623480588197,-0.7863092212699353
1772648276919106600,9.5811064453125,-0.042697570475935934,0.4719996723562479,-0.8202646823637187
1772648276929146600,9.591146728515625,0.07101473342180252,0.0633908144146204,-0.9491523435615002
1772648276939187500,9.6011875,0.37732787675410506,-0.31784371438920495,-1.0938016375146806
1772648276949228800,9.611228759765625,0.6389978685006499,-0.7341600779682398,-1.0381966546706856
1772648276959268900,9.621268798828124,0.6715379098385572,-1.1374661533266306,-0.8914167784295975
1772648276969309700,9.631309814453125,0.6197194597959518,-1.4371405892968176,-0.7199107494719326
1772648276979349800,9.641349853515624,0.4296101449161768,-1.547714595168829,-0.5547580350637435
1772648276989390800,9.651390869140625,0.19029986901581286,-1.4142086265206335,-0.3995683501347899
1772648276999431000,9.661430908203124,0.09258271436840296,-1.1207955890327692,-0.32290348199680446
1772648277009472000,9.671471923828125,0.004568330828845501,-0.773738639640808,-0.3331054347984493
1772648277019512800,9.681512939453125,-0.15129998401403427,-0.4318617232352495,-0.33683702254220843
1772648277029552600,9.691552734375,-0.22438860110044478,-0.0663011489033699,-0.3791926477126777
1772648277039593700,9.70159375,-0.260539526411891,0.16702245380282402,-0.49422509429827327
1772648277049633800,9.7116337890625,-0.2684220963552594,0.17333529021143912,-0.5141418009065092
1772648277059674600,9.721674560546875,-0.19815993486642836,0.03698562256991863,-0.5522874071665108
1772648277069715700,9.7317158203125,-0.14506605806052683,-0.15388123267889023,-0.5763070190489292
1772648277079755800,9.741755859375,-0.0658460986122489,-0.352943084821105,-0.5872881395295262
1772648277089796900,9.751796875,-0.07670797662734985,-0.5302431870102882,-0.5519212042026221
1772648277099837000,9.7618369140625,-0.1077718079328537,-0.6444470738172531,-0.5347026506371796
1772648277109877800,9.771877685546874,-0.14431348612755537,-0.7088824288487434,-0.517494472335279
1772648277119917800,9.781917724609375,-0.1518064722314477,-0.7281757428616284,-0.4561543068401515
1772648277129959000,9.791958984375,-0.161171974208951,-0.7506769130051135,-0.38457930918708444
1772648277139999700,9.801999755859375,-0.17071458631902933,-0.7401923438698053,-0.34663214810863135
1772648277150039800,9.812039794921875,-0.20122312182933091,-0.6964484792113304,-0.3509881513610482
1772648277160081000,9.822080810546876,-0.308037482906878,-0.6268500423282385,-0.3086122140549123
1772648277170120700,9.83212060546875,-0.3981304262861609,-0.5711088658839464,-0.2274152554452419
1772648277180161800,9.842161865234376,-0.42894495900571344,-0.5035860662311316,-0.17124591671675443
1772648277190201900,9.852201904296875,-0.45795711847841736,-0.44303544367849823,-0.07892375298067927
1772648277200242700,9.86224267578125,-0.4793091185867786,-0.38711715710163114,0.027560791620612143
1772648277210283800,9.87228369140625,-0.4707490877732634,-0.3802829271674156,0.06645093263760209
1772648277220323800,9.88232373046875,-0.46424774305522437,-0.36671266697645183,0.07014686454609036
1772648277230364700,9.89236474609375,-0.5655363264486193,-0.33388591765165326,0.13464958572536706
1772648277240404700,9.90240478515625,-0.6792559368699789,-0.29889585281312464,0.24374358217269182
1772648277250445800,9.91244580078125,-0.7401189863726496,-0.2885901473760605,0.32612492826133965
1772648277260486000,9.92248583984375,-0.7388061502084136,-0.29293431406021114,0.4154010022997856
1772648277270527000,9.93252685546875,-0.7055173363298177,-0.3315753026217222,0.5185764223530889
1772648277280567800,9.94256787109375,-0.7172378770008683,-0.3813146083027124,0.6435625460676848
1772648277290607600,9.952607666015625,-0.9705684949472546,-0.6792553523480892,0.7837814563579857
1772648277300648700,9.962648681640625,-0.8069593567192554,-0.902060483649373,0.7406704827755689
1772648277310688800,9.972688720703125,-0.5075307122036814,-0.47334641079008577,0.7332115450717508
1772648277320729900,9.982729736328125,-0.5328802575156092,-0.37618893585205077,0.7943706549115479
1772648277330769700,9.992769775390625,-0.6546577944472431,-0.640799072703719,0.8027360399357975
1772648277340810800,10.002810791015625,-0.7331362878784536,-0.8112626068711281,0.7938355251215398
1772648277350851800,10.012851806640626,-0.7627160181060433,-0.8621633575469255,0.6619692865043878
1772648277360892000,10.022891845703125,-1.066069142588973,-0.8953215307831763,0.5567801885411143
1772648277370932700,10.0329326171875,-1.355876264539361,-1.0611065517455338,0.5812104270510375
1772648277380972800,10.042972900390625,-1.209135551264882,-0.9189940827935934,0.4455297447122633
1772648277391014000,10.053013916015624,-0.9132587540119886,-0.11727204220592975,0.04046703494489193
