time,seconds_elapsed,z,y,x
1772648267406926800,0.0689267578125,-0.025848936289548874,0.050024889409542084,0.05638198181986809
1772648267416968000,0.078968017578125,-0.02058420516550541,0.041869763284921646,0.0792781338095665
1772648267427008000,0.089008056640625,-0.016343655064702034,0.045226145535707474,0.06295561790466309
1772648267437048800,0.099048828125,-0.012506116181612015,0.04368535056710243,0.05433795973658562
1772648267447089000,0.1090888671875,-0.008461574092507362,0.04535967856645584,0.06543401628732681
1772648267457130000,0.1191298828125,-0.002637860830873251,0.06077730655670166,0.06613322347402573
1772648267467170000,0.129170166015625,-0.005831523798406124,0.05513167381286621,0.07584630697965622
1772648267477211000,0.1392109375,-0.020399846136569977,0.029790028929710388,0.10353634506464005
1772648267487251000,0.1492509765625,-0.03282322734594345,0.009414182044565678,0.12348714470863342
1772648267497292000,0.1592919921875,-0.04061659052968025,0.021487314254045486,0.11384022980928421
1772648267507333000,0.1693330078125,-0.04777409881353378,0.04709360748529434,0.09635764360427856
1772648267517373000,0.179373046875,-0.055326033383607864,0.0636090338230133,0.09428427368402481
1772648267527413800,0.189413818359375,-0.05551911145448685,0.09798591583967209,0.09426829218864441
1772648267537453800,0.199453857421875,-0.04965303838253021,0.1314040720462799,0.08978342264890671
1772648267547495000,0.209494873046875,-0.048111069947481155,0.16229167580604553,0.08097581565380096
1772648267557535000,0.219534912109375,-0.045707251876592636,0.1700931340456009,0.09202194213867188
1772648267567575800,0.229575927734375,-0.048107825219631195,0.15494480729103088,0.12293538451194763
1772648267577616000,0.239615966796875,-0.0478091686964035,0.14003945887088776,0.11313597112894058
1772648267587657000,0.249656982421875,-0.03895282745361328,0.1362346112728119,0.09397239238023758
1772648267597698000,0.259697998046875,-0.039978332817554474,0.11172356456518173,0.08827289938926697
1772648267607738000,0.269738037109375,-0.04387160763144493,0.0623064823448658,0.09238109737634659
1772648267617779000,0.279779052734375,-0.05280597135424614,-0.0008433993789367378,0.07878372818231583
1772648267627818800,0.28981884765625,-0.0557708702981472,-0.03484637662768364,0.0697082057595253
1772648267637859800,0.29985986328125,-0.0547100305557251,-0.05297354608774185,0.07919963449239731
1772648267647900000,0.30989990234375,-0.04997892305254936,-0.07933404296636581,0.08405643701553345
1772648267657941000,0.31994091796875,-0.04267071560025215,-0.08783897757530212,0.07821201533079147
1772648267667980800,0.329980712890625,-0.036428533494472504,-0.0698021873831749,0.05503878742456436
1772648267678022000,0.34002197265625,-0.018873419612646103,-0.03033829666674137,0.05764467269182205
1772648267688063000,0.35006298828125,-0.0009633934823796153,0.02983982302248478,0.07596855610609055
1772648267698103000,0.36010302734375,0.014662189409136772,0.11155104637145996,0.09514930844306946
1772648267708143900,0.370143798828125,0.03786524385213852,0.1904972642660141,0.10337714850902557
1772648267718184000,0.380183837890625,0.06358952075242996,0.2639792561531067,0.10065826028585434
1772648267728225000,0.39022509765625,0.09633628278970718,0.34329432249069214,0.1004239022731781
1772648267738265000,0.40026513671875,0.12883085012435913,0.42620307207107544,0.09972108900547028
1772648267748306000,0.410305908203125,0.15667207539081573,0.4803429841995239,0.08677147328853607
1772648267758345700,0.420345703125,0.18001015484333038,0.49240338802337646,0.05285877734422684
1772648267768386800,0.43038671875,0.18712371587753296,0.46138182282447815,0.009961646050214767
1772648267778427000,0.440427001953125,0.18062159419059753,0.39307305216789246,-0.03978804126381874
1772648267788468000,0.450468017578125,0.16400720179080963,0.3279012441635132,-0.0877092257142067
1772648267798508800,0.4605087890625,0.1486092507839203,0.28095167875289917,-0.12763021886348724
1772648267808548900,0.470548828125,0.12932875752449036,0.23856107890605927,-0.1601596623659134
1772648267818590000,0.48058984375,0.10756797343492508,0.19013309478759766,-0.19044388830661774
1772648267828630000,0.490630126953125,0.08763794600963593,0.13217471539974213,-0.21743369102478027
1772648267838670800,0.5006708984375,0.06320751458406448,0.082133449614048,-0.23987770080566406
1772648267848711000,0.5107109375,0.04150168597698212,0.04305128753185272,-0.23928594589233398
1772648267858752000,0.520751953125,0.029001813381910324,0.015070747584104538,-0.23790383338928223
1772648267868791800,0.530791748046875,0.014295040629804134,-0.007473176810890436,-0.23641405999660492
1772648267878833000,0.5408330078125,-0.004344864748418331,-0.024166561663150787,-0.22076669335365295
1772648267888873700,0.550873779296875,-0.027690401300787926,-0.03372597694396973,-0.20149871706962585
1772648267898913800,0.560913818359375,-0.04911801591515541,-0.03091122768819332,-0.190970316529274
1772648267908955000,0.570954833984375,-0.0626697763800621,0.0009569553076289594,-0.17755144834518433
1772648267918995000,0.580994873046875,-0.0689472183585167,0.05684146657586098,-0.16028538346290588
1772648267929035800,0.591035888671875,-0.07679848372936249,0.11106714606285095,-0.14542947709560394
1772648267939075600,0.60107568359375,-0.0865965336561203,0.16117483377456665,-0.1326596587896347
1772648267949116700,0.61111669921875,-0.09215854853391647,0.20510049164295197,-0.11944078654050827
1772648267959156700,0.62115673828125,-0.09399806708097458,0.26205700635910034,-0.10734428465366364
1772648267969197800,0.63119775390625,-0.09342814981937408,0.31850695610046387,-0.09592466056346893
1772648267979238000,0.64123779296875,-0.09411419928073883,0.36857253313064575,-0.090390644967556
1772648267989278700,0.65127880859375,-0.10239715874195099,0.40063461661338806,-0.0952858030796051
1772648267999319800,0.66131982421875,-0.11883267015218735,0.40285858511924744,-0.09678227454423904
1772648268009360000,0.67135986328125,-0.13505026698112488,0.38477492332458496,-0.10615260154008865
1772648268019401000,0.68140087890625,-0.14908218383789062,0.3686385750770569,-0.12194088846445084
1772648268029440800,0.691440673828125,-0.158073291182518,0.3754163086414337,-0.13581036031246185
1772648268039481900,0.70148193359375,-0.1668153703212738,0.36542361974716187,-0.14486064016819
1772648268049521700,0.711521728515625,-0.1732298582792282,0.3314259946346283,-0.15210577845573425
1772648268059563000,0.72156298828125,-0.17625918984413147,0.2888844311237335,-0.15406619012355804
1772648268069602800,0.731602783203125,-0.16967132687568665,0.25165876746177673,-0.15248027443885803
1772648268079643600,0.7416435546875,-0.16183044016361237,0.23162014782428741,-0.15435734391212463
1772648268089684700,0.751684814453125,-0.15489450097084045,0.22725309431552887,-0.16086876392364502
1772648268099724800,0.761724853515625,-0.14719045162200928,0.226980060338974,-0.156860813498497
1772648268109766000,0.771765869140625,-0.13544563949108124,0.24171745777130127,-0.15041357278823853
1772648268119805700,0.7818056640625,-0.1277783364057541,0.26976320147514343,-0.1395552158355713
1772648268129846800,0.7918466796875,-0.12857595086097717,0.3097854554653168,-0.13722041249275208
1772648268139886800,0.801886962890625,-0.13345085084438324,0.3528509736061096,-0.13988150656223297
1772648268149928000,0.811927978515625,-0.12582649290561676,0.39064574241638184,-0.14806488156318665
1772648268159968000,0.821968017578125,-0.10419537127017975,0.43435239791870117,-0.15066023170948029
1772648268170008800,0.8320087890625,-0.07196712493896484,0.448224812746048,-0.16479550302028656
1772648268180048600,0.842048583984375,-0.036156065762043,0.42142122983932495,-0.15263071656227112
1772648268190089700,0.85208984375,0.008500883355736732,0.3638492822647095,-0.12128663063049316
1772648268200130800,0.862130859375,0.07006090879440308,0.30873164534568787,-0.1018979623913765
1772648268210170600,0.872170654296875,0.14693757891654968,0.2616192698478699,-0.08699145168066025
1772648268220211700,0.882211669921875,0.21451696753501892,0.18238431215286255,-0.07217986136674881
1772648268230251800,0.892251708984375,0.266254723072052,0.0870727077126503,-0.05556866526603699
1772648268240292900,0.90229296875,0.3096691370010376,-0.003945993725210428,-0.030610375106334686
1772648268250333000,0.9123330078125,0.3346115052700043,-0.09325136989355087,0.002882602158933878
1772648268260373800,0.922373779296875,0.3406963348388672,-0.16694991290569305,0.03662652522325516
1772648268270413800,0.932413818359375,0.3423086106777191,-0.22470057010650635,0.06897540390491486
1772648268280455000,0.942454833984375,0.35704872012138367,-0.2617712616920471,0.09922822564840317
1772648268290495000,0.952494873046875,0.377645343542099,-0.2705804407596588,0.1356341689825058
1772648268300535800,0.962535888671875,0.404083788394928,-0.2714487910270691,0.18154580891132355
1772648268310577000,0.972576904296875,0.428326815366745,-0.2846522033214569,0.22373321652412415
1772648268320616700,0.98261669921875,0.4436039626598358,-0.3178204894065857,0.25335514545440674
1772648268330657800,0.99265771484375,0.44952815771102905,-0.35191240906715393,0.28288134932518005
1772648268340697900,1.00269775390625,0.44653746485710144,-0.3630615770816803,0.3151527941226959
1772648268350738700,1.01273876953125,0.42009812593460083,-0.3755536675453186,0.34996774792671204
1772648268360778800,1.02277880859375,0.3694470226764679,-0.36492452025413513,0.3726623058319092
1772648268370819800,1.03281982421875,0.3181345462799072,-0.3042404055595398,0.3807849586009979
1772648268380860000,1.04285986328125,0.26230865716934204,-0.19798389077186584,0.39393219351768494
1772648268390900700,1.052900634765625,0.21558137238025665,-0.05702837184071541,0.41452720761299133
1772648268400941800,1.06294189453125,0.17885415256023407,0.08713129907846451,0.42732563614845276
1772648268410982000,1.07298193359375,0.13878288865089417,0.19530890882015228,0.43050864338874817
1772648268421023000,1.08302294921875,0.09717653691768646,0.24801692366600037,0.4329335391521454
1772648268431062800,1.093062744140625,0.06113171577453613,0.26605424284935,0.41374972462654114
1772648268441103600,1.103103515625,0.020007595419883728,0.2522859573364258,0.3765927255153656
1772648268451143700,1.113143798828125,-0.026994269341230392,0.21911413967609406,0.33710044622421265
1772648268461184800,1.123184814453125,-0.057304851710796356,0.1624635010957718,0.3131062090396881
1772648268471224800,1.133224853515625,-0.09226682782173157,0.08133110404014587,0.2954859435558319
1772648268481265700,1.143265625,-0.11158149689435959,0.015736106783151627,0.29682064056396484
1772648268491305700,1.1533056640625,-0.10585596412420273,-0.05693357065320015,0.3330143392086029
1772648268501346800,1.163346923828125,-0.10186158120632172,-0.16220827400684357,0.3976605534553528
1772648268511388000,1.173387939453125,-0.1129259541630745,-0.2928568124771118,0.42892658710479736
1772648268521428000,1.183427978515625,-0.11512944102287292,-0.39174073934555054,0.4233032763004303
1772648268531468800,1.19346875,-0.1066933423280716,-0.4463648200035095,0.40943673253059387
1772648268541508900,1.2035087890625,-0.0884459912776947,-0.4570665955543518,0.3864739239215851
1772648268551550000,1.213550048828125,-0.07479329407215118,-0.4493359625339508,0.36062073707580566
1772648268561589800,1.22358984375,-0.06696850806474686,-0.4262099862098694,0.32644444704055786
1772648268571630600,1.233630615234375,-0.07391510158777237,-0.39160221815109253,0.27990731596946716
1772648268581670700,1.243670654296875,-0.07349911332130432,-0.35387036204338074,0.23140564560890198
1772648268591711700,1.253711669921875,-0.06808197498321533,-0.3257913291454315,0.19660159945487976
1772648268601752800,1.2637529296875,-0.057696159929037094,-0.3162941336631775,0.17162394523620605
1772648268611793000,1.27379296875,-0.04341469332575798,-0.31105518341064453,0.16462622582912445
1772648268621833700,1.283833740234375,-0.02856978215277195,-0.2900649607181549,0.15089277923107147
1772648268631873800,1.293873779296875,-0.009694893844425678,-0.2562500238418579,0.13907766342163086
1772648268641915000,1.303914794921875,-0.007265406660735607,-0.22787417471408844,0.13058675825595856
1772648268651955000,1.313954833984375,-0.02428513579070568,-0.2114376723766327,0.11570102721452713
1772648268661995800,1.323995849609375,-0.040369000285863876,-0.2014842927455902,0.09160812199115753
1772648268672035600,1.33403564453125,-0.047753676772117615,-0.1750558763742447,0.06623565405607224
1772648268682076700,1.34407666015625,-0.0460362434387207,-0.12743470072746277,0.04818490147590637
1772648268692116700,1.35411669921875,-0.02960001491010189,-0.07023613154888153,0.03733332082629204
1772648268702157800,1.36415771484375,0.012558878399431705,-0.0032096419017761946,0.03946807608008385
1772648268712198700,1.37419873046875,0.027450473979115486,0.0597701221704483,0.05681643635034561
1772648268722238700,1.38423876953125,0.06692299246788025,0.11198151856660843,0.06640571355819702
1772648268732279800,1.39427978515625,0.12013508379459381,0.13946321606636047,0.06701237708330154
1772648268742319900,1.40431982421875,0.15794645249843597,0.1245153620839119,0.0647437795996666
1772648268752360700,1.414360595703125,0.17600056529045105,0.07267160713672638,0.07624570280313492
1772648268762400800,1.42440087890625,0.17494478821754456,-0.0069272443652153015,0.10741942375898361
1772648268772441900,1.43444189453125,0.17644760012626648,-0.08355065435171127,0.14244717359542847
1772648268782482000,1.44448193359375,0.15149353444576263,-0.11682263016700745,0.15475501120090485
1772648268792523000,1.45452294921875,0.15377852320671082,-0.1251727044582367,0.13259831070899963
1772648268802563800,1.464563720703125,0.1565929800271988,-0.14218389987945557,0.1060769259929657
1772648268812603600,1.474603759765625,0.14990472793579102,-0.18908776342868805,0.0641811415553093
1772648268822644700,1.484644775390625,0.14979435503482819,-0.24298398196697235,0.011441915296018124
1772648268832684800,1.494684814453125,0.15091554820537567,-0.2869759500026703,-0.026606399565935135
1772648268842725600,1.5047255859375,0.14323703944683075,-0.3343348205089569,-0.0460042729973793
1772648268852765700,1.514765625,0.13826492428779602,-0.3575938045978546,-0.05391892045736313
1772648268862806800,1.524806884765625,0.13708388805389404,-0.36633557081222534,-0.06268706917762756
1772648268872846800,1.534846923828125,0.1463271826505661,-0.34488219022750854,-0.06844349205493927
1772648268882888000,1.544887939453125,0.14835472404956818,-0.32449182868003845,-0.06921187043190002
1772648268892928000,1.554927978515625,0.12273751944303513,-0.3286125361919403,-0.06891972571611404
1772648268902968800,1.56496875,0.07123162597417831,-0.39623865485191345,-0.0950007438659668
1772648268913010000,1.575010009765625,0.02474934794008732,-0.43661752343177795,-0.09004352986812592
1772648268923049700,1.5850498046875,-0.008428468368947506,-0.4024806320667267,-0.005652099847793579
1772648268933091300,1.59509130859375,-0.05248940363526344,-0.38131195306777954,0.0778726190328598
1772648268943131100,1.605131103515625,-0.08718207478523254,-0.32213595509529114,0.1270865648984909
1772648268953172200,1.615172119140625,-0.08231967687606812,-0.1951492428779602,0.1798776090145111
1772648268963212300,1.62521240234375,-0.07757222652435303,-0.0720180869102478,0.19529004395008087
1772648268973253400,1.63525341796875,-0.08857560902833939,0.02566559426486492,0.15406617522239685
1772648268983293200,1.645293212890625,-0.09277106076478958,0.13004298508167267,0.0873531699180603
1772648268993334300,1.655334228515625,-0.10543172806501389,0.22862973809242249,0.05658647045493126
1772648269003374300,1.665374267578125,-0.10598664730787277,0.3086671829223633,0.05195144563913345
1772648269013415400,1.67541552734375,-0.0950852632522583,0.37878504395484924,0.018328504636883736
1772648269023456300,1.685456298828125,-0.08150658756494522,0.4319089651107788,-0.019461244344711304
1772648269033496300,1.695496337890625,-0.07496639341115952,0.4420042335987091,-0.005371792241930962
1772648269043537400,1.705537353515625,-0.08563538640737534,0.3908102214336395,0.005360731389373541
1772648269053577200,1.7155771484375,-0.11339432001113892,0.2819436490535736,0.01812313124537468
1772648269063618300,1.725618408203125,-0.1570846140384674,0.15748539566993713,0.00955959316343069
1772648269073658000,1.735658203125,-0.20324599742889404,0.04093296453356743,-0.001710371347144246
1772648269083699200,1.74569921875,-0.25703296065330505,-0.03969716280698776,-0.01551665086299181
1772648269093739300,1.7557392578125,-0.2965313494205475,-0.06738098710775375,-0.03541525825858116
1772648269103780400,1.7657802734375,-0.32080262899398804,-0.05009505897760391,-0.060208629816770554
1772648269113820400,1.7758203125,-0.33736908435821533,0.026303842663764954,-0.10369963943958282
1772648269123861200,1.785861328125,-0.3316670060157776,0.1466493308544159,-0.14795061945915222
1772648269133902300,1.79590234375,-0.29781022667884827,0.29932063817977905,-0.18565405905246735
1772648269143942400,1.8059423828125,-0.24097152054309845,0.4702146649360657,-0.2229669988155365
1772648269153983200,1.815983154296875,-0.17274560034275055,0.6368089914321899,-0.24827395379543304
1772648269164023300,1.826023193359375,-0.0891692042350769,0.7760440707206726,-0.2546476721763611
1772648269174064400,1.836064453125,-0.0272296741604805,0.8669068813323975,-0.24620360136032104
1772648269184104200,1.846104248046875,0.011483890004456043,0.898772120475769,-0.23707927763462067
1772648269194145300,1.856145263671875,0.02346385456621647,0.8731591701507568,-0.25042009353637695
1772648269204185300,1.866185302734375,0.011812785640358925,0.8131153583526611,-0.26577839255332947
1772648269214226200,1.87622607421875,-0.016716860234737396,0.7367489337921143,-0.2829406261444092
1772648269224267300,1.886267333984375,-0.05782674625515938,0.6652177572250366,-0.3017936646938324
1772648269234307300,1.896307373046875,-0.09394879639148712,0.6114634871482849,-0.309291809797287
1772648269244348200,1.90634814453125,-0.1310829371213913,0.5872453451156616,-0.30193212628364563
1772648269254388200,1.91638818359375,-0.1563912183046341,0.5800865292549133,-0.28570201992988586
1772648269264429300,1.92642919921875,-0.1726016253232956,0.5884818434715271,-0.26706361770629883
1772648269274469400,1.936469482421875,-0.17843474447727203,0.6095642447471619,-0.24353592097759247
1772648269284510500,1.946510498046875,-0.17143967747688293,0.6285064816474915,-0.2218519002199173
1772648269294550500,1.956550537109375,-0.15081988275051117,0.6545758843421936,-0.20130880177021027
1772648269304591400,1.96659130859375,-0.13333207368850708,0.67759108543396,-0.17890897393226624
1772648269314631200,1.976631103515625,-0.12412338703870773,0.6912201046943665,-0.15752112865447998
1772648269324672300,1.98667236328125,-0.13214874267578125,0.6782429814338684,-0.13341590762138367
1772648269334713300,1.99671337890625,-0.1450863778591156,0.6498633027076721,-0.1179695799946785
1772648269344753200,2.006753173828125,-0.16409030556678772,0.6022354960441589,-0.11165527254343033
1772648269354794200,2.016794189453125,-0.17256715893745422,0.5531246662139893,-0.09818393737077713
1772648269364834300,2.026834228515625,-0.16839446127414703,0.5105667114257812,-0.0796915739774704
1772648269374875400,2.03687548828125,-0.15631969273090363,0.486300528049469,-0.05499502271413803
1772648269384915500,2.04691552734375,-0.14173635840415955,0.48198792338371277,-0.029081178829073906
1772648269394956300,2.056956298828125,-0.13013669848442078,0.48354506492614746,-0.003461569780483842
1772648269404996400,2.066996337890625,-0.11625145375728607,0.49629393219947815,0.015802474692463875
1772648269415037400,2.077037353515625,-0.09746497869491577,0.5128060579299927,0.030651194974780083
1772648269425077200,2.0870771484375,-0.08185407519340515,0.5259767770767212,0.034239500761032104
1772648269435118000,2.0971181640625,-0.07855681329965591,0.5270180702209473,0.02507716417312622
1772648269445159200,2.1071591796875,-0.08898139744997025,0.5204845666885376,0.006576528772711754
1772648269455199200,2.11719921875,-0.11570701748132706,0.49437758326530457,-0.005912364460527897
1772648269465240300,2.127240234375,-0.1496911495923996,0.4580891728401184,-0.01863609068095684
1772648269475280400,2.1372802734375,-0.1811039298772812,0.4196680188179016,-0.029440537095069885
1772648269485321200,2.1473212890625,-0.20772205293178558,0.394980251789093,-0.03754863515496254
1772648269495361300,2.157361328125,-0.2234213799238205,0.4006727635860443,-0.04349441081285477
1772648269505402400,2.16740234375,-0.23434409499168396,0.4207463264465332,-0.0523613765835762
1772648269515442400,2.1774423828125,-0.2388879805803299,0.43430766463279724,-0.07594793289899826
1772648269525483300,2.187483154296875,-0.24173159897327423,0.43734127283096313,-0.10038342326879501
1772648269535523300,2.1975234375,-0.23949933052062988,0.42703723907470703,-0.11332638561725616
1772648269545564400,2.207564453125,-0.23396660387516022,0.4274521470069885,-0.11645582318305969
1772648269555605500,2.21760546875,-0.23184992372989655,0.4466082751750946,-0.12173979729413986
1772648269565645300,2.227645263671875,-0.2352188378572464,0.47822293639183044,-0.1275780200958252
1772648269575686100,2.23768603515625,-0.24015900492668152,0.5124528408050537,-0.13361354172229767
1772648269585726200,2.247726318359375,-0.25132670998573303,0.5238741636276245,-0.1311134696006775
1772648269595767300,2.257767333984375,-0.25829488039016724,0.516370415687561,-0.12500391900539398
1772648269605807400,2.267807373046875,-0.25048789381980896,0.4858163297176361,-0.1332225650548935
1772648269615848200,2.27784814453125,-0.2107948213815689,0.42906516790390015,-0.17665712535381317
1772648269625888300,2.28788818359375,-0.16045404970645905,0.34538158774375916,-0.1989297717809677
1772648269635929300,2.297929443359375,-0.10276571661233902,0.2456185221672058,-0.19197972118854523
1772648269645969400,2.307969482421875,-0.013692071661353111,0.13822364807128906,-0.20658476650714874
1772648269656010500,2.318010498046875,0.10836885124444962,0.015122498385608196,-0.22295521199703217
1772648269666051300,2.32805126953125,0.2452266812324524,-0.10150972008705139,-0.23188617825508118
1772648269676091100,2.338091064453125,0.3655562996864319,-0.20848757028579712,-0.25042498111724854
1772648269686132200,2.34813232421875,0.4491773843765259,-0.27751222252845764,-0.28481948375701904
1772648269696172300,2.35817236328125,0.4850964844226837,-0.3334932029247284,-0.2961997091770172
1772648269706213000,2.368213134765625,0.4620518088340759,-0.39924976229667664,-0.27315419912338257
1772648269716253200,2.378253173828125,0.407203733921051,-0.47378072142601013,-0.21630263328552246
1772648269726294300,2.388294189453125,0.3360963761806488,-0.5408299565315247,-0.12074753642082214
1772648269736334300,2.398334228515625,0.2734295427799225,-0.5638895034790039,0.007013352587819099
1772648269746375400,2.40837548828125,0.23522163927555084,-0.5246809720993042,0.16270077228546143
1772648269756416300,2.418416259765625,0.2210054248571396,-0.4289312958717346,0.313437283039093
1772648269766456300,2.428456298828125,0.21937665343284607,-0.270414799451828,0.4303981363773346
1772648269776497400,2.438497314453125,0.23208631575107574,-0.06294521689414978,0.48898473381996155
1772648269786537500,2.448537353515625,0.2522958815097809,0.16218358278274536,0.5014487504959106
1772648269796578300,2.458578369140625,0.2724703848361969,0.36749255657196045,0.47660142183303833
1772648269806618000,2.4686181640625,0.2890494763851166,0.5373335480690002,0.40776726603507996
1772648269816659200,2.4786591796875,0.29562029242515564,0.6615966558456421,0.2959509789943695
1772648269826699300,2.48869921875,0.29329806566238403,0.6896872520446777,0.21812649071216583
1772648269836740400,2.498740234375,0.2846486568450928,0.649249792098999,0.13649874925613403
1772648269846780400,2.508780517578125,0.2497684508562088,0.5489799380302429,0.05870964378118515
1772648269856821200,2.5188212890625,0.20387153327465057,0.39275383949279785,0.00244956579990685
1772648269866862300,2.5288623046875,0.14877797663211823,0.18912705779075623,-0.0026005799882113934
1772648269876902400,2.53890234375,0.10105814039707184,-0.01675340160727501,0.05902044102549553
1772648269886943200,2.548943115234375,0.06754130125045776,-0.21483777463436127,0.15097656846046448
1772648269896983300,2.5589833984375,0.04213527590036392,-0.40864264965057373,0.23071055114269257
1772648269907024400,2.5690244140625,0.017572391778230667,-0.5659292936325073,0.2998948395252228
1772648269917064200,2.579064208984375,-0.006822963245213032,-0.6867931485176086,0.3433946371078491
1772648269927105300,2.589105224609375,0.0044853645376861095,-0.7556025981903076,0.36961454153060913
1772648269937144800,2.599144775390625,-0.010627808049321175,-0.79905104637146,0.3673489987850189
1772648269947185700,2.609185546875,-0.03191722184419632,-0.8209736943244934,0.33711278438568115
1772648269957226800,2.619226806640625,-0.028653519228100777,-0.8348817825317383,0.3061053156852722
1772648269967266600,2.6292666015625,-0.0325930155813694,-0.8447953462600708,0.27867311239242554
1772648269977308000,2.639307861328125,-0.04401611536741257,-0.8484970927238464,0.2359568178653717
1772648269987347700,2.64934765625,-0.021701689809560776,-0.813844621181488,0.1880994588136673
1772648269997388500,2.659388427734375,-0.006589583121240139,-0.7783114314079285,0.15111373364925385
1772648270007428600,2.6694287109375,0.010928786359727383,-0.7493810057640076,0.11027051508426666
1772648270017469700,2.6794697265625,0.024342861026525497,-0.724021315574646,0.0752619281411171
1772648270027509800,2.689509765625,0.07096292078495026,-0.70321124792099,0.04381929710507393
1772648270037550600,2.699550537109375,0.054219357669353485,-0.6903023719787598,0.04720417410135269
1772648270047590700,2.709590576171875,0.04667474329471588,-0.6736799478530884,0.055184923112392426
1772648270057631700,2.7196318359375,0.07208449393510818,-0.6405539512634277,0.052957456558942795
1772648270067672800,2.7296728515625,0.10215448588132858,-0.5942696332931519,0.0516536608338356
1772648270077713000,2.739712890625,0.12844227254390717,-0.5318502187728882,0.04040579870343208
1772648270087753700,2.749753662109375,0.15967069566249847,-0.4649430215358734,0.020437579602003098
1772648270097793500,2.75979345703125,0.18667328357696533,-0.40284663438796997,0.01238284818828106
1772648270107834600,2.769834716796875,0.1748688817024231,-0.3506433367729187,0.009298445656895638
1772648270117874700,2.779874755859375,0.18274438381195068,-0.3014547526836395,-0.007835268042981625
1772648270127915500,2.78991552734375,0.18837514519691467,-0.25249069929122925,-0.0072325849905610085
1772648270137955600,2.79995556640625,0.19417685270309448,-0.2105107605457306,0.0053894673474133015
1772648270147996700,2.80999658203125,0.20800194144248962,-0.1689019650220871,0.04248354956507683
1772648270158036700,2.82003662109375,0.22524377703666687,-0.12782856822013855,0.10148881375789642
1772648270168077800,2.830077880859375,0.23911209404468536,-0.12077166140079498,0.15971948206424713
1772648270178118700,2.84011865234375,0.2447793036699295,-0.149535670876503,0.19701945781707764
1772648270188158700,2.85015869140625,0.25052106380462646,-0.18298114836215973,0.21470171213150024
1772648270198199800,2.86019970703125,0.2465292364358902,-0.22577627003192902,0.21835875511169434
1772648270208239900,2.870239990234375,0.25038814544677734,-0.2577122151851654,0.21197232604026794
1772648270218280700,2.88028076171875,0.24098028242588043,-0.297791451215744,0.2177489995956421
1772648270228320500,2.890320556640625,0.2089780569076538,-0.36007705330848694,0.20593975484371185
1772648270238361600,2.900361572265625,0.15783284604549408,-0.41835448145866394,0.16343623399734497
1772648270248401700,2.910401611328125,0.09808444231748581,-0.4445814788341522,0.09777136147022247
1772648270258442800,2.92044287109375,0.049434080719947815,-0.4116400480270386,0.031179286539554596
1772648270268483600,2.930483642578125,-0.00001367391087114811,-0.37443098425865173,-0.01250910572707653
1772648270278523600,2.940523681640625,-0.08386756479740143,-0.41507747769355774,-0.056884296238422394
1772648270288564700,2.950564697265625,-0.17589649558067322,-0.47318533062934875,-0.12165060639381409
1772648270298604800,2.960604736328125,-0.23339441418647766,-0.48139557242393494,-0.08524013310670853
1772648270308645600,2.970645751953125,-0.2776853144168854,-0.46151065826416016,0.030511150136590004
1772648270318685700,2.980685791015625,-0.2635362148284912,-0.3730582892894745,0.15453055500984192
1772648270328726800,2.990726806640625,-0.21182429790496826,-0.2764785587787628,0.3286994993686676
1772648270338766600,3.0007666015625,-0.13694366812705994,-0.19189976155757904,0.46697375178337097
1772648270348807700,3.0108076171875,-0.04017949849367142,-0.10160841792821884,0.5617474317550659
1772648270358847700,3.02084765625,0.013777477666735649,-0.04834520071744919,0.5801016688346863
1772648270368888600,3.030888671875,0.04387228190898895,-0.007890336215496063,0.5281789898872375
1772648270378929700,3.0409296875,0.0610123872756958,0.06794025003910065,0.45670533180236816
1772648270388969700,3.0509697265625,0.056387342512607574,0.14554645121097565,0.3599761128425598
1772648270399010600,3.061010498046875,0.037265583872795105,0.2131286859512329,0.2522627115249634
1772648270409050600,3.071050537109375,0.011153222061693668,0.26707932353019714,0.15841326117515564
1772648270419091700,3.081091796875,-0.02756088599562645,0.28551560640335083,0.07333166152238846
1772648270429131800,3.0911318359375,-0.09805191308259964,0.2340170443058014,0.007608700543642044
1772648270439172900,3.1011728515625,-0.18906864523887634,0.10282786935567856,-0.05396358296275139
1772648270449212700,3.111212646484375,-0.28585758805274963,-0.07902230322360992,-0.126751109957695
1772648270459253800,3.121253662109375,-0.3818206191062927,-0.2657919228076935,-0.20512475073337555
1772648270469293600,3.13129345703125,-0.46273455023765564,-0.4064757823944092,-0.26761677861213684
1772648270479334700,3.141334716796875,-0.5217414498329163,-0.4706398546695709,-0.2913578152656555
1772648270489375500,3.15137548828125,-0.5518102049827576,-0.4574817717075348,-0.28438088297843933
1772648270499415600,3.16141552734375,-0.5431720018386841,-0.3808082938194275,-0.27546969056129456
1772648270509456600,3.17145654296875,-0.4996145963668823,-0.26395878195762634,-0.26385870575904846
1772648270519496700,3.18149658203125,-0.4288395047187805,-0.12255160510540009,-0.25340500473976135
1772648270529537800,3.191537841796875,-0.32754823565483093,0.042659759521484375,-0.22722339630126953
1772648270539577600,3.20157763671875,-0.21945692598819733,0.21185064315795898,-0.18595318496227264
1772648270549618700,3.21161865234375,-0.11456236243247986,0.3780932128429413,-0.1730317771434784
1772648270559658800,3.22165869140625,-0.015855491161346436,0.51495361328125,-0.17946757376194
1772648270569699800,3.231699951171875,0.0587674081325531,0.5980580449104309,-0.19935749471187592
1772648270579740700,3.24174072265625,0.1008075401186943,0.6069915890693665,-0.2227024883031845
1772648270589780500,3.251780517578125,0.12333068996667862,0.5629709362983704,-0.24863964319229126
1772648270599821600,3.261821533203125,0.12141694128513336,0.4906158149242401,-0.2703571915626526
1772648270609861600,3.271861572265625,0.10708391666412354,0.42386627197265625,-0.2966454029083252
1772648270619902700,3.28190283203125,0.07835400104522705,0.3776785433292389,-0.3210005462169647
1772648270629942500,3.291942626953125,0.05172325298190117,0.35230469703674316,-0.3298942744731903
1772648270639983600,3.301983642578125,0.03067495860159397,0.3379100263118744,-0.32234448194503784
1772648270650023700,3.312023681640625,0.006518261041492224,0.3191957175731659,-0.3169366419315338
1772648270660064800,3.322064697265625,-0.010561922565102577,0.29980790615081787,-0.3192208409309387
1772648270670104800,3.332104736328125,-0.020807992666959763,0.27836373448371887,-0.3282358646392822
1772648270680145700,3.342145751953125,-0.029791634529829025,0.26959049701690674,-0.3366011381149292
1772648270690186800,3.352186767578125,-0.033490315079689026,0.2712743580341339,-0.34513503313064575
1772648270700226800,3.362226806640625,-0.04460448399186134,0.27207809686660767,-0.3531934916973114
1772648270710268000,3.372267822265625,-0.06849067658185959,0.2623986303806305,-0.3644155263900757
1772648270720307700,3.3823076171875,-0.09873087704181671,0.24756665527820587,-0.35830461978912354
1772648270730348500,3.3923486328125,-0.13106472790241241,0.23324084281921387,-0.3440879285335541
1772648270740388600,3.402388671875,-0.1569509208202362,0.23044398427009583,-0.3246135711669922
1772648270750429700,3.4124296875,-0.17656570672988892,0.2333248406648636,-0.2951730489730835
1772648270760469800,3.4224697265625,-0.19200831651687622,0.22845152020454407,-0.26538026332855225
1772648270770510600,3.432510498046875,-0.19974127411842346,0.21285322308540344,-0.22190628945827484
1772648270780551700,3.4425517578125,-0.20200257003307343,0.18731003999710083,-0.18933582305908203
1772648270790591700,3.452591796875,-0.1945953220129013,0.1718883216381073,-0.15236149728298187
1772648270800632800,3.4626328125,-0.17967815697193146,0.15227147936820984,-0.11555582284927368
1772648270810672600,3.472672607421875,-0.16811250150203705,0.11484739929437637,-0.0972113311290741
1772648270820713700,3.482713623046875,-0.1678352653980255,0.07194547355175018,-0.0917758196592331
1772648270830753500,3.49275341796875,-0.17609171569347382,0.025459669530391693,-0.08364679664373398
1772648270840794600,3.502794677734375,-0.19140994548797607,-0.02208867482841015,-0.07165298610925674
1772648270850834700,3.512834716796875,-0.21140429377555847,-0.04618195444345474,-0.05737339332699776
1772648270860875500,3.52287548828125,-0.22284311056137085,-0.016337504610419273,-0.038397837430238724
1772648270870915600,3.53291552734375,-0.2188539057970047,0.07470013201236725,-0.02040155977010727
1772648270880956700,3.542956787109375,-0.20257186889648438,0.19360442459583282,-0.018086740747094154
1772648270890997800,3.552997802734375,-0.17682914435863495,0.2923411428928375,-0.026471657678484917
1772648270901037600,3.56303759765625,-0.14906463027000427,0.3681192696094513,-0.043371278792619705
1772648270911078700,3.57307861328125,-0.12266750633716583,0.44115883111953735,-0.06747759133577347
1772648270921118700,3.58311865234375,-0.08441545814275742,0.507082462310791,-0.09307695925235748
1772648270931159800,3.593159912109375,-0.05221620947122574,0.5360943078994751,-0.11354140937328339
1772648270941200400,3.603200439453125,-0.032831594347953796,0.5281445384025574,-0.13792185485363007
1772648270951241500,3.613241455078125,-0.030486557632684708,0.5132148265838623,-0.15813207626342773
1772648270961281500,3.623281494140625,-0.03159709647297859,0.497221976518631,-0.17627964913845062
1772648270971322600,3.633322509765625,-0.039654944092035294,0.4805781841278076,-0.19417428970336914
1772648270981362400,3.643362548828125,-0.03191100433468819,0.4385974407196045,-0.23332037031650543
1772648270991403300,3.6534033203125,-0.0063210949301719666,0.3629288375377655,-0.27419349551200867
1772648271001444400,3.6634443359375,0.01719488389790058,0.25148460268974304,-0.27727290987968445
1772648271011484400,3.673484375,0.05791405215859413,0.13509643077850342,-0.2723017930984497
1772648271021525500,3.683525390625,0.11319568008184433,0.028208859264850616,-0.2633594274520874
1772648271031565300,3.6935654296875,0.17863868176937103,-0.07909863442182541,-0.24254649877548218
1772648271041606400,3.7036064453125,0.2592563033103943,-0.1706024557352066,-0.2192361205816269
1772648271051646500,3.713646484375,0.34469708800315857,-0.22888222336769104,-0.20110492408275604
1772648271061687600,3.7236875,0.40842413902282715,-0.26912951469421387,-0.1746906340122223
1772648271071727600,3.7337275390625,0.43418362736701965,-0.32478877902030945,-0.12853902578353882
1772648271081768400,3.7437685546875,0.4418998658657074,-0.3909211754798889,-0.08697694540023804
1772648271091809500,3.7538095703125,0.45062050223350525,-0.44542938470840454,-0.0365278385579586
1772648271101849300,3.763849365234375,0.4753101170063019,-0.49086183309555054,0.029522547498345375
1772648271111890400,3.773890380859375,0.5157535672187805,-0.5236786603927612,0.10250692814588547
1772648271121930200,3.78393017578125,0.5551345348358154,-0.5407921075820923,0.16041043400764465
1772648271131971300,3.793971435546875,0.5970038771629333,-0.5094318985939026,0.19993627071380615
1772648271142011400,3.804011474609375,0.6301426887512207,-0.42432713508605957,0.22880227863788605
1772648271152052500,3.814052490234375,0.6526162624359131,-0.3128109276294708,0.25980129837989807
1772648271162092500,3.824092529296875,0.6507850289344788,-0.17506690323352814,0.2895466685295105
1772648271172133400,3.83413330078125,0.6399931311607361,-0.02738691307604313,0.3056521713733673
1772648271182173400,3.84417333984375,0.6230282187461853,0.11556464433670044,0.29888883233070374
1772648271192214500,3.854214599609375,0.6077107191085815,0.221052885055542,0.27778565883636475
1772648271202255400,3.86425537109375,0.5697298049926758,0.27902165055274963,0.2250790297985077
1772648271212295400,3.87429541015625,0.5104978680610657,0.2697621285915375,0.1507006585597992
1772648271222336500,3.88433642578125,0.4375791847705841,0.19076372683048248,0.08197512477636337
1772648271232376300,3.894376220703125,0.34395965933799744,0.04892980307340622,0.02868659794330597
1772648271242417400,3.90441748046875,0.24306687712669373,-0.1277078241109848,-0.000355440191924572
1772648271252457500,3.91445751953125,0.151602640748024,-0.3071363866329193,-0.0008969774935394526
1772648271262498300,3.924498291015625,0.0800139307975769,-0.4486953914165497,0.041059527546167374
1772648271272538400,3.934538330078125,0.034745875746011734,-0.559398889541626,0.11941556632518768
1772648271282579500,3.944579345703125,0.000685644568875432,-0.6548207998275757,0.22319841384887695
1772648271292620500,3.95462060546875,-0.012327167205512524,-0.7375632524490356,0.32386475801467896
1772648271302660400,3.964660400390625,-0.023982755839824677,-0.8111125826835632,0.40510472655296326
1772648271312701400,3.974701416015625,-0.04235349968075752,-0.8691350817680359,0.44325631856918335
1772648271322741500,3.984741455078125,-0.042730871587991714,-0.9034305214881897,0.4540487825870514
1772648271332782600,3.994782470703125,-0.032111696898937225,-0.9203649759292603,0.4519318640232086
1772648271342822400,4.004822509765625,-0.03076014295220375,-0.9477747678756714,0.43182793259620667
1772648271352863200,4.01486328125,-0.019180890172719955,-0.9780093431472778,0.39240390062332153
1772648271362903300,4.0249033203125,-0.006739933043718338,-0.9895381331443787,0.34367072582244873
1772648271372944400,4.0349443359375,-0.005132462829351425,-0.9836421012878418,0.29835885763168335
1772648271382984400,4.044984375,-0.012661751359701157,-0.9748334288597107,0.2529714107513428
1772648271393025300,4.055025390625,-0.018946273252367973,-0.974230945110321,0.2234964519739151
1772648271403066400,4.06506640625,-0.010919506661593914,-0.9730445146560669,0.21057665348052979
1772648271413106400,4.0751064453125,0.012814470566809177,-0.9645320773124695,0.2164343297481537
1772648271423147500,4.0851474609375,0.05480905994772911,-0.9505563378334045,0.21731556951999664
1772648271433187600,4.0951875,0.04843577742576599,-0.9456378221511841,0.19828353822231293
1772648271443228400,4.105228515625,0.041049499064683914,-0.9288553595542908,0.1457364410161972
1772648271453268500,4.1152685546875,0.04375360533595085,-0.8867865800857544,0.06095390394330025
1772648271463309600,4.1253095703125,0.05868382006883621,-0.799769401550293,-0.01868552900850773
1772648271473349400,4.135349365234375,0.07915205508470535,-0.6971534490585327,-0.08292877674102783
1772648271483390200,4.14539013671875,0.09801974892616272,-0.5960489511489868,-0.12459126859903336
1772648271493431300,4.155431396484375,0.10738085955381393,-0.5178274512290955,-0.14296743273735046
1772648271503471400,4.165471435546875,0.10148115456104279,-0.46685776114463806,-0.137474924325943
1772648271513512400,4.175512451171875,0.09668505936861038,-0.4229324460029602,-0.11964046955108643
1772648271523552500,4.185552490234375,0.08680819720029831,-0.3866082727909088,-0.10123509913682938
1772648271533593300,4.19559326171875,0.07886505872011185,-0.3628960847854614,-0.08217182755470276
1772648271543633400,4.20563330078125,0.07189902663230896,-0.35284852981567383,-0.05185066908597946
1772648271553674500,4.215674560546875,0.08601202815771103,-0.3546190559864044,-0.009493506513535976
1772648271563714600,4.225714599609375,0.078982874751091,-0.3738127052783966,0.03197457268834114
1772648271573755400,4.23575537109375,0.08840805292129517,-0.3907952904701233,0.04733022302389145
1772648271583795200,4.245795166015625,0.1177118793129921,-0.409388929605484,0.056292824447155
1772648271593836500,4.25583642578125,0.15003526210784912,-0.4194283187389374,0.08365058153867722
1772648271603877600,4.265877685546875,0.17437894642353058,-0.4309616684913635,0.11438852548599243
1772648271613917400,4.27591748046875,0.17513248324394226,-0.45797407627105713,0.1392558366060257
1772648271623958300,4.285958251953125,0.16323773562908173,-0.5143590569496155,0.15371812880039215
1772648271633998300,4.295998291015625,0.13872627913951874,-0.5554808378219604,0.14605428278446198
1772648271644039400,4.306039306640625,0.11659274995326996,-0.5648930072784424,0.12570960819721222
1772648271654079500,4.31607958984375,0.0934048444032669,-0.535995364189148,0.09189361333847046
1772648271664120300,4.326120361328125,0.0696537122130394,-0.46570175886154175,0.04660176858305931
1772648271674160400,4.336160400390625,0.03103654459118843,-0.390672504901886,-0.013197916559875011
1772648271684201500,4.346201416015625,-0.01206112653017044,-0.31399211287498474,-0.0660901591181755
1772648271694242600,4.35624267578125,-0.06574814766645432,-0.2748306691646576,-0.09238459169864655
1772648271704282600,4.36628271484375,-0.13558422029018402,-0.28687989711761475,-0.12400750070810318
1772648271714323500,4.376323486328125,-0.20228946208953857,-0.2580127418041229,-0.16626186668872833
1772648271724363300,4.38636328125,-0.24275566637516022,-0.140204057097435,-0.1363668143749237
1772648271734404400,4.396404296875,-0.27665263414382935,-0.025540698319673538,-0.05872918665409088
1772648271744444400,4.4064443359375,-0.2942391037940979,0.08241026848554611,0.01535595953464508
1772648271754485200,4.4164853515625,-0.2662665545940399,0.24261224269866943,0.10968799144029617
1772648271764525300,4.426525390625,-0.23748339712619781,0.39537784457206726,0.18157923221588135
1772648271774566400,4.43656640625,-0.20684967935085297,0.5228424668312073,0.20669148862361908
1772648271784607500,4.446607421875,-0.18440456688404083,0.6303852200508118,0.18957269191741943
1772648271794647600,4.4566474609375,-0.14511848986148834,0.723387598991394,0.16961991786956787
1772648271804688400,4.4666884765625,-0.10454842448234558,0.8079373240470886,0.1461726427078247
1772648271814728400,4.476728515625,-0.06996514648199081,0.8557440042495728,0.11832316964864731
1772648271824769500,4.48676953125,-0.05657210573554039,0.8395810127258301,0.08243174105882645
1772648271834809600,4.4968095703125,-0.05887813866138458,0.7717082500457764,0.047709718346595764
1772648271844850400,4.506850341796875,-0.0733841136097908,0.6498073935508728,0.0155539121478796
1772648271854890200,4.51689013671875,-0.10918774455785751,0.4585394263267517,-0.01641209051012993
1772648271864931300,4.526931396484375,-0.1605857014656067,0.22650299966335297,-0.025314506143331528
1772648271874971400,4.536971435546875,-0.21749885380268097,-0.013892348855733871,-0.027077293023467064
1772648271885012500,4.547012451171875,-0.25990116596221924,-0.20389556884765625,-0.04114437475800514
1772648271895053300,4.55705322265625,-0.27998602390289307,-0.29089072346687317,-0.05985176935791969
1772648271905093400,4.56709326171875,-0.28786978125572205,-0.2917623817920685,-0.05957719683647156
1772648271915134500,4.577134521484375,-0.28533613681793213,-0.22826237976551056,-0.06473354995250702
1772648271925174500,4.587174560546875,-0.2739953398704529,-0.0965469628572464,-0.08188962936401367
1772648271935215400,4.59721533203125,-0.2403276562690735,0.09686430543661118,-0.0827074870467186
1772648271945255200,4.607255126953125,-0.19535166025161743,0.2971814274787903,-0.08475092798471451
1772648271955296300,4.617296142578125,-0.12818247079849243,0.48298126459121704,-0.11747761815786362
1772648271965336300,4.62733642578125,-0.07290216535329819,0.6166325807571411,-0.16322992742061615
1772648271975377400,4.63737744140625,-0.032049793750047684,0.7032479643821716,-0.22399407625198364
1772648271985418200,4.647418212890625,-0.006838178262114525,0.7232307195663452,-0.2897099554538727
1772648271995458300,4.657458251953125,0.0005013766931369901,0.684486985206604,-0.3385123312473297
1772648272005499400,4.66749951171875,-0.011058872565627098,0.5967501997947693,-0.3596767485141754
1772648272015539500,4.67753955078125,-0.036976106464862823,0.5008645057678223,-0.364890992641449
1772648272025580300,4.687580322265625,-0.06108330935239792,0.42175477743148804,-0.36383238434791565
1772648272035620000,4.6976201171875,-0.08918240666389465,0.3613077402114868,-0.369331955909729
1772648272045661200,4.7076611328125,-0.12638570368289948,0.3261559009552002,-0.36770689487457275
1772648272055701200,4.717701171875,-0.17193874716758728,0.31177592277526855,-0.3648415505886078
1772648272065742300,4.727742431640625,-0.21177351474761963,0.3084445595741272,-0.3549335300922394
1772648272075783200,4.737783203125,-0.23392869532108307,0.32111093401908875,-0.3435841202735901
1772648272085823200,4.7478232421875,-0.2549796402454376,0.3479739725589752,-0.3316291868686676
1772648272095864300,4.7578642578125,-0.28026795387268066,0.3799317181110382,-0.3087681531906128
1772648272105904400,4.767904296875,-0.30618104338645935,0.4215444028377533,-0.28467506170272827
1772648272115945200,4.7779453125,-0.3260350823402405,0.46303969621658325,-0.2578093409538269
1772648272125985300,4.7879853515625,-0.341386616230011,0.4893985986709595,-0.22795209288597107
1772648272136026400,4.7980263671875,-0.355581134557724,0.499788761138916,-0.2028001844882965
1772648272146067500,4.8080673828125,-0.36066511273384094,0.48807138204574585,-0.18368375301361084
1772648272156107300,4.818107177734375,-0.35601916909217834,0.4599233567714691,-0.18665893375873566
1772648272166148000,4.828148193359375,-0.34069427847862244,0.43169572949409485,-0.17505553364753723
1772648272176188200,4.838188232421875,-0.3165304660797119,0.39735180139541626,-0.16100259125232697
1772648272186229200,4.848229248046875,-0.28373682498931885,0.36597922444343567,-0.1450691670179367
1772648272196269300,4.858269287109375,-0.25563016533851624,0.33208706974983215,-0.13353511691093445
1772648272206310400,4.868310302734375,-0.23789484798908234,0.280317097902298,-0.13158780336380005
1772648272216350200,4.87835009765625,-0.2343674898147583,0.22826845943927765,-0.1419849842786789
1772648272226391300,4.888391357421875,-0.244492307305336,0.18221734464168549,-0.16631004214286804
1772648272236432400,4.898432373046875,-0.2702208161354065,0.15995167195796967,-0.1983020305633545
1772648272246472400,4.908472412109375,-0.3069191873073578,0.1667557805776596,-0.22371071577072144
1772648272256513300,4.91851318359375,-0.3499484360218048,0.1958671659231186,-0.23875205218791962
1772648272266553300,4.92855322265625,-0.3825913369655609,0.26388826966285706,-0.2427140325307846
1772648272276594400,4.938594482421875,-0.3966684639453888,0.357231467962265,-0.23400330543518066
1772648272286634200,4.94863427734375,-0.3974354565143585,0.4529619812965393,-0.21862062811851501
1772648272296675300,4.95867529296875,-0.38872817158699036,0.5314594507217407,-0.20192916691303253
1772648272306715100,4.968715087890625,-0.37974825501441956,0.5770708918571472,-0.19438043236732483
1772648272316756200,4.978756103515625,-0.3606548607349396,0.6013591289520264,-0.1825438290834427
1772648272326797300,4.98879736328125,-0.3273738622665405,0.6163351535797119,-0.16882216930389404
1772648272336837400,4.99883740234375,-0.27806708216667175,0.617427408695221,-0.1422724723815918
1772648272346878200,5.008878173828125,-0.21205930411815643,0.608307957649231,-0.11263681203126907
1772648272356918300,5.018918212890625,-0.1214478462934494,0.6074109077453613,-0.11215835064649582
1772648272366959400,5.02895947265625,-0.015206628479063511,0.5637385249137878,-0.11009200662374496
1772648272376999400,5.03899951171875,0.06352608650922775,0.3718026280403137,-0.08268366754055023
1772648272387040300,5.049040283203125,0.17719566822052002,0.22779858112335205,-0.06472144275903702
1772648272397081300,5.059081298828125,0.3167175054550171,0.11926933377981186,-0.04238895699381828
1772648272407121400,5.069121337890625,0.4561358392238617,0.02203013189136982,-0.05446266382932663
1772648272417162500,5.07916259765625,0.5782621502876282,-0.06768489629030228,-0.10589322447776794
1772648272427202300,5.089202392578125,0.648811936378479,-0.17680047452449799,-0.13128726184368134
1772648272437243100,5.0992431640625,0.6722603440284729,-0.2581052780151367,-0.134521484375
1772648272447283200,5.109283203125,0.6657590270042419,-0.31330594420433044,-0.1142100915312767
1772648272457324300,5.11932421875,0.6427391171455383,-0.3457084596157074,-0.04203733801841736
1772648272467365400,5.129365478515625,0.599042534828186,-0.370545893907547,0.06706411391496658
1772648272477405200,5.1394052734375,0.5646061897277832,-0.3888581097126007,0.18240104615688324
1772648272487446300,5.1494462890625,0.5445927977561951,-0.4179060161113739,0.29991596937179565
1772648272497486300,5.159486328125,0.5297780632972717,-0.4455831050872803,0.3972722589969635
1772648272507527400,5.16952734375,0.5107340812683105,-0.45369189977645874,0.4586149752140045
1772648272517567500,5.1795673828125,0.4779835045337677,-0.43335139751434326,0.48638561367988586
1772648272527608300,5.1896083984375,0.4371580481529236,-0.37465107440948486,0.49615490436553955
1772648272537648000,5.199648193359375,0.39568302035331726,-0.2607274353504181,0.5108686089515686
1772648272547689200,5.209689208984375,0.3629399836063385,-0.11682196706533432,0.5251852869987488
1772648272557730300,5.219730224609375,0.32212865352630615,0.014674924314022064,0.49714499711990356
1772648272567770400,5.229770263671875,0.27413368225097656,0.12256863713264465,0.4141795337200165
1772648272577811200,5.239811279296875,0.21869654953479767,0.19548577070236206,0.32242003083229065
1772648272587851300,5.249851318359375,0.16714680194854736,0.23219691216945648,0.25526946783065796
1772648272597892400,5.259892333984375,0.11847174167633057,0.19574420154094696,0.21387168765068054
1772648272607932400,5.269932373046875,0.07187148183584213,0.08784862607717514,0.1979752779006958
1772648272617973200,5.27997314453125,0.03253181651234627,-0.06512925773859024,0.21066954731941223
1772648272628014300,5.290014404296875,-0.014025567099452019,-0.24469661712646484,0.23679329454898834
1772648272638054400,5.300054443359375,-0.03912673145532608,-0.40063053369522095,0.2507723867893219
1772648272648095500,5.310095458984375,-0.03522812947630882,-0.5181726813316345,0.26734232902526855
1772648272659390200,5.32139013671875,-0.015390442684292793,-0.6297645568847656,0.3099651336669922
1772648272669431300,5.331431396484375,-0.004021141678094864,-0.723354697227478,0.3457164764404297
1772648272679471400,5.341471435546875,0.014459043741226196,-0.7760127186775208,0.3686719834804535
1772648272689512200,5.35151220703125,0.035044748336076736,-0.7867886424064636,0.37367045879364014
1772648272699553300,5.36155322265625,0.03947316110134125,-0.7456752061843872,0.3456745445728302
1772648272709593300,5.37159326171875,0.05530964583158493,-0.7030396461486816,0.31988874077796936
1772648272719634200,5.38163427734375,0.060222551226615906,-0.6603431701660156,0.28687864542007446
1772648272729674200,5.39167431640625,0.043365009129047394,-0.6244701147079468,0.22825445234775543
1772648272739715300,5.40171533203125,0.01801428757607937,-0.5758036375045776,0.14871838688850403
1772648272749755400,5.41175537109375,0.001269928878173232,-0.5051699280738831,0.07886818796396255
1772648272759796500,5.42179638671875,0.0023221992887556553,-0.4468357264995575,0.03200593963265419
1772648272769837300,5.43183740234375,0.000650000583846122,-0.44077277183532715,0.015836555510759354
1772648272779877000,5.441877197265625,0.006300483364611864,-0.43250763416290283,-0.002113988855853677
1772648272789918200,5.451918212890625,0.015678538009524345,-0.40699002146720886,-0.022816604003310204
1772648272799958300,5.461958251953125,0.022604165598750114,-0.36633536219596863,-0.031917754560709
1772648272809999000,5.4719990234375,0.026281457394361496,-0.325994610786438,-0.03666697070002556
1772648272820039200,5.4820390625,0.033493299037218094,-0.29043713212013245,-0.03726964443922043
1772648272830080300,5.492080322265625,0.054979149252176285,-0.2477373629808426,-0.025989023968577385
1772648272840121300,5.502121337890625,0.07992666214704514,-0.19764921069145203,-0.010662388987839222
1772648272850161400,5.512161376953125,0.10361840575933456,-0.15934497117996216,0.002498686546459794
1772648272860202200,5.5222021484375,0.1201564148068428,-0.1274610012769699,0.004713030532002449
1772648272870242300,5.5322421875,0.13187724351882935,-0.09362821280956268,0.0022022021003067493
1772648272880283400,5.542283447265625,0.13503609597682953,-0.07164914160966873,0.009670869447290897
1772648272890323500,5.552323486328125,0.13662360608577728,-0.073458231985569,0.026649584993720055
1772648272900364300,5.5623642578125,0.136326402425766,-0.07968560606241226,0.03079969435930252
1772648272910405400,5.5724052734375,0.10970145463943481,-0.10614464432001114,0.0026825719978660345
1772648272920445200,5.582445068359375,0.07732967287302017,-0.13475562632083893,-0.04554903507232666
1772648272930486300,5.592486328125,0.04673980176448822,-0.14500212669372559,-0.0987912192940712
1772648272940525800,5.60252587890625,0.021438876166939735,-0.14990448951721191,-0.12932337820529938
1772648272950566700,5.612566650390625,0.0001530274748802185,-0.15481242537498474,-0.1233549639582634
1772648272960606700,5.622606689453125,-0.008683091960847378,-0.15587179362773895,-0.09247805178165436
1772648272970647800,5.632647705078125,-0.002254221122711897,-0.13813219964504242,-0.05602284520864487
1772648272980689000,5.64268896484375,0.018751641735434532,-0.11204355210065842,-0.006876213476061821
1772648272990729000,5.65272900390625,0.05104513466358185,-0.09144186973571777,0.03109460510313511
1772648273000769800,5.662769775390625,0.09637465327978134,-0.07972554862499237,0.049465157091617584
1772648273010809900,5.672809814453125,0.1402300000190735,-0.06699084490537643,0.05026623606681824
1772648273020851000,5.682850830078125,0.1810457557439804,-0.061838485300540924,0.032912787050008774
1772648273030891800,5.692891845703125,0.21742640435695648,-0.06291546672582626,-0.002856394276022911
1772648273040931600,5.702931640625,0.22649820148944855,-0.09345106035470963,-0.04833461716771126
1772648273050972700,5.71297265625,0.19559381902217865,-0.15066267549991608,-0.07646052539348602
1772648273061012700,5.7230126953125,0.11782762408256531,-0.2913089096546173,-0.08990292251110077
1772648273071053800,5.7330537109375,0.028577907010912895,-0.418315589427948,-0.11714813113212585
1772648273081094000,5.743093994140625,-0.06143911927938461,-0.43076831102371216,-0.08101973682641983
1772648273091134700,5.753134765625,-0.13320331275463104,-0.38774576783180237,0.020959891378879547
1772648273101175800,5.76317578125,-0.1678890883922577,-0.26071929931640625,0.14779511094093323
1772648273111215900,5.7732158203125,-0.17088806629180908,-0.07249614596366882,0.26768559217453003
1772648273121256700,5.783256591796875,-0.15225543081760406,0.08807750046253204,0.3431466519832611
1772648273131296800,5.793296875,-0.10065988451242447,0.20985320210456848,0.3697156608104706
1772648273141337900,5.803337890625,-0.048898231238126755,0.2828550934791565,0.35106030106544495
1772648273151379000,5.81337890625,-0.02630610205233097,0.3027885854244232,0.300768107175827
1772648273161419000,5.8234189453125,0.0011576764518395066,0.35269010066986084,0.21587228775024414
1772648273171459800,5.8334599609375,0.013309414498507977,0.4208103120326996,0.14351660013198853
1772648273181499600,5.843499755859375,0.015646332874894142,0.4779392182826996,0.10229528695344925
1772648273191540700,5.853540771484375,0.017789645120501518,0.5122686624526978,0.054841749370098114
1772648273201580800,5.863580810546875,0.01113439816981554,0.503923237323761,0.022992903366684914
1772648273211622000,5.873621826171875,-0.015948884189128876,0.43664219975471497,0.003784055355936289
1772648273221662700,5.883662841796875,-0.06024239957332611,0.31849271059036255,-0.008337466046214104
1772648273231702800,5.893702880859375,-0.13084812462329865,0.15404145419597626,-0.028579887002706528
1772648273241744000,5.903743896484375,-0.2045225352048874,-0.013243627734482288,-0.04960869997739792
1772648273251784000,5.913783935546875,-0.2735316753387451,-0.139274001121521,-0.055897753685712814
1772648273261824800,5.92382470703125,-0.32655227184295654,-0.21124280989170074,-0.051765769720077515
1772648273271864800,5.93386474609375,-0.35968732833862305,-0.21353499591350555,-0.06992373615503311
1772648273281906000,5.943906005859375,-0.37005192041397095,-0.1475069373846054,-0.1120619997382164
1772648273291947000,5.953947021484375,-0.3567904531955719,-0.048098865896463394,-0.15515592694282532
1772648273301986800,5.96398681640625,-0.31313636898994446,0.06720360368490219,-0.17694221436977386
1772648273312027600,5.974027587890625,-0.2549947500228882,0.19733203947544098,-0.17715421319007874
1772648273322067700,5.984067626953125,-0.19382520020008087,0.3299407362937927,-0.16567613184452057
1772648273332108800,5.99410888671875,-0.1347496211528778,0.4405199885368347,-0.14349466562271118
1772648273342149600,6.004149658203125,-0.07123793661594391,0.5325414538383484,-0.14927250146865845
1772648273352189700,6.014189697265625,-0.01314400602132082,0.5899797677993774,-0.1595432609319687
1772648273362230800,6.024230712890625,0.03032817132771015,0.6162787079811096,-0.17079713940620422
1772648273372270800,6.034270751953125,0.04962490126490593,0.6089622378349304,-0.17951926589012146
1772648273382312000,6.04431201171875,0.03961895778775215,0.5886899828910828,-0.18183298408985138
1772648273392351700,6.054351806640625,0.007193371653556824,0.5743246674537659,-0.1950627714395523
1772648273402392800,6.064392822265625,-0.04028588533401489,0.5556474328041077,-0.22828808426856995
1772648273412434000,6.074433837890625,-0.09131311625242233,0.5274213552474976,-0.2600262761116028
1772648273422474000,6.084473876953125,-0.13402003049850464,0.5234727263450623,-0.2843429744243622
1772648273432514800,6.094514892578125,-0.16455316543579102,0.5320142507553101,-0.3048061728477478
1772648273442554600,6.1045546875,-0.180850550532341,0.5544028282165527,-0.32777097821235657
1772648273452595700,6.114595703125,-0.19153302907943726,0.5703330636024475,-0.32686495780944824
1772648273462636800,6.12463671875,-0.19913363456726074,0.596534788608551,-0.31978797912597656
1772648273472676900,6.1346767578125,-0.22014117240905762,0.6306977868080139,-0.32483386993408203
1772648273482717700,6.1447177734375,-0.24664059281349182,0.6764084100723267,-0.332254022359848
1772648273492757800,6.1547578125,-0.2726607322692871,0.7207441926002502,-0.3345896005630493
1772648273502798800,6.164798828125,-0.30223432183265686,0.7433292865753174,-0.3394036889076233
1772648273512839000,6.1748388671875,-0.33016103506088257,0.7473434805870056,-0.33508723974227905
1772648273522879700,6.184879638671875,-0.3564679026603699,0.748734712600708,-0.30434101819992065
1772648273532920800,6.1949208984375,-0.37047508358955383,0.7358636856079102,-0.2717689573764801
1772648273542961000,6.2049609375,-0.3765116333961487,0.7129727005958557,-0.23839017748832703
1772648273553002000,6.215001953125,-0.3836904466152191,0.6763992309570312,-0.2065446376800537
1772648273563041800,6.225041748046875,-0.38822901248931885,0.63398277759552,-0.18162117898464203
1772648273573082600,6.23508251953125,-0.3891017436981201,0.6069583892822266,-0.16523633897304535
1772648273583123700,6.245123779296875,-0.3803342878818512,0.5957019329071045,-0.15267911553382874
1772648273593163800,6.255163818359375,-0.3667127788066864,0.5852285623550415,-0.14476285874843597
1772648273603204600,6.26520458984375,-0.34969592094421387,0.5479841232299805,-0.14548368752002716
1772648273613244700,6.27524462890625,-0.34331417083740234,0.4900233745574951,-0.16343793272972107
1772648273623285800,6.28528564453125,-0.33496230840682983,0.41219404339790344,-0.1797654777765274
1772648273633325800,6.295325927734375,-0.3138447701931,0.33507370948791504,-0.17558005452156067
1772648273643367000,6.305366943359375,-0.290486603975296,0.2924477458000183,-0.15009810030460358
1772648273653407700,6.31540771484375,-0.26530084013938904,0.2870745360851288,-0.11734174937009811
1772648273663447800,6.32544775390625,-0.24044199287891388,0.3038720190525055,-0.09060975909233093
1772648273673489000,6.335489013671875,-0.21871964633464813,0.30848729610443115,-0.07616104930639267
1772648273683529000,6.345529052734375,-0.20246636867523193,0.30180227756500244,-0.08868728578090668
1772648273693569800,6.35556982421875,-0.1818668097257614,0.2990749478340149,-0.10895340889692307
1772648273703611000,6.36561083984375,-0.1550629734992981,0.30514103174209595,-0.12493214756250381
1772648273713650700,6.375650634765625,-0.1251588761806488,0.3147108256816864,-0.13251923024654388
1772648273723691800,6.38569189453125,-0.09944535791873932,0.3306256830692291,-0.1334161013364792
1772648273733731800,6.39573193359375,-0.08991576731204987,0.3621569871902466,-0.13767875730991364
1772648273743772700,6.405772705078125,-0.0910014659166336,0.4110936224460602,-0.12894003093242645
1772648273753812700,6.415812744140625,-0.10686032474040985,0.45789068937301636,-0.11544045805931091
1772648273763853800,6.425853759765625,-0.12003309279680252,0.4785187542438507,-0.12647049129009247
1772648273773895000,6.43589501953125,-0.09206217527389526,0.48160162568092346,-0.17827829718589783
1772648273783934700,6.445934814453125,-0.04319486767053604,0.46980729699134827,-0.209305539727211
1772648273793975800,6.455975830078125,-0.005656281486153603,0.3627282381057739,-0.18867003917694092
1772648273804015900,6.466015869140625,0.05483091250061989,0.22644342482089996,-0.17166800796985626
1772648273814057000,6.476056884765625,0.15254415571689606,0.07426773756742477,-0.15561367571353912
1772648273824097800,6.486097900390625,0.2747417688369751,-0.06328744441270828,-0.14996352791786194
1772648273834137900,6.496137939453125,0.4091978371143341,-0.1737859845161438,-0.1864384561777115
1772648273844179000,6.506178955078125,0.5117689371109009,-0.25449976325035095,-0.21547436714172363
1772648273854218800,6.51621875,0.5624598264694214,-0.3248935043811798,-0.20384886860847473
1772648273864259800,6.526259765625,0.5783218741416931,-0.3967512547969818,-0.15858806669712067
1772648273874299600,6.536299560546875,0.5779668688774109,-0.45224568247795105,-0.08066397905349731
1772648273884340700,6.5463408203125,0.5685634016990662,-0.4750526547431946,0.014453512616455555
1772648273894381800,6.5563818359375,0.5561836957931519,-0.4753067195415497,0.11242002993822098
1772648273904422000,6.566421875,0.533209502696991,-0.46378761529922485,0.19474075734615326
1772648273914462700,6.576462646484375,0.4931667447090149,-0.4241885542869568,0.2604619860649109
1772648273924502800,6.586502685546875,0.4504919946193695,-0.3609778881072998,0.30455461144447327
1772648273934543600,6.596543701171875,0.3973749876022339,-0.27355721592903137,0.32999950647354126
1772648273944584700,6.606584716796875,0.3487795889377594,-0.1303204894065857,0.32395026087760925
1772648273954624800,6.616624755859375,0.3180603086948395,0.04937523975968361,0.28306517004966736
1772648273964665600,6.62666552734375,0.31190964579582214,0.18980740010738373,0.2809109091758728
1772648273974705400,6.636705322265625,0.3054637312889099,0.291608065366745,0.2625851631164551
1772648273984746500,6.64674658203125,0.29168540239334106,0.343153178691864,0.21656113862991333
1772648273994787300,6.656787353515625,0.26832151412963867,0.33559274673461914,0.15578407049179077
1772648274004827400,6.666827392578125,0.24224132299423218,0.2562415301799774,0.08418319374322891
1772648274014868500,6.676868408203125,0.19867387413978577,0.10495508462190628,0.018853722140192986
1772648274024908500,6.686908447265625,0.15119752287864685,-0.08533219248056412,-0.028450962156057358
1772648274034949600,6.69694970703125,0.112727090716362,-0.29137322306632996,-0.027517259120941162
1772648274044989700,6.70698974609375,0.09492351114749908,-0.45543187856674194,0.023030994459986687
1772648274055030500,6.717030517578125,0.09431152045726776,-0.6021094918251038,0.11460831016302109
1772648274065071600,6.727071533203125,0.09628090262413025,-0.7220076322555542,0.22836412489414215
1772648274075111700,6.737111572265625,0.08447164297103882,-0.8084860444068909,0.330462783575058
1772648274085152500,6.747152587890625,0.0733298808336258,-0.8695840239524841,0.40128856897354126
1772648274095192600,6.757192626953125,0.06062899902462959,-0.8919380307197571,0.4399619400501251
1772648274105233700,6.767233642578125,0.04392557218670845,-0.8811120986938477,0.4461580216884613
1772648274115274800,6.777274658203125,0.02906806208193302,-0.8511560559272766,0.4219730496406555
1772648274125314600,6.787314453125,0.004389608278870583,-0.8165534734725952,0.3859664797782898
1772648274135355400,6.79735546875,-0.021232131868600845,-0.7759261727333069,0.33040815591812134
1772648274145395500,6.8073955078125,-0.05688365548849106,-0.7305805087089539,0.264507532119751
1772648274155436500,6.8174365234375,-0.06974326819181442,-0.684559166431427,0.20079752802848816
1772648274165476600,6.8274765625,-0.08489692956209183,-0.6554567217826843,0.15897345542907715
1772648274175517400,6.837517333984375,-0.0992732048034668,-0.6409017443656921,0.14534951746463776
1772648274185558500,6.84755859375,-0.10241702944040298,-0.6289300918579102,0.1459236890077591
1772648274195598600,6.8575986328125,-0.10326418280601501,-0.6331887245178223,0.15676860511302948
1772648274205639700,6.8676396484375,-0.08729200810194016,-0.616831362247467,0.16460354626178741
1772648274215679700,6.8776796875,-0.07227524369955063,-0.5952272415161133,0.1838693916797638
1772648274225720600,6.887720458984375,-0.04846997931599617,-0.5515367388725281,0.16973289847373962
1772648274235761700,6.89776171875,-0.027565227821469307,-0.5015244483947754,0.13322095572948456
1772648274245801500,6.907801513671875,-0.010371481999754906,-0.4275452494621277,0.08673843741416931
1772648274255842600,6.917842529296875,0.013880860060453415,-0.334684818983078,0.030938822776079178
1772648274265882400,6.92788232421875,0.03358486294746399,-0.24203674495220184,-0.018514281138777733
1772648274275923500,6.93792333984375,0.0525662787258625,-0.15698736906051636,-0.06646795570850372
1772648274285964500,6.947964599609375,0.059233441948890686,-0.1002994179725647,-0.12060042470693588
1772648274296004600,6.958004638671875,0.05969123914837837,-0.05619560554623604,-0.1542300283908844
1772648274306045400,6.96804541015625,0.05126239359378815,-0.02389136515557766,-0.15998192131519318
1772648274316085500,6.97808544921875,0.035307131707668304,-0.0029698365833610296,-0.1286919116973877
1772648274326126600,6.988126708984375,0.013645702973008156,-0.0025063357315957546,-0.07220514118671417
1772648274336166700,6.998166748046875,-0.010723019018769264,-0.001945740426890552,-0.012566577643156052
1772648274346207700,7.008207763671875,-0.02148735523223877,0.017523664981126785,0.04531996697187424
1772648274356248600,7.01824853515625,-0.01938186027109623,0.04468578100204468,0.08518296480178833
1772648274366288600,7.02828857421875,0.00014665379421785474,0.07063449919223785,0.10090640932321548
1772648274376329700,7.038329833984375,0.028260845690965652,0.07438875734806061,0.10384120792150497
1772648274386369500,7.04836962890625,0.05993097275495529,0.04755053669214249,0.10256613045930862
1772648274396410400,7.058410400390625,0.08209885656833649,-0.011814252473413944,0.1017804965376854
1772648274406451500,7.068451416015625,0.08958712220191956,-0.09045585244894028,0.1223212480545044
1772648274416491500,7.078491455078125,0.08772823959589005,-0.17274487018585205,0.1399492472410202
1772648274426532600,7.08853271484375,0.09715573489665985,-0.21108970046043396,0.16956041753292084
1772648274436572700,7.09857275390625,0.10512258112430573,-0.21388176083564758,0.15339024364948273
1772648274446613500,7.108613525390625,0.10029788315296173,-0.2146996557712555,0.11502353101968765
1772648274456653600,7.118653564453125,0.07185718417167664,-0.2407727986574173,0.11139097809791565
1772648274466694700,7.128694580078125,0.005318444687873125,-0.34651291370391846,0.08976418524980545
1772648274476735500,7.138735595703125,-0.06591977924108505,-0.40693551301956177,0.09532725811004639
1772648274486775600,7.148775634765625,-0.1049644947052002,-0.35093995928764343,0.19057758152484894
1772648274496816600,7.158816650390625,-0.11383815109729767,-0.266092985868454,0.3128012418746948
1772648274506856400,7.1688564453125,-0.08603394776582718,-0.1401950716972351,0.4263931214809418
1772648274516897500,7.1788974609375,-0.007195855025202036,0.01443951390683651,0.5247844457626343
1772648274526938400,7.1889384765625,0.004067990928888321,0.08468826860189438,0.5201719403266907
1772648274536978400,7.198978515625,-0.014213810674846172,0.11793757230043411,0.46351930499076843
1772648274547019500,7.20901953125,-0.015875957906246185,0.134969562292099,0.4030124545097351
1772648274557059600,7.2190595703125,-0.02661142684519291,0.13674296438694,0.303047239780426
1772648274567100400,7.229100341796875,-0.0246112197637558,0.15869583189487457,0.172772616147995
1772648274577140500,7.239140380859375,-0.012215801514685154,0.21820949018001556,0.05841914191842079
1772648274587181600,7.249181640625,-0.012312646955251694,0.2668125331401825,-0.019723881036043167
1772648274597222700,7.25922265625,-0.033134039491415024,0.2502463459968567,-0.06648312509059906
1772648274607262700,7.2692626953125,-0.06903259456157684,0.17493821680545807,-0.1067422479391098
1772648274617303600,7.279303466796875,-0.1072300523519516,0.056662704795598984,-0.14022617042064667
1772648274627343600,7.289343505859375,-0.1699695885181427,-0.09400451183319092,-0.14712221920490265
1772648274637384700,7.299384765625,-0.22335185110569,-0.22260110080242157,-0.1413831114768982
1772648274647425500,7.309425537109375,-0.2509763836860657,-0.2975955605506897,-0.12453726679086685
1772648274657465300,7.31946533203125,-0.24404282867908478,-0.29480138421058655,-0.09686648100614548
1772648274667506400,7.32950634765625,-0.2233286052942276,-0.22911886870861053,-0.08074555546045303
1772648274677546500,7.33954638671875,-0.1845196932554245,-0.10397133976221085,-0.08096260577440262
1772648274687587600,7.349587646484375,-0.1322682946920395,0.07841647416353226,-0.08449047803878784
1772648274697628400,7.35962841796875,-0.05938822403550148,0.29593655467033386,-0.08224543184041977
1772648274707668500,7.36966845703125,0.022929290309548378,0.5142757296562195,-0.0767754539847374
1772648274717709600,7.37970947265625,0.10435251146554947,0.7004836797714233,-0.08701504021883011
1772648274727749600,7.38974951171875,0.16996824741363525,0.8278627991676331,-0.11570756137371063
1772648274737790500,7.39979052734375,0.21845029294490814,0.8908880949020386,-0.14770729839801788
1772648274747830500,7.40983056640625,0.23913493752479553,0.8745163679122925,-0.1765011101961136
1772648274757871600,7.41987158203125,0.24067531526088715,0.7824466228485107,-0.20934800803661346
1772648274767912700,7.42991259765625,0.22871573269367218,0.6615208983421326,-0.2378520667552948
1772648274777952800,7.439952880859375,0.20162659883499146,0.5407857298851013,-0.24881070852279663
1772648274787993600,7.44999365234375,0.1519782990217209,0.4265044629573822,-0.24438363313674927
1772648274798033400,7.460033447265625,0.09006352722644806,0.3373783230781555,-0.2391100376844406
1772648274808074500,7.470074462890625,0.03150574117898941,0.2736528813838959,-0.215723916888237
1772648274818115600,7.480115478515625,-0.014847376383841038,0.2510809898376465,-0.19014905393123627
1772648274828155400,7.4901552734375,-0.044990915805101395,0.26284849643707275,-0.1578151285648346
1772648274838196500,7.500196533203125,-0.05675622820854187,0.2980000674724579,-0.12996990978717804
1772648274848236500,7.510236572265625,-0.057303253561258316,0.32565322518348694,-0.11354533582925797
1772648274858277600,7.520277587890625,-0.05941194295883179,0.33474284410476685,-0.10865550488233566
1772648274868317700,7.530317626953125,-0.05839988961815834,0.3371736407279968,-0.1178738996386528
1772648274878358500,7.540358642578125,-0.05726245418190956,0.32338619232177734,-0.14320562779903412
1772648274888399600,7.550399658203125,-0.06548508256673813,0.28906258940696716,-0.17335140705108643
1772648274898439700,7.560439697265625,-0.07342636585235596,0.23734614253044128,-0.20283792912960052
1772648274908480800,7.570480712890625,-0.08521867543458939,0.16271419823169708,-0.22305986285209656
1772648274918520600,7.5805205078125,-0.09740263968706131,0.0914517343044281,-0.23091645538806915
1772648274928561400,7.5905615234375,-0.11315511167049408,0.03791528567671776,-0.21033601462841034
1772648274938603300,7.600603271484375,-0.1361461877822876,-0.0024015118833631277,-0.17869259417057037
1772648274948643300,7.610643310546875,-0.15939025580883026,-0.023121437057852745,-0.1523004025220871
1772648274958684200,7.62068408203125,-0.17476680874824524,-0.020038828253746033,-0.139717236161232
1772648274968724200,7.63072412109375,-0.18382273614406586,-0.0025214143097400665,-0.14197108149528503
1772648274978765300,7.640765380859375,-0.18387973308563232,0.03170366585254669,-0.14498339593410492
1772648274988805400,7.650805419921875,-0.18082967400550842,0.08655094355344772,-0.15205365419387817
1772648274998846200,7.66084619140625,-0.18130798637866974,0.13417065143585205,-0.1687985360622406
1772648275008887300,7.67088720703125,-0.1925802081823349,0.1814960241317749,-0.19354651868343353
1772648275018927000,7.680927001953125,-0.2146948277950287,0.21982769668102264,-0.21625742316246033
1772648275028968200,7.69096826171875,-0.2309509962797165,0.2590079605579376,-0.2204003632068634
1772648275039008300,7.70100830078125,-0.2373303323984146,0.311764121055603,-0.2135842740535736
1772648275049049000,7.711049072265625,-0.23569275438785553,0.38690853118896484,-0.20467662811279297
1772648275059090200,7.721090087890625,-0.23152676224708557,0.44996392726898193,-0.20107683539390564
1772648275069130200,7.731130126953125,-0.23849254846572876,0.4673384428024292,-0.21448802947998047
1772648275079171000,7.741171142578125,-0.24828046560287476,0.4615516662597656,-0.24195879697799683
1772648275089211100,7.751211181640625,-0.2574647068977356,0.45228028297424316,-0.27509090304374695
1772648275099252200,7.761252197265625,-0.2665383517742157,0.45992302894592285,-0.30809465050697327
1772648275109292300,7.771292236328125,-0.2762299180030823,0.48126617074012756,-0.33368661999702454
1772648275119333400,7.78133349609375,-0.2850758731365204,0.5152449011802673,-0.35144031047821045
1772648275129374200,7.791374267578125,-0.28218021988868713,0.5602278709411621,-0.3927209675312042
1772648275139414000,7.8014140625,-0.2410823106765747,0.6041923761367798,-0.42446133494377136
1772648275149455000,7.811455078125,-0.21036675572395325,0.5512838959693909,-0.371648907661438
1772648275159495200,7.8214951171875,-0.14662478864192963,0.43244272470474243,-0.30116862058639526
1772648275169536000,7.831535888671875,-0.03461984172463417,0.3463703691959381,-0.22213812172412872
1772648275179577000,7.8415771484375,0.09874726831912994,0.23678581416606903,-0.15644513070583344
1772648275189617200,7.8516171875,0.22807346284389496,0.10539758950471878,-0.1425551176071167
1772648275199658200,7.861658203125,0.3330100178718567,-0.012099739164113998,-0.16535870730876923
1772648275209698300,7.8716982421875,0.39770403504371643,-0.08768600225448608,-0.17708338797092438
1772648275219739100,7.8817392578125,0.4278523325920105,-0.13005317747592926,-0.15905910730361938
1772648275229780200,7.8917802734375,0.4221133589744568,-0.1602339744567871,-0.11413442343473434
1772648275239820300,7.9018203125,0.3918113708496094,-0.19094900786876678,-0.024484697729349136
1772648275249861000,7.911861083984375,0.3722156286239624,-0.21444682776927948,0.09538288414478302
1772648275259901200,7.921901123046875,0.3689255714416504,-0.24712780117988586,0.22465433180332184
1772648275269942300,7.9319423828125,0.37333106994628906,-0.3226099908351898,0.33352038264274597
1772648275279982000,7.941982177734375,0.3890727460384369,-0.3934609889984131,0.41487357020378113
1772648275290023200,7.952023193359375,0.4138791561126709,-0.42016270756721497,0.480411559343338
1772648275300064000,7.96206396484375,0.432623028755188,-0.42610660195350647,0.5336380004882812
1772648275310104000,7.97210400390625,0.44686052203178406,-0.44689732789993286,0.5875096321105957
1772648275320145200,7.982145263671875,0.4551091194152832,-0.463026762008667,0.6391115784645081
1772648275330185200,7.992185302734375,0.4562584459781647,-0.45876482129096985,0.6562208533287048
1772648275340226000,8.00222607421875,0.42581692337989807,-0.45416900515556335,0.6025408506393433
1772648275350266000,8.01226611328125,0.37168824672698975,-0.44963589310646057,0.49860990047454834
1772648275360307200,8.02230712890625,0.30502185225486755,-0.4491299092769623,0.39563292264938354
1772648275370348300,8.032348388671876,0.21985024213790894,-0.4991970956325531,0.36485156416893005
1772648275380388400,8.042388427734375,0.1283344328403473,-0.566783607006073,0.3128983676433563
1772648275390429200,8.05242919921875,0.03169676288962364,-0.5968648195266724,0.22181393206119537
1772648275400469000,8.062468994140625,-0.04570455104112625,-0.6001524925231934,0.14296039938926697
1772648275410510000,8.072510009765624,-0.10085885226726532,-0.607739269733429,0.10616642236709595
1772648275420551200,8.08255126953125,-0.1224680095911026,-0.6095028519630432,0.1331692934036255
1772648275430591200,8.09259130859375,-0.12744323909282684,-0.5657814145088196,0.2116289734840393
1772648275440632000,8.102632080078125,-0.1149093434214592,-0.5081708431243896,0.3026299774646759
1772648275450672000,8.112672119140624,-0.0889507308602333,-0.4214029908180237,0.37161046266555786
1772648275460713200,8.122713134765625,-0.06389517337083817,-0.3163498044013977,0.4112585186958313
1772648275470753300,8.132753173828124,-0.05177629739046097,-0.21116922795772552,0.42181482911109924
1772648275480794000,8.142794189453125,-0.0289309024810791,-0.10784576088190079,0.40320518612861633
1772648275490835200,8.152835205078125,-0.012761954218149185,-0.02643665485084057,0.3636203110218048
1772648275500875300,8.162875244140626,-0.012772073969244957,0.02778024412691593,0.3086337745189667
1772648275510916400,8.172916259765625,-0.01777278445661068,0.061769794672727585,0.2481858879327774
1772648275520956200,8.1829560546875,-0.022550495341420174,0.054493505507707596,0.1951570212841034
1772648275530997200,8.192997314453125,-0.05601711943745613,-0.0016225501894950867,0.14667904376983643
1772648275541038300,8.203038330078124,-0.10876289010047913,-0.096734419465065,0.08629132807254791
1772648275551078100,8.213078125,-0.13390056788921356,-0.16621123254299164,0.026876384392380714
1772648275561119000,8.223118896484374,-0.1366681158542633,-0.2266300916671753,0.003256541909649968
1772648275571159000,8.233158935546875,-0.14001232385635376,-0.2839033901691437,0.008094504475593567
1772648275581200100,8.2432001953125,-0.13174934685230255,-0.333082914352417,0.020827343687415123
1772648275591240200,8.253240234375,-0.12042512744665146,-0.3681143522262573,0.03509322181344032
1772648275601281300,8.26328125,-0.11088888347148895,-0.38205841183662415,0.0400506965816021
1772648275611322000,8.273322021484375,-0.10489723086357117,-0.369157612323761,0.03367171436548233
1772648275621362200,8.283362060546875,-0.09495565295219421,-0.3193112313747406,0.01729992963373661
1772648275631403300,8.2934033203125,-0.0755448192358017,-0.24958334863185883,-0.008190536871552467
1772648275641443300,8.303443359375,-0.0594840943813324,-0.1751679629087448,-0.04053249582648277
1772648275651484200,8.313484130859376,-0.03698457404971123,-0.10458409041166306,-0.06578928232192993
1772648275661525200,8.323525146484375,-0.017614072188735008,-0.039344631135463715,-0.09706038981676102
1772648275671565300,8.3335654296875,0.0031787375919520855,0.016026804223656654,-0.11897275596857071
1772648275681606400,8.3436064453125,0.020559057593345642,0.056227486580610275,-0.12270969897508621
1772648275691646200,8.353646240234376,0.03902222961187363,0.07848715037107468,-0.10047779977321625
1772648275701687000,8.36368701171875,0.051226429641246796,0.07109234482049942,-0.05859639495611191
1772648275711727000,8.37372705078125,0.05107543617486954,0.06281114369630814,-0.009434870444238186
1772648275721768200,8.383768310546875,0.039027296006679535,0.08233504742383957,0.03600451722741127
1772648275731809000,8.39380908203125,0.03682980313897133,0.10351894050836563,0.08008076995611191
1772648275741849000,8.40384912109375,0.03862397372722626,0.11816366016864777,0.11765371263027191
1772648275751890200,8.41389013671875,0.03633032739162445,0.1285664141178131,0.12891824543476105
1772648275761930200,8.42393017578125,0.03728827089071274,0.13247700035572052,0.12960614264011383
1772648275771971300,8.433971435546875,0.03635666146874428,0.11178912222385406,0.1327214241027832
1772648275782011400,8.444011474609376,0.027122680097818375,0.05267573148012161,0.1291205734014511
1772648275792052200,8.45405224609375,0.023088784888386726,0.0020131939090788364,0.11386561393737793
1772648275802093300,8.46409326171875,0.0240619033575058,-0.01748673804104328,0.09477101266384125
1772648275812133000,8.474133056640625,0.03344583511352539,-0.015709657222032547,0.07486020028591156
1772648275822174000,8.484174072265626,0.03642910718917847,-0.04148639366030693,0.050765249878168106
1772648275832214000,8.494214111328125,0.0359555259346962,-0.10519815236330032,0.010109498165547848
1772648275842255000,8.504255126953124,0.05588289350271225,-0.1451980322599411,-0.040789902210235596
1772648275852296200,8.514296142578125,0.09115655720233917,-0.15800835192203522,-0.06495293974876404
1772648275862336300,8.524336181640624,0.07668467611074448,-0.28856050968170166,-0.02068481594324112
1772648275872377000,8.534377197265625,0.008154292590916157,-0.4874185025691986,0.06502692401409149
1772648275882417200,8.544417236328124,-0.02201106585562229,-0.5333369970321655,0.15976327657699585
1772648275892458200,8.554458251953125,-0.05859408527612686,-0.5050383806228638,0.2859852910041809
1772648275902499000,8.5644990234375,-0.08387148380279541,-0.43529045581817627,0.3527089059352875
1772648275912539100,8.5745390625,-0.09888775646686554,-0.3441580533981323,0.38099202513694763
1772648275922580200,8.584580322265625,-0.062275152653455734,-0.22645911574363708,0.41035231947898865
1772648275932620300,8.594620361328126,-0.01980864256620407,-0.06666894257068634,0.4368836283683777
1772648275942660600,8.60466064453125,-0.009107795543968678,0.0724300891160965,0.4325551986694336
1772648275952700700,8.61470068359375,-0.021951990202069283,0.13535837829113007,0.42806774377822876
1772648275962741500,8.624741455078125,-0.017466695979237556,0.18415440618991852,0.4123021066188812
1772648275972782600,8.634782470703126,-0.009862501174211502,0.2600741982460022,0.3172156512737274
1772648275982822700,8.64482275390625,0.00013926601968705654,0.34822776913642883,0.18352921307086945
1772648275992863700,8.65486376953125,0.010956048034131527,0.4299052655696869,0.05789899826049805
1772648276002903600,8.664903564453125,0.003954597283154726,0.4657769799232483,-0.00545414537191391
1772648276012944400,8.6749443359375,-0.029049059376120567,0.46290528774261475,-0.03852785751223564
1772648276022984400,8.684984375,-0.0696774497628212,0.40655332803726196,-0.0864836648106575
1772648276033025500,8.695025634765624,-0.11616286635398865,0.32922306656837463,-0.13482387363910675
1772648276043066600,8.705066650390625,-0.17158937454223633,0.22395256161689758,-0.1483311653137207
1772648276053106400,8.7151064453125,-0.2170391082763672,0.11609108746051788,-0.10812223702669144
1772648276063147500,8.7251474609375,-0.24343237280845642,0.042025916278362274,-0.08041630685329437
1772648276073187600,8.7351875,-0.2389501929283142,0.02333803102374077,-0.06768183410167694
1772648276083228700,8.745228759765626,-0.21955199539661407,0.04905138537287712,-0.06079808995127678
1772648276093269500,8.75526953125,-0.17153653502464294,0.10274827480316162,-0.0452493317425251
1772648276103309600,8.7653095703125,-0.09433629363775253,0.17518305778503418,-0.04504373297095299
1772648276113350700,8.7753505859375,0.006073159631341696,0.2560308873653412,-0.05980735272169113
1772648276123390500,8.785390380859376,0.11725747585296631,0.3442704677581787,-0.07307921350002289
1772648276133431600,8.795431640625,0.21876774728298187,0.41930848360061646,-0.0903557538986206
1772648276143471400,8.805471435546876,0.29752328991889954,0.45234233140945435,-0.10303240269422531
1772648276153512400,8.815512451171875,0.3501359522342682,0.45802831649780273,-0.1319727748632431
1772648276163553500,8.825553466796874,0.38218364119529724,0.431893914937973,-0.17623372375965118
1772648276173593600,8.835593505859375,0.3837485611438751,0.358654260635376,-0.220286563038826
1772648276183634400,8.845634521484374,0.35802534222602844,0.2616286277770996,-0.2520410418510437
1772648276193674500,8.855674560546875,0.3175521194934845,0.15010583400726318,-0.2808075249195099
1772648276203715600,8.865715576171874,0.27125731110572815,0.04660527780652046,-0.2932532727718353
1772648276213755600,8.875755615234375,0.21723048388957977,-0.036946240812540054,-0.3066757917404175
1772648276223796500,8.88579638671875,0.16595931351184845,-0.07869661599397659,-0.31749382615089417
1772648276233837600,8.895837646484376,0.11181306093931198,-0.08721894770860672,-0.3173835277557373
1772648276243877600,8.905877685546875,0.07310987263917923,-0.06321214884519577,-0.30473458766937256
1772648276253918700,8.915918701171876,0.04220788925886154,-0.021483181044459343,-0.2932929992675781
1772648276263958500,8.92595849609375,0.013286760076880455,0.027919255197048187,-0.29572632908821106
1772648276273999400,8.935999267578126,-0.007634222973138094,0.08356872200965881,-0.2977141737937927
1772648276284040400,8.94604052734375,-0.041869159787893295,0.12475264817476273,-0.2844330072402954
1772648276294080500,8.95608056640625,-0.07240545004606247,0.17728646099567413,-0.27395474910736084
1772648276304121600,8.96612158203125,-0.10211460292339325,0.23156461119651794,-0.2641657590866089
1772648276314161700,8.97616162109375,-0.12801045179367065,0.27116715908050537,-0.24580654501914978
1772648276324202500,8.986202392578125,-0.15242338180541992,0.29677823185920715,-0.21619299054145813
1772648276334242600,8.99624267578125,-0.17135712504386902,0.29954543709754944,-0.1806974709033966
1772648276344283600,9.00628369140625,-0.1928858608007431,0.2864765226840973,-0.15127220749855042
1772648276354324500,9.016324462890625,-0.2003815919160843,0.28194835782051086,-0.12812912464141846
1772648276364364500,9.026364501953125,-0.20440137386322021,0.27929452061653137,-0.11517656594514847
1772648276374405600,9.036405517578125,-0.2037670910358429,0.27225592732429504,-0.11460046470165253
1772648276384445700,9.04644580078125,-0.20056836307048798,0.2564713656902313,-0.12794716656208038
1772648276394486800,9.05648681640625,-0.1987418681383133,0.22701680660247803,-0.1573755443096161
1772648276404526600,9.066526611328126,-0.1997179090976715,0.20456555485725403,-0.19184963405132294
1772648276414567400,9.0765673828125,-0.20409953594207764,0.18769724667072296,-0.22087734937667847
1772648276424608500,9.0866083984375,-0.21425177156925201,0.16264915466308594,-0.2457270473241806
1772648276434648600,9.096648681640625,-0.22938686609268188,0.1336153745651245,-0.26618313789367676
1772648276444689400,9.106689453125,-0.245257169008255,0.0872097983956337,-0.2765052914619446
1772648276454729500,9.1167294921875,-0.2532794177532196,0.02497449330985546,-0.280524879693985
1772648276464770600,9.1267705078125,-0.2558155357837677,-0.04578196629881859,-0.276413232088089
1772648276474811600,9.136811767578125,-0.23063519597053528,-0.08461863547563553,-0.261119544506073
1772648276484851700,9.146851806640624,-0.1955413967370987,-0.08884187787771225,-0.23615320026874542
1772648276494892500,9.156892578125,-0.1582142412662506,-0.06351105868816376,-0.2010134905576706
1772648276504932600,9.1669326171875,-0.11932917684316635,-0.0049819727428257465,-0.154080331325531
1772648276514973700,9.1769736328125,-0.08611318469047546,0.08409852534532547,-0.10028089582920074
1772648276525013500,9.187013427734374,-0.05943656712770462,0.18576815724372864,-0.04190333932638168
1772648276535054300,9.197054443359375,-0.04706365987658501,0.2837951183319092,0.007796906866133213
1772648276545095400,9.207095458984375,-0.05154096707701683,0.3741849362850189,0.037570782005786896
1772648276555135500,9.217135498046876,-0.06565666943788528,0.456087589263916,0.05463660880923271
1772648276565176600,9.227176513671875,-0.09045442938804626,0.5348019003868103,0.06118185818195343
1772648276575216600,9.237216552734376,-0.13118459284305573,0.5804896950721741,0.06367917358875275
1772648276585257500,9.247257568359375,-0.17075704038143158,0.5884850025177002,0.03963962197303772
1772648276595297500,9.257297607421876,-0.1856117844581604,0.5679798126220703,-0.015024707652628422
1772648276605338600,9.267338623046875,-0.17532159388065338,0.5101239681243896,-0.04214101284742355
1772648276615379500,9.27737939453125,-0.12115274369716644,0.4684143662452698,-0.03770480304956436
1772648276625419500,9.28741943359375,-0.016733920201659203,0.45379626750946045,-0.024423085153102875
1772648276635460600,9.297460693359374,0.10633016377687454,0.3903355896472931,0.0006658635102212429
1772648276645500700,9.307500732421875,0.22364133596420288,0.29702189564704895,0.01082795299589634
1772648276658051600,9.320051513671874,0.33318743109703064,0.16785983741283417,-0.009589195251464844
1772648276668091600,9.330091552734375,0.37736794352531433,0.08975043892860413,-0.038643792271614075
1772648276678132500,9.340132568359374,0.385610431432724,0.029773389920592308,-0.05452582240104675
1772648276688173600,9.350173583984375,0.3582974970340729,-0.03521790727972984,-0.03985770419239998
1772648276698213600,9.360213623046874,0.3138549327850342,-0.10806521773338318,0.008825947530567646
1772648276708254500,9.37025439453125,0.26795047521591187,-0.17990924417972565,0.07786158472299576
1772648276718294500,9.38029443359375,0.2346106320619583,-0.2249784618616104,0.143868550658226
1772648276728335600,9.390335693359376,0.21152137219905853,-0.24064263701438904,0.2040015012025833
1772648276738376700,9.400376708984375,0.1936744600534439,-0.23676268756389618,0.257313996553421
1772648276748416800,9.410416748046876,0.1805199533700943,-0.22053784132003784,0.3084731698036194
1772648276758457600,9.42045751953125,0.16586831212043762,-0.18696337938308716,0.35652777552604675
1772648276768497400,9.430497314453126,0.15250402688980103,-0.15225253999233246,0.39045989513397217
1772648276778538500,9.44053857421875,0.13275349140167236,-0.13265272974967957,0.40669721364974976
1772648276788578600,9.45057861328125,0.11012309789657593,-0.12589038908481598,0.40859636664390564
1772648276798619400,9.460619384765625,0.09912450611591339,-0.10766052454710007,0.38433122634887695
1772648276808660500,9.470660400390624,0.09316922724246979,-0.0834459438920021,0.34028977155685425
1772648276818700500,9.480700439453125,0.08155838400125504,-0.07225720584392548,0.2748572528362274
1772648276828741600,9.49074169921875,0.0653458684682846,-0.08055023103952408,0.2009885460138321
1772648276838781700,9.50078173828125,0.04696046933531761,-0.10371440649032593,0.1526029109954834
1772648276848822500,9.510822509765624,0.019065627828240395,-0.15768267214298248,0.12752632796764374
1772648276858862600,9.520862548828125,-0.005764886736869812,-0.21446393430233002,0.11918291449546814
1772648276868903700,9.530903564453125,-0.020432502031326294,-0.2561282217502594,0.13137215375900269
1772648276878944500,9.540944580078126,-0.024483168497681618,-0.28988271951675415,0.16787344217300415
1772648276888984300,9.550984375,-0.033624593168497086,-0.31360217928886414,0.2318403720855713
1772648276899025400,9.561025390625,-0.04665171355009079,-0.3459433317184448,0.30045565962791443
1772648276909065500,9.5710654296875,-0.05057975649833679,-0.3475121259689331,0.3573518991470337
1772648276919106600,9.5811064453125,-0.055111657828092575,-0.3361915647983551,0.3969890773296356
1772648276929146600,9.591146728515625,-0.0709182620048523,-0.3572300672531128,0.41579967737197876
1772648276939187500,9.6011875,-0.09501640498638153,-0.373169869184494,0.38991639018058777
1772648276949228800,9.611228759765625,-0.12504947185516357,-0.36679622530937195,0.32534515857696533
1772648276959268900,9.621268798828124,-0.15643855929374695,-0.344081312417984,0.25027623772621155
1772648276969309700,9.631309814453125,-0.1780860424041748,-0.3139485716819763,0.18683582544326782
1772648276979349800,9.641349853515624,-0.19247616827487946,-0.27752023935317993,0.1501380056142807
1772648276989390800,9.651390869140625,-0.187595933675766,-0.24566729366779327,0.13206398487091064
1772648276999431000,9.661430908203124,-0.17139539122581482,-0.21885032951831818,0.12383828312158585
1772648277009472000,9.671471923828125,-0.1448861062526703,-0.19298729300498962,0.12060404568910599
1772648277019512800,9.681512939453125,-0.12205188721418381,-0.17204312980175018,0.12277691811323166
1772648277029552600,9.691552734375,-0.10582120716571808,-0.17309705913066864,0.11976004391908646
1772648277039593700,9.70159375,-0.09323804080486298,-0.17297615110874176,0.11793737858533859
1772648277049633800,9.7116337890625,-0.07250505685806274,-0.1640433818101883,0.11956696212291718
1772648277059674600,9.721674560546875,-0.05468440055847168,-0.14057549834251404,0.12309348583221436
1772648277069715700,9.7317158203125,-0.03807106986641884,-0.10779010504484177,0.12208787351846695
1772648277079755800,9.741755859375,-0.03030732460319996,-0.06016000360250473,0.11294026672840118
1772648277089796900,9.751796875,-0.029423687607049942,0.0021872601937502623,0.09676822274923325
1772648277099837000,9.7618369140625,-0.0408145971596241,0.06978008896112442,0.07296736538410187
1772648277109877800,9.771877685546874,-0.0524294413626194,0.13622382283210754,0.04457753151655197
1772648277119917800,9.781917724609375,-0.06420280784368515,0.1959037184715271,0.025134695693850517
1772648277129959000,9.791958984375,-0.07605546712875366,0.24889956414699554,0.008134940639138222
1772648277139999700,9.801999755859375,-0.09398827701807022,0.2815857231616974,-0.00013953493908047676
1772648277150039800,9.812039794921875,-0.11445999145507812,0.2990770936012268,-0.013576247729361057
1772648277160081000,9.822080810546876,-0.12665553390979767,0.30795538425445557,-0.026470646262168884
1772648277170120700,9.83212060546875,-0.13617287576198578,0.3049241602420807,-0.0423462837934494
1772648277180161800,9.842161865234376,-0.14016857743263245,0.2982245683670044,-0.04807877168059349
1772648277190201900,9.852201904296875,-0.1394260823726654,0.297577440738678,-0.04802151396870613
1772648277200242700,9.86224267578125,-0.13787393271923065,0.285357266664505,-0.03967111557722092
1772648277210283800,9.87228369140625,-0.13131695985794067,0.2576958239078522,-0.03597757965326309
1772648277220323800,9.88232373046875,-0.12129371613264084,0.23434777557849884,-0.0371197871863842
1772648277230364700,9.89236474609375,-0.10028883069753647,0.22690904140472412,-0.037509940564632416
1772648277240404700,9.90240478515625,-0.07461987435817719,0.21945133805274963,-0.02642066217958927
1772648277250445800,9.91244580078125,-0.05440434440970421,0.20422577857971191,-0.010516530834138393
1772648277260486000,9.92248583984375,-0.03308802470564842,0.17869827151298523,0.00699973851442337
1772648277270527000,9.93252685546875,-0.009115311317145824,0.14934277534484863,0.01818634569644928
1772648277280567800,9.94256787109375,0.021709434688091278,0.12098804861307144,0.11742031574249268
1772648277290607600,9.952607666015625,0.05446125566959381,0.0690513476729393,0.39291977882385254
1772648277300648700,9.962648681640625,0.0761612057685852,0.03233944997191429,0.3919391930103302
1772648277310688800,9.972688720703125,0.08163187652826309,-0.009731302969157696,0.20924019813537598
1772648277320729900,9.982729736328125,0.09042070060968399,-0.05483271926641464,0.01018389780074358
1772648277330769700,9.992769775390625,0.10435143113136292,-0.09182669222354889,-0.15372967720031738
1772648277340810800,10.002810791015625,0.11248762160539627,-0.14015482366085052,-0.26626870036125183
1772648277350851800,10.012851806640626,0.09059617668390274,-0.2090313583612442,-0.2960819900035858
1772648277360892000,10.022891845703125,0.059689197689294815,-0.24822333455085754,-0.22152234613895416
1772648277370932700,10.0329326171875,0.02819758653640747,-0.24701400101184845,-0.15010301768779755
1772648277380972800,10.042972900390625,-0.005431910045444965,-0.25058698654174805,-0.11124040186405182
1772648277391014000,10.053013916015624,-0.046858713030815125,-0.30325019359588623,-0.05880222097039223
