time,seconds_elapsed,z,y,x
1772649654508341800,0.360341796875,-0.2547621726989746,1.4214982986450195,-0.6377158761024475
1772649654528348700,0.3803486328125,-0.28899848461151123,2.3243441581726074,-0.8512744903564453
1772649654548355600,0.40035546875,-0.045053720474243164,3.320404052734375,-0.8158116936683655
1772649654568363800,0.42036376953125,0.39793646335601807,3.984757900238037,-0.5565505027770996
1772649654588372200,0.440372314453125,0.6447525024414062,4.119785785675049,-0.16233262419700623
1772649654608380700,0.460380615234375,0.7138506174087524,3.5947952270507812,-0.1568392515182495
1772649654628389000,0.48038916015625,0.8943195343017578,2.5293240547180176,-0.5371678471565247
1772649654648397800,0.500397705078125,1.0813320875167847,1.5583486557006836,-0.5588716268539429
1772649654668406300,0.52040625,0.656740665435791,0.9017000198364258,-0.6054500341415405
1772649654688415000,0.5404150390625,-1.1200003623962402,-0.14226341247558594,-0.04789254069328308
1772649654708423400,0.56042333984375,-1.3270500898361206,-1.1723146438598633,0.2806284725666046
1772649654728431900,0.580431884765625,-0.5725923776626587,-1.365889549255371,-0.02679559588432312
1772649654748440300,0.6004404296875,0.03486168384552002,-3.482924461364746,0.13964268565177917
1772649654768449000,0.620448974609375,1.69145667552948,-5.441526412963867,-0.1695132851600647
1772649654788457500,0.64045751953125,1.7361338138580322,-6.480719566345215,-0.1872786283493042
1772649654808466000,0.6604658203125,1.2631369829177856,-7.759760856628418,0.022231072187423706
1772649654828474600,0.680474609375,1.5290932655334473,-8.95557975769043,0.5642615556716919
1772649654848483000,0.700483154296875,2.2290310859680176,-10.097593307495117,0.9850596189498901
1772649654868491500,0.720491455078125,2.3513734340667725,-10.563128471374512,1.2018609046936035
1772649654888500200,0.740500244140625,1.9296671152114868,-10.460213661193848,1.3680994510650635
1772649654908508700,0.7605087890625,0.9116631746292114,-9.941800117492676,2.0192649364471436
1772649654928517000,0.78051708984375,0.2697889804840088,-8.19874095916748,1.6599912643432617
1772649654948525600,0.800525634765625,-0.32076215744018555,-4.65438175201416,0.5954588651657104
1772649654968534300,0.8205341796875,-0.8568811416625977,-1.0533981323242188,-0.2620996832847595
1772649654988542700,0.840542724609375,-1.2129944562911987,1.7717185020446777,-0.7482536435127258
1772649655008551400,0.860551513671875,-1.8168021440505981,4.730907917022705,-0.8684875965118408
1772649655028560000,0.880559814453125,-2.2436211109161377,7.801926612854004,-1.0152636766433716
1772649655048568300,0.900568359375,-2.225886106491089,10.909225463867188,-1.8186603784561157
1772649655068576800,0.92057666015625,-1.8572287559509277,13.033743858337402,-2.473431348800659
1772649655088585000,0.9405849609375,-0.46580222249031067,13.944158554077148,-1.9752060174942017
1772649655108593400,0.960593505859375,-0.7936902642250061,13.72944450378418,-0.847672700881958
1772649655128601600,0.9806015625,-1.7686266899108887,11.349868774414062,-1.0492608547210693
1772649655148610000,1.000610107421875,-0.7151266932487488,8.680068969726562,-0.0879589319229126
1772649655168618200,1.0206181640625,-0.8669646978378296,8.83961009979248,0.759693443775177
1772649655188626700,1.040626708984375,-1.3729557991027832,9.103324890136719,0.6495294570922852
1772649655208635000,1.060634765625,-1.0301015377044678,9.462214469909668,0.24602985382080078
1772649655228643000,1.08064306640625,-0.8148609399795532,9.485136985778809,-0.07582557201385498
1772649655248651500,1.100651611328125,-0.5459729433059692,8.460746765136719,-1.3855574131011963
1772649655268659700,1.12065966796875,1.9895460605621338,5.107697010040283,-3.4610071182250977
1772649655288668200,1.140668212890625,8.692253112792969,-9.597090721130371,-6.251899242401123
1772649655308676400,1.16067626953125,-10.228726387023926,-20.657909393310547,-1.6582527160644531
1772649655328684800,1.180684814453125,-1.0135352611541748,-20.336414337158203,5.077141761779785
1772649655348693000,1.20069287109375,5.575815677642822,-9.736766815185547,0.833389401435852
1772649655368701400,1.220701416015625,5.794012069702148,-7.034722328186035,0.9209112524986267
1772649655388709600,1.240709716796875,7.324556827545166,-14.288365364074707,3.7201311588287354
1772649655408718000,1.260718017578125,0.38759493827819824,-11.927051544189453,2.4154558181762695
1772649655428726300,1.280726318359375,0.11081397533416748,-12.116448402404785,6.495169162750244
1772649655448734700,1.300734619140625,0.14521706104278564,-13.164738655090332,6.431107997894287
1772649655468743000,1.320742919921875,1.385444164276123,-9.169546127319336,2.317655086517334
1772649655488751000,1.340751220703125,1.098381757736206,-5.824650764465332,-1.3489439487457275
1772649655508759600,1.360759521484375,0.9273197650909424,-3.6107215881347656,-2.4340577125549316
1772649655528767700,1.380767822265625,0.7428586483001709,-0.4915618896484375,-2.811410903930664
1772649655548776200,1.400776123046875,0.710924506187439,2.8469443321228027,-2.305692195892334
1772649655568784600,1.42078466796875,0.9870447516441345,6.25855016708374,-1.723904013633728
1772649655588793300,1.44079345703125,-0.7050908803939819,9.827977180480957,-1.3852503299713135
1772649655608802000,1.460802001953125,-2.4330403804779053,12.414318084716797,-0.6644648313522339
1772649655628810800,1.480810791015625,-3.1060357093811035,13.564022064208984,-0.3766458034515381
1772649655648819500,1.5008193359375,-2.1857361793518066,13.837701797485352,0.5178887248039246
1772649655668828200,1.520828125,-1.3730309009552002,13.62297248840332,0.39229685068130493
1772649655688836900,1.5408369140625,-1.4428868293762207,9.928567886352539,0.17645585536956787
1772649655708845600,1.560845458984375,-1.338708758354187,8.279912948608398,0.38188326358795166
1772649655728854300,1.580854248046875,-1.2528700828552246,8.025532722473145,1.219574213027954
1772649655748863000,1.600863037109375,-0.978918731212616,8.401092529296875,1.3529696464538574
1772649655768871700,1.62087158203125,-0.35822901129722595,8.859821319580078,1.5031009912490845
1772649655788880600,1.640880615234375,-0.5960447788238525,9.249122619628906,0.49727946519851685
1772649655808889300,1.660889404296875,-1.2032394409179688,8.728805541992188,-0.8732026815414429
1772649655828898000,1.68089794921875,0.15768712759017944,6.655949592590332,-2.227856397628784
1772649655848906800,1.70090673828125,9.593324661254883,-3.4175615310668945,-4.18840217590332
1772649655868915500,1.72091552734375,-6.671551704406738,-19.834556579589844,-7.9413347244262695
1772649655888924200,1.740924072265625,-1.5257786512374878,-26.985200881958008,0.5457016229629517
1772649655908932900,1.760932861328125,6.8454132080078125,-8.890299797058105,-3.8212890625
1772649655928941600,1.780941650390625,2.665755271911621,-13.065312385559082,3.5686261653900146
1772649655948950300,1.8009501953125,3.814014434814453,-16.8944091796875,7.3899664878845215
1772649655968959000,1.820958984375,1.6093655824661255,-11.581650733947754,4.755990982055664
1772649655988967700,1.8409677734375,2.8729898929595947,-13.87535572052002,7.6349897384643555
1772649656008976400,1.860976318359375,2.3678078651428223,-13.950697898864746,5.9385085105896
1772649656028985000,1.880985107421875,0.8776191473007202,-8.945135116577148,0.9578953981399536
1772649656048993800,1.900993896484375,1.100136160850525,-7.198421478271484,-1.478400468826294
1772649656069001500,1.92100146484375,0.2540243864059448,-5.301457405090332,-2.515244960784912
1772649656089009200,1.941009033203125,0.8574236631393433,-0.06453895568847656,-2.7407596111297607
1772649656109016300,1.961016357421875,1.1861822605133057,4.257828235626221,-2.1408395767211914
1772649656129023700,1.981023681640625,0.06414514780044556,7.66705846786499,-2.116304874420166
1772649656149031200,2.00103125,-1.620909571647644,11.347423553466797,-2.145930051803589
1772649656169038600,2.02103857421875,-2.3958678245544434,13.555322647094727,-1.1736201047897339
1772649656189046000,2.0410458984375,-2.4884300231933594,13.951807975769043,-0.4577266573905945
1772649656209053400,2.061053466796875,-2.7775349617004395,14.275758743286133,0.3146708011627197
1772649656229060900,2.081060791015625,-1.8360753059387207,13.440935134887695,-0.19475030899047852
1772649656249068300,2.101068359375,-1.398363471031189,8.957338333129883,-0.3644242286682129
1772649656269075700,2.12107568359375,-1.1085076332092285,8.310652732849121,-0.04278087615966797
1772649656289083100,2.141083251953125,-2.028735637664795,8.273368835449219,-0.08977627754211426
1772649656309090600,2.161090576171875,-1.851975440979004,8.38170051574707,-0.2193583846092224
1772649656329098000,2.181097900390625,-1.9612253904342651,9.08520221710205,-0.0989605188369751
1772649656349105200,2.201105224609375,-2.1020331382751465,9.647502899169922,0.18308764696121216
1772649656369112600,2.221112548828125,-1.8156026601791382,9.211957931518555,-0.5222011804580688
1772649656389120000,2.2411201171875,-1.5089107751846313,8.222686767578125,-1.4834952354431152
1772649656409127400,2.26112744140625,0.16706883907318115,5.071974277496338,-2.448728561401367
1772649656429134800,2.281134765625,11.993237495422363,-10.100186347961426,-3.5752363204956055
1772649656449142300,2.301142333984375,-9.859418869018555,-31.46965789794922,-6.415963649749756
1772649656469149700,2.321149658203125,11.315535545349121,-26.881973266601562,-0.47687047719955444
1772649656489157000,2.3411572265625,0.8430525064468384,-1.6249885559082031,-0.24777838587760925
1772649656509164500,2.36116455078125,1.0561110973358154,-4.441293716430664,5.722878456115723
1772649656529172000,2.381171875,2.5139150619506836,-9.827723503112793,8.115013122558594
1772649656549179400,2.401179443359375,3.3394484519958496,-11.578951835632324,5.699141979217529
1772649656569187600,2.4211875,4.211436748504639,-13.563895225524902,5.903151988983154
1772649656589196300,2.4411962890625,3.2651877403259277,-12.966848373413086,0.2988207936286926
1772649656609204700,2.461204833984375,2.573272705078125,-9.649439811706543,-1.102047085762024
1772649656629213400,2.48121337890625,1.648526668548584,-6.253676414489746,-0.8333866596221924
1772649656649222100,2.50122216796875,1.7440625429153442,-3.24676513671875,-0.4622359871864319
1772649656669230800,2.52123095703125,1.0856091976165771,-1.0781259536743164,0.09147921204566956
1772649656689239600,2.541239501953125,0.502922534942627,1.2773466110229492,0.0889219343662262
1772649656709248000,2.561248046875,-0.388408899307251,3.502340793609619,-0.5296593904495239
1772649656729256700,2.581256591796875,-1.6120703220367432,6.441181659698486,-1.5640465021133423
1772649656749265400,2.601265380859375,-3.7253494262695312,10.024632453918457,-2.5827014446258545
1772649656769274000,2.621274169921875,-4.2188262939453125,12.221189498901367,-2.8864753246307373
1772649656789282800,2.64128271484375,-2.6873080730438232,12.664724349975586,-2.4717397689819336
1772649656809291300,2.661291259765625,-3.6675057411193848,13.283628463745117,-1.3453116416931152
1772649656829300000,2.681300048828125,-2.291656970977783,13.760929107666016,-0.9808513522148132
1772649656849308700,2.70130859375,-0.3256869316101074,12.067302703857422,-1.025086522102356
1772649656869317400,2.7213173828125,-0.15974527597427368,7.709517002105713,0.24663293361663818
1772649656889326000,2.741326171875,-0.5383918285369873,7.130045413970947,0.9164581298828125
1772649656909334500,2.76133447265625,0.12159794569015503,8.781996726989746,0.8002394437789917
1772649656929343200,2.78134326171875,0.19807028770446777,10.495564460754395,0.6137393712997437
1772649656949352000,2.80135205078125,-0.39719974994659424,10.163293838500977,-0.0812765508890152
1772649656969360600,2.821360595703125,-0.16518890857696533,8.495499610900879,-1.3906172513961792
1772649656989369300,2.841369384765625,7.7095112800598145,1.5766687393188477,-4.135031700134277
1772649657009378000,2.8613779296875,-1.3773852586746216,-16.894306182861328,-1.742880940437317
1772649657029386500,2.881386474609375,-2.606950283050537,-28.744888305664062,4.4026994705200195
1772649657049395200,2.901395263671875,4.011301517486572,-24.137020111083984,5.119317531585693
1772649657069403100,2.921403076171875,4.773780822753906,-9.619715690612793,4.202012062072754
1772649657089410600,2.94141064453125,6.432968616485596,-8.772869110107422,5.524710178375244
1772649657109418200,2.961418212890625,2.678877830505371,-10.743230819702148,2.51529598236084
1772649657129426000,2.981426025390625,3.3868508338928223,-12.929488182067871,5.958113193511963
1772649657149433300,3.001433349609375,3.543828010559082,-9.915414810180664,3.5778374671936035
1772649657169441000,3.02144091796875,3.5089147090911865,-5.9953813552856445,-1.0607353448867798
1772649657189448700,3.04144873046875,-0.4867323637008667,-6.399330139160156,-0.39914774894714355
1772649657209456000,3.0614560546875,-2.7495357990264893,-3.5308523178100586,-2.3850913047790527
1772649657229463800,3.0814638671875,-1.2837600708007812,-0.21962642669677734,-1.7597851753234863
1772649657249471500,3.101471435546875,-0.057239413261413574,2.335043430328369,-1.3503437042236328
1772649657269479000,3.12147900390625,-1.1160765886306763,5.9057230949401855,-1.1149299144744873
1772649657289486600,3.141486572265625,-1.586151361465454,9.621186256408691,-1.7003612518310547
1772649657309494000,3.161493896484375,-2.472503900527954,13.170068740844727,-1.875464677810669
1772649657329501700,3.181501708984375,-3.358905553817749,14.236186027526855,-0.8423767685890198
1772649657349509400,3.20150927734375,-2.5740838050842285,14.846362113952637,-0.8303504586219788
1772649657369516800,3.221516845703125,-1.788347601890564,13.838921546936035,-0.662026584148407
1772649657389524500,3.2415244140625,-0.29543042182922363,9.292264938354492,0.4573872685432434
1772649657409532200,3.2615322265625,-0.21233510971069336,7.31243371963501,1.31815505027771
1772649657429539600,3.28153955078125,-0.23287814855575562,7.819827079772949,1.6443018913269043
1772649657449547300,3.30154736328125,-0.044604480266571045,9.126197814941406,1.8024933338165283
1772649657469555000,3.321554931640625,0.3489053249359131,9.980198860168457,1.9793779850006104
1772649657489562400,3.341562255859375,-0.24265891313552856,9.13254165649414,-0.033177196979522705
1772649657509570000,3.361570068359375,-0.16329622268676758,7.521181106567383,-2.064824104309082
1772649657529577700,3.38157763671875,3.6551270484924316,2.107971668243408,-2.9907546043395996
1772649657549585200,3.401585205078125,-0.9830458164215088,-10.491663932800293,-2.9487366676330566
1772649657569594000,3.421593994140625,-2.7854652404785156,-22.61370849609375,0.5299601554870605
1772649657589603300,3.441603271484375,6.320522308349609,-18.4610538482666,8.37448501586914
1772649657609612800,3.46161279296875,5.1452460289001465,-10.969680786132812,2.1133627891540527
1772649657629622000,3.4816220703125,5.308896064758301,-12.056721687316895,4.482985019683838
1772649657649631200,3.50163134765625,2.6937766075134277,-11.990553855895996,2.34805965423584
1772649657669640400,3.521640380859375,1.7936673164367676,-16.648277282714844,4.343981742858887
1772649657689650000,3.54164990234375,0.3218480348587036,-14.205001831054688,5.69295072555542
1772649657709659100,3.5616591796875,3.613487720489502,-8.7543306350708,0.63509202003479
1772649657729668400,3.58166845703125,3.123229742050171,-7.1386613845825195,-2.403954029083252
1772649657749677600,3.601677490234375,0.39250051975250244,-5.105246543884277,-2.8212430477142334
1772649657769687000,3.62168701171875,-1.089516043663025,-2.3243274688720703,-1.0053036212921143
1772649657789696300,3.6416962890625,-0.32328999042510986,0.3771209716796875,-0.3723638951778412
1772649657809705500,3.66170556640625,0.35011255741119385,3.000504970550537,-0.3205510973930359
1772649657829714700,3.681714599609375,-1.1327060461044312,6.09683895111084,-1.3999327421188354
1772649657849724200,3.70172412109375,-3.6024861335754395,10.206518173217773,-2.6366324424743652
1772649657869733400,3.7217333984375,-3.723198890686035,12.871673583984375,-3.0462632179260254
1772649657889742600,3.74174267578125,-2.3632774353027344,13.7359619140625,-2.2105958461761475
1772649657909752000,3.761751953125,-2.6452577114105225,14.317933082580566,-0.6392753720283508
1772649657929761300,3.78176123046875,-2.127699613571167,15.618942260742188,-1.221949815750122
1772649657949770500,3.8017705078125,-1.518643856048584,11.596134185791016,-0.5823972821235657
1772649657969779700,3.82177978515625,-0.8874074816703796,8.115655899047852,0.9225714802742004
1772649657989789200,3.8417890625,-0.0834096372127533,7.538430690765381,1.2395565509796143
1772649658009798400,3.86179833984375,0.6536799073219299,7.751047134399414,1.5689433813095093
1772649658029807600,3.8818076171875,0.5387347936630249,7.821382999420166,2.2583324909210205
1772649658049816800,3.90181689453125,-0.12156257033348083,7.8342790603637695,0.8999131321907043
1772649658069825800,3.92182568359375,-0.11129942536354065,7.640092372894287,-1.6528863906860352
1772649658089834500,3.94183447265625,1.7500545978546143,4.778549671173096,-2.466665267944336
1772649658109843200,3.96184326171875,4.041954517364502,-4.567744255065918,-2.111931800842285
1772649658129852200,3.98185205078125,-1.2863634824752808,-20.15210723876953,-0.18810808658599854
1772649658149860900,4.00186083984375,-1.6263151168823242,-26.37399673461914,2.5344865322113037
1772649658169869600,4.02186962890625,6.398004531860352,-11.136979103088379,3.4832282066345215
1772649658189878300,4.041878173828125,3.394925117492676,-8.25107192993164,3.2274250984191895
1772649658209887000,4.061886962890625,4.299012660980225,-10.54526138305664,4.794504642486572
1772649658229895700,4.081895751953125,-0.13754403591156006,-14.019889831542969,3.5875186920166016
1772649658249904600,4.101904541015625,-2.918351173400879,-16.427427291870117,4.324707508087158
1772649658269913300,4.121913330078125,-0.05295205116271973,-14.040790557861328,2.4142351150512695
1772649658289922000,4.141922119140625,2.1001555919647217,-9.415587425231934,-1.9089807271957397
1772649658309930800,4.1619306640625,2.2213926315307617,-5.516376495361328,-3.7092692852020264
1772649658329939500,4.181939453125,3.243943929672241,-2.818471908569336,-3.0646424293518066
1772649658349948400,4.201948486328125,-1.1684510707855225,3.634446620941162,-0.40820810198783875
1772649658369957000,4.22195703125,-3.0413670539855957,8.427986145019531,-1.1229223012924194
1772649658389965800,4.2419658203125,-1.4438791275024414,8.44224739074707,-1.8764574527740479
1772649658409974500,4.261974609375,-0.18412917852401733,8.760454177856445,-1.0290770530700684
1772649658429983200,4.281983154296875,0.16192615032196045,11.030881881713867,-1.4163730144500732
1772649658449992000,4.301991943359375,-0.9832513332366943,12.71502685546875,-0.5530464053153992
1772649658470001000,4.3220009765625,-1.9760873317718506,12.925252914428711,0.26429951190948486
1772649658490009600,4.342009521484375,-1.9617804288864136,11.64947509765625,0.7725862264633179
1772649658510018300,4.362018310546875,-2.057044267654419,9.828871726989746,0.14573878049850464
1772649658530027000,4.382027099609375,-1.5584197044372559,8.934931755065918,-0.10687917470932007
1772649658550035700,4.40203564453125,-1.3508095741271973,9.001346588134766,0.3641083240509033
1772649658570044000,4.4220439453125,-1.3491692543029785,9.540882110595703,0.35081684589385986
1772649658590051800,4.4420517578125,-1.3431960344314575,9.858442306518555,0.3221055865287781
1772649658610059800,4.462059814453125,-1.069092035293579,9.59199047088623,-0.021751105785369873
1772649658630067500,4.4820673828125,-0.7937080264091492,8.101334571838379,-0.8810960650444031
1772649658650075400,4.502075439453125,1.9576565027236938,4.2549004554748535,-2.448486566543579
1772649658670083300,4.522083251953125,7.096337795257568,-9.266488075256348,-2.608677625656128
1772649658690091300,4.54209130859375,-7.9235968589782715,-29.394906997680664,-5.005331993103027
1772649658710099200,4.56209912109375,3.8232951164245605,-21.65340805053711,9.042880058288574
1772649658730107000,4.58210693359375,7.404280662536621,-4.434441566467285,1.8744735717773438
1772649658750114800,4.60211474609375,2.9889721870422363,-13.04017448425293,8.288016319274902
1772649658770122800,4.622122802734375,5.311251163482666,-15.675613403320312,4.398565292358398
1772649658790130700,4.642130615234375,1.29019033908844,-13.600829124450684,2.6346235275268555
1772649658810138600,4.662138671875,2.4287848472595215,-11.940531730651855,5.821653842926025
1772649658830146300,4.682146240234375,1.6750041246414185,-10.823725700378418,4.6333909034729
1772649658850154200,4.702154296875,1.2052781581878662,-8.092039108276367,1.606419324874878
1772649658870162200,4.722162109375,1.0407476425170898,-4.626317024230957,-0.14622211456298828
1772649658890170000,4.742170166015625,1.5963528156280518,-1.0906200408935547,-1.854936122894287
1772649658910177800,4.762177734375,0.6373963356018066,1.957552433013916,-1.5604220628738403
1772649658930185700,4.782185791015625,0.3238579034805298,4.305593013763428,-2.4244534969329834
1772649658950193700,4.802193603515625,-2.936976194381714,8.003251075744629,-2.0610339641571045
1772649658970201600,4.82220166015625,-3.8711822032928467,10.245211601257324,-3.0235342979431152
1772649658990209500,4.84220947265625,-2.8676140308380127,10.75057315826416,-3.35158109664917
1772649659010217200,4.86221728515625,-2.0921502113342285,11.417823791503906,-3.4657235145568848
1772649659030225200,4.88222509765625,-0.7218725681304932,11.638413429260254,-2.2261505126953125
1772649659050233000,4.902233154296875,-0.8937574625015259,11.861518859863281,-0.5510935187339783
1772649659070241300,4.9222412109375,-1.8927417993545532,11.297550201416016,-0.044382452964782715
1772649659090249500,4.94224951171875,-2.732771158218384,10.605384826660156,0.4282832741737366
1772649659110257700,4.962257568359375,-2.794233798980713,9.269393920898438,1.0916332006454468
1772649659130265900,4.982265869140625,-1.5942262411117554,8.7506685256958,1.3230129480361938
1772649659150274000,5.002274169921875,-0.684904932975769,8.734999656677246,1.1328203678131104
1772649659170282200,5.0222822265625,-0.36108624935150146,8.982574462890625,0.3251733183860779
1772649659190290400,5.04229052734375,-0.3351116180419922,8.33579158782959,-0.5541237592697144
1772649659210298600,5.062298583984375,3.5377402305603027,3.7141671180725098,-1.9565829038619995
1772649659230306800,5.082306884765625,11.867127418518066,-12.827569961547852,-3.066005229949951
1772649659250315300,5.102315185546875,-11.678694725036621,-31.071002960205078,0.3532426953315735
1772649659270323500,5.122323486328125,8.107182502746582,-17.927791595458984,5.4449076652526855
1772649659290331600,5.14233154296875,4.231552600860596,-11.415872573852539,2.9151456356048584
1772649659310339800,5.16233984375,7.172396659851074,-14.3052396774292,5.800499439239502
1772649659330348000,5.18234814453125,3.271615743637085,-12.766546249389648,4.057026386260986
1772649659350356200,5.202356201171875,-0.37504255771636963,-14.090474128723145,7.201754093170166
1772649659370364400,5.222364501953125,1.3479114770889282,-13.264613151550293,6.855122089385986
1772649659390372600,5.24237255859375,2.2748522758483887,-9.61694049835205,3.42536997795105
1772649659410380800,5.262380859375,2.2420074939727783,-4.586996078491211,-0.25464215874671936
1772649659430389000,5.282388916015625,0.4200178384780884,-0.6697711944580078,-2.14690899848938
1772649659450397200,5.302397216796875,-1.3887343406677246,2.588320255279541,-3.761974573135376
1772649659470405600,5.322405517578125,-1.7851334810256958,6.305874824523926,-3.889625310897827
1772649659490413800,5.342413818359375,-1.6344630718231201,9.246356964111328,-3.313872814178467
1772649659510422000,5.362422119140625,0.21481382846832275,11.408915519714355,-3.413121461868286
1772649659530430200,5.38243017578125,-2.5671911239624023,13.754659652709961,-3.1609463691711426
1772649659550438400,5.4024384765625,-4.631143569946289,14.879669189453125,-2.4577796459198
1772649659570446600,5.422446533203125,-4.568753719329834,14.314338684082031,-3.0906782150268555
1772649659590455000,5.442455078125,-2.4260082244873047,9.551130294799805,-0.8690567016601562
1772649659610463200,5.462463134765625,-0.14107578992843628,7.363691806793213,0.5771906971931458
1772649659630471400,5.482471435546875,0.4525589346885681,7.074114799499512,1.0757477283477783
1772649659650479900,5.50247998046875,0.731088399887085,7.422752380371094,0.969504177570343
1772649659670488000,5.522488037109375,0.4126467704772949,8.429388046264648,0.6620820164680481
1772649659690496300,5.542496337890625,-0.06476008892059326,8.813050270080566,0.4006355404853821
1772649659710504400,5.56250439453125,-0.6065355539321899,8.68811321258545,-0.4197275638580322
1772649659730513000,5.582512939453125,-0.8246283531188965,7.712923526763916,-1.1234533786773682
1772649659750521000,5.60252099609375,3.857996940612793,2.9478917121887207,-1.7054224014282227
1772649659770529300,5.622529296875,1.4627461433410645,-12.11013126373291,-4.219295978546143
1772649659790537700,5.642537841796875,-9.559859275817871,-31.396276473999023,2.81719708442688
1772649659810546000,5.6625458984375,10.215547561645508,-14.416607856750488,5.113770484924316
1772649659830554000,5.68255419921875,1.5522691011428833,-4.7198591232299805,1.684226632118225
1772649659850562600,5.7025625,6.107864856719971,-7.8185014724731445,5.312747478485107
1772649659870570800,5.72257080078125,3.2527570724487305,-11.733580589294434,5.12439489364624
1772649659890579200,5.7425791015625,-1.193466067314148,-16.570083618164062,8.158621788024902
1772649659910587400,5.76258740234375,1.7662532329559326,-12.324708938598633,4.9042887687683105
1772649659930595600,5.782595703125,4.483652591705322,-8.172019958496094,-0.23327136039733887
1772649659950604000,5.80260400390625,3.476780414581299,-6.6659746170043945,-2.3843038082122803
1772649659970612200,5.8226123046875,0.21362519264221191,-5.889677047729492,-1.6985722780227661
1772649659990620400,5.842620361328125,-1.4844609498977661,-4.225910186767578,-0.0857786238193512
1772649660010628900,5.86262890625,-0.4098019599914551,-1.7860660552978516,1.274827003479004
1772649660030637000,5.882636962890625,2.1520371437072754,0.2804832458496094,0.6271548271179199
1772649660050645200,5.902645263671875,-1.2559640407562256,6.430379867553711,-2.7096738815307617
1772649660070654000,5.922654052734375,-3.293247938156128,9.904826164245605,-3.5001378059387207
1772649660090663000,5.942662841796875,-1.6837713718414307,12.107330322265625,-4.140070915222168
1772649660110672000,5.962671875,-0.9465470314025879,13.351151466369629,-3.3823013305664062
1772649660130680600,5.9826806640625,-1.627893328666687,13.134475708007812,-1.5293126106262207
1772649660150689500,6.002689453125,-5.257040500640869,12.034229278564453,-0.21741896867752075
1772649660170698200,6.0226982421875,-3.2197468280792236,10.634379386901855,1.1950763463974
1772649660190707200,6.042707275390625,-0.527702808380127,10.008646965026855,1.751340627670288
1772649660210716200,6.062716064453125,0.4928496479988098,8.23779582977295,1.5273406505584717
1772649660230724900,6.082724853515625,-0.13676023483276367,7.6280083656311035,0.01155400276184082
1772649660250733800,6.10273388671875,-0.30142366886138916,8.84334659576416,0.2558782696723938
1772649660270742800,6.12274267578125,-0.5304174423217773,9.778512001037598,0.7517805695533752
1772649660290751500,6.14275146484375,-0.7317211627960205,9.350631713867188,0.5016124844551086
1772649660310760400,6.162760498046875,0.5310612916946411,6.28857946395874,-0.2351284623146057
1772649660330769200,6.18276904296875,11.179579734802246,-4.201962471008301,-2.7786827087402344
1772649660350778000,6.202778076171875,-7.007790565490723,-26.365882873535156,1.2538743019104004
1772649660370787000,6.222787109375,0.498771071434021,-25.19672393798828,3.110502004623413
1772649660390795800,6.242795654296875,7.887201309204102,-5.816924095153809,1.597733736038208
1772649660410804700,6.2628046875,3.3956878185272217,-9.686905860900879,4.460016250610352
1772649660430813400,6.2828134765625,6.28045654296875,-13.699312210083008,7.219756603240967
1772649660450822400,6.302822509765625,2.4608664512634277,-16.212650299072266,7.692909240722656
1772649660470831400,6.322831298828125,-0.19167816638946533,-15.281128883361816,8.117448806762695
1772649660490840000,6.342840087890625,2.3617019653320312,-12.55150318145752,4.5865678787231445
1772649660510849000,6.36284912109375,3.054396629333496,-9.14538288116455,0.06907057762145996
1772649660530857700,6.382857666015625,2.2032456398010254,-6.427217483520508,-2.3043878078460693
1772649660550866700,6.40286669921875,0.16975939273834229,-2.7180538177490234,-2.492107629776001
1772649660570876000,6.4228759765625,-1.7579914331436157,1.084259033203125,-2.252272129058838
1772649660590884900,6.442884765625,-2.113382339477539,5.278751850128174,-2.0709950923919678
1772649660610894000,6.46289404296875,-0.6215569972991943,8.29139518737793,-3.739656448364258
1772649660630903300,6.4829033203125,-1.1539151668548584,10.8049898147583,-4.634533882141113
1772649660650912300,6.502912353515625,-3.6734261512756348,14.011643409729004,-3.705352306365967
1772649660670921500,6.52292138671875,-5.8553547859191895,15.362592697143555,-3.538450002670288
1772649660690930700,6.5429306640625,-6.322566032409668,15.087102890014648,-4.214163780212402
1772649660710940000,6.56293994140625,-3.4489331245422363,11.845812797546387,-1.890243411064148
1772649660730948900,6.582948974609375,-1.1426236629486084,8.41356372833252,0.6773037910461426
1772649660750958000,6.6029580078125,0.02477109432220459,7.136272430419922,1.6845192909240723
1772649660770967300,6.62296728515625,0.9502451419830322,6.850742340087891,1.2876777648925781
1772649660790976300,6.642976318359375,0.18263697624206543,7.490940570831299,0.805976152420044
1772649660810985500,6.6629853515625,-1.2034589052200317,8.325020790100098,0.7948989868164062
1772649660830994700,6.68299462890625,-1.6224641799926758,8.855347633361816,0.4791576862335205
1772649660851004000,6.70300390625,-0.503974199295044,7.850046157836914,-0.1749666929244995
1772649660871012900,6.723012939453125,8.264495849609375,0.7956781387329102,-0.6911051273345947
1772649660891022000,6.74302197265625,-2.1038689613342285,-18.471683502197266,1.7144138813018799
1772649660911031300,6.76303125,-1.2726821899414062,-37.36821365356445,-0.3337861895561218
1772649660931040300,6.783040283203125,6.215426445007324,-10.202603340148926,3.1949853897094727
1772649660951049500,6.803049560546875,-0.025876998901367188,-1.9987707138061523,3.1223981380462646
1772649660971058700,6.82305859375,0.16575145721435547,-2.1234560012817383,4.921175003051758
1772649660991068000,6.84306787109375,-0.9313048124313354,-4.975275993347168,1.7427279949188232
1772649661011077000,6.8630771484375,-1.3358979225158691,-6.112083435058594,1.4478564262390137
1772649661031086000,6.883086181640625,-0.7894798517227173,-3.252932548522949,0.9167643785476685
1772649661051095300,6.90309521484375,0.3161323070526123,-1.9487533569335938,-0.038671717047691345
1772649661071104000,6.92310400390625,1.088620662689209,-3.104731559753418,-0.7461596727371216
1772649661091112700,6.94311279296875,0.6994643211364746,-2.40384578704834,-1.590091347694397
1772649661111121200,6.96312109375,1.3148925304412842,-0.5328664779663086,-1.7339767217636108
1772649661131129900,6.9831298828125,0.9710078239440918,1.556859016418457,-0.7162783741950989
1772649661151138600,7.003138671875,0.5080444812774658,3.3520026206970215,0.16440105438232422
1772649661171147300,7.023147216796875,0.10896790027618408,3.9004979133605957,0.8118270635604858
1772649661191155700,7.04315576171875,0.15637409687042236,2.748871326446533,1.5211279392242432
1772649661211164400,7.063164306640625,-0.13688433170318604,1.2281990051269531,2.0034561157226562
1772649661231173000,7.083173095703125,-0.8847503662109375,0.5711727142333984,0.8653230667114258
1772649661251181800,7.103181884765625,-0.2851189374923706,1.214524269104004,-0.6872432827949524
1772649661271190300,7.123190185546875,0.0975414514541626,1.0785837173461914,-1.4343150854110718
1772649661291199000,7.143198974609375,0.6817648410797119,1.1456985473632812,-1.7268959283828735
1772649661311207700,7.163207763671875,0.6770632266998291,1.166534423828125,-1.4190300703048706
1772649661331216400,7.18321630859375,0.47305870056152344,0.7295894622802734,-0.2685675323009491
1772649661351225000,7.20322509765625,0.27229416370391846,0.1625833511352539,0.638340413570404
1772649661371233500,7.223233642578125,-0.2018204927444458,-0.10050201416015625,0.6157037019729614
1772649661391242200,7.2432421875,-0.7989557981491089,-0.08234691619873047,-0.055312104523181915
1772649661411251000,7.2632509765625,-0.8749061822891235,-0.0285186767578125,-0.003581106662750244
1772649661431259400,7.28325927734375,-0.3645305633544922,-0.09731769561767578,0.4835696816444397
1772649661451268000,7.30326806640625,0.19897675514221191,-0.09766006469726562,1.0645233392715454
1772649661471276800,7.32327685546875,0.2080247402191162,0.10245895385742188,1.3447277545928955
1772649661491285500,7.343285400390625,-0.24840998649597168,0.20059967041015625,1.3909673690795898
1772649661511294000,7.3632939453125,-0.22328269481658936,-0.07388782501220703,1.2120296955108643
1772649661531302700,7.383302734375,-0.05617630481719971,0.15545082092285156,1.0112277269363403
1772649661551311400,7.403311279296875,0.009041905403137207,-0.1955242156982422,1.0566622018814087
1772649661571319300,7.4233193359375,0.019377946853637695,-0.2859458923339844,0.9219332337379456
1772649661591327000,7.443326904296875,-0.08322107791900635,-0.33350086212158203,0.8401260375976562
1772649661611334700,7.463334716796875,-0.1658320426940918,-0.18988037109375,0.4863716959953308
1772649661631342300,7.48334228515625,-0.08702743053436279,-0.05635643005371094,0.237065851688385
1772649661651350000,7.50335009765625,-0.059035539627075195,-0.3432140350341797,0.14953893423080444
1772649661671357700,7.523357666015625,-0.13247919082641602,-0.1960611343383789,-0.003375709056854248
1772649661691365400,7.543365478515625,-0.27519333362579346,-0.2655038833618164,-0.0019235610961914062
1772649661711373300,7.563373291015625,-0.34988999366760254,0.23292922973632812,-0.09919989109039307
1772649661731381000,7.583381103515625,-0.29111361503601074,-0.1283283233642578,-0.02586221694946289
1772649661751388700,7.603388671875,-0.25603723526000977,-0.02315044403076172,0.141975998878479
1772649661771396400,7.623396240234375,-0.17209219932556152,-0.12239837646484375,0.41343796253204346
1772649661791404000,7.643404052734375,-0.1294623613357544,-0.16005325317382812,0.52398681640625
1772649661811411700,7.66341162109375,-0.15341246128082275,-0.12901973724365234,0.6084564924240112
1772649661831419400,7.68341943359375,-0.15912044048309326,-0.1717529296875,0.6419710516929626
1772649661851427000,7.703427001953125,-0.11542165279388428,-0.29593563079833984,0.6565470099449158
1772649661871434800,7.723434814453125,-0.21865344047546387,-0.11547660827636719,0.7898334860801697
1772649661891442700,7.743442626953125,-0.22918128967285156,0.037532806396484375,0.7950641512870789
1772649661911450400,7.763450439453125,-0.19108140468597412,0.03850078582763672,0.7735424637794495
1772649661931458000,7.7834580078125,-0.0857541561126709,-0.047652244567871094,0.7683538794517517
1772649661951465700,7.8034658203125,-0.037322998046875,-0.07255363464355469,0.637118935585022
1772649661971473400,7.823473388671875,-0.08581411838531494,-0.048015594482421875,0.4735982418060303
1772649661991481000,7.843481201171875,-0.21225368976593018,-0.07092857360839844,0.3727671504020691
1772649662011488800,7.86348876953125,-0.17353808879852295,-0.009953498840332031,0.3165895938873291
1772649662031496400,7.883496337890625,-0.26518821716308594,0.08321475982666016,0.26456356048583984
1772649662051504000,7.903504150390625,-0.270351767539978,-0.11200332641601562,0.2443721890449524
1772649662071512000,7.923511962890625,-0.19642817974090576,-0.13823223114013672,0.15006345510482788
1772649662091519700,7.943519775390625,-0.21467077732086182,0.05685997009277344,0.07919681072235107
1772649662111527700,7.963527587890625,-0.20453882217407227,-0.009940147399902344,0.06781154870986938
1772649662131535400,7.983535400390625,-0.33259379863739014,-0.13140487670898438,0.03967791795730591
