time,seconds_elapsed,z,y,x
1772649654360789200,0.212789306640625,0.09134634584188461,0.23808640241622925,-0.058988966047763824
1772649654370792700,0.222792724609375,0.10466214269399643,0.22849902510643005,-0.07070686668157578
1772649654380796400,0.23279638671875,0.12064109742641449,0.20932428538799286,-0.0882837176322937
1772649654390800000,0.2427998046875,0.13542161881923676,0.18642111122608185,-0.10159950703382492
1772649654400803300,0.25280322265625,0.14927005767822266,0.164583221077919,-0.11025477200746536
1772649654410806800,0.262806884765625,0.15779216587543488,0.1549958437681198,-0.12197267264127731
1772649654420810200,0.272810302734375,0.17430374026298523,0.20932428538799286,-0.11611372232437134
1772649654430813700,0.282813720703125,0.17643427848815918,0.2359558641910553,-0.1134505644440651
1772649654440817200,0.292817138671875,0.18122795224189758,0.2790990471839905,-0.10972214490175247
1772649654450820900,0.30282080078125,0.17803215980529785,0.3217095732688904,-0.10599371790885925
1772649654460824300,0.31282421875,0.17217321693897247,0.3568632900714874,-0.09587371349334717
1772649654470827800,0.322827880859375,0.16298532485961914,0.3866906464099884,-0.08096002787351608
1772649654480831200,0.332831298828125,0.14860425889492035,0.40799593925476074,-0.06711160391569138
1772649654490834700,0.342834716796875,0.12942951917648315,0.4197138249874115,-0.052197910845279694
1772649654500838100,0.352838134765625,0.10918951034545898,0.4298338294029236,-0.04580633342266083
1772649654510841600,0.362841552734375,0.08255792409181595,0.423974871635437,-0.04633896425366402
1772649654520845000,0.372844970703125,0.05273054540157318,0.40799593925476074,-0.050600018352270126
1772649654530848800,0.382848876953125,0.02077263966202736,0.40213698148727417,-0.0564589649438858
1772649654540852200,0.392852294921875,-0.023435797542333603,0.3904190957546234,-0.06072001904249191
1772649654550855700,0.402855712890625,-0.0768321305513382,0.3856253921985626,-0.058589495718479156
1772649654560859400,0.412859375,-0.1380847841501236,0.38882118463516235,-0.051132649183273315
1772649654570863600,0.422863525390625,-0.20546270906925201,0.36485275626182556,-0.029294747859239578
1772649654580867800,0.432867919921875,-0.2846916913986206,0.3312969505786896,0.00013315794058144093
1772649654590872300,0.442872314453125,-0.356596976518631,0.2977411448955536,0.03049316816031933
1772649654600876500,0.45287646484375,-0.42796963453292847,0.28921905159950256,0.06404896825551987
1772649654610880800,0.462880859375,-0.46685174107551575,0.3078611493110657,0.09014792740345001
1772649654620885000,0.472885009765625,-0.4727106988430023,0.34194958209991455,0.11038793623447418
1772649654630889200,0.48288916015625,-0.45300331711769104,0.3627222180366516,0.14500899612903595
1772649654640893400,0.4928935546875,-0.40559908747673035,0.3904190957546234,0.2275669276714325
1772649654650897700,0.502897705078125,-0.35340118408203125,0.4522043764591217,0.3559311628341675
1772649654660902100,0.512902099609375,-0.3086601197719574,0.5257075428962708,0.5056006908416748
1772649654670906400,0.52290625,-0.2660495638847351,0.5395559668540955,0.6499438881874084
1772649654680910600,0.53291064453125,-0.223439022898674,0.5629917979240417,0.722914457321167
1772649654690914800,0.542914794921875,-0.22130849957466125,0.6450170874595642,0.6829670667648315
1772649654700919000,0.5529189453125,-0.21118849515914917,0.6705833673477173,0.5913544297218323
1772649654710923300,0.56292333984375,-0.22983060777187347,0.6578001976013184,0.4581964612007141
1772649654720927700,0.572927734375,-0.23995061218738556,0.566720187664032,0.33409327268600464
1772649654730932000,0.582931884765625,-0.2090579718351364,0.4186485707759857,0.24354587495326996
1772649654740936200,0.592936279296875,-0.1914811134338379,0.2780337929725647,0.156194269657135
1772649654750940400,0.6029404296875,-0.18775269389152527,0.1549958437681198,0.07576686888933182
1772649654760944600,0.612944580078125,-0.11265161633491516,0.04474106803536415,0.05872265249490738
1772649654770948900,0.622948974609375,-0.0918789803981781,0.04420843720436096,0.1141163557767868
1772649654780953000,0.632953125,-0.07217160612344742,0.0846884474158287,0.20785954594612122
1772649654790957600,0.64295751953125,-0.057257913053035736,0.11930951476097107,0.288286954164505
1772649654800961800,0.6529619140625,-0.019441058859229088,0.1459411084651947,0.32929959893226624
1772649654810966000,0.662966064453125,0.03169158846139908,0.15020215511322021,0.30479851365089417
1772649654820970200,0.67297021484375,0.10519476979970932,0.13262531161308289,0.2035984843969345
1772649654830974500,0.682974365234375,0.17390426993370056,0.0798947662115097,0.05126580595970154
1772649654840979000,0.69297900390625,0.21704743802547455,0.0010652635246515274,-0.1308942586183548
1772649654850983200,0.702983154296875,0.2474074512720108,-0.12996214628219604,-0.31678274273872375
1772649654860987400,0.7129873046875,0.2846916913986206,-0.2684464156627655,-0.4707133173942566
1772649654870991600,0.72299169921875,0.3427485525608063,-0.32224223017692566,-0.5351617336273193
1772649654880995800,0.732995849609375,0.3981422483921051,-0.316915899515152,-0.5175849199295044
1772649654891000000,0.743,0.43808963894844055,-0.24660851061344147,-0.46272385120391846
1772649654901004300,0.75300439453125,0.47111278772354126,-0.12303793430328369,-0.422776460647583
1772649654911008800,0.7630087890625,0.47590649127960205,0.027696851640939713,-0.4430164694786072
1772649654921013000,0.773012939453125,0.46259069442749023,0.2029327005147934,-0.47284385561943054
1772649654931017200,0.783017333984375,0.4444811940193176,0.3685811758041382,-0.4707133173942566
1772649654941021400,0.793021484375,0.4311653971672058,0.5352949500083923,-0.4573975205421448
1772649654951025700,0.803025634765625,0.43382856249809265,0.6929539442062378,-0.4376901388168335
1772649654961030000,0.81302978515625,0.440752774477005,0.8213181495666504,-0.4036017060279846
1772649654971034000,0.8230341796875,0.43436118960380554,0.9145287275314331,-0.36791539192199707
1772649654981038600,0.83303857421875,0.4167843461036682,0.9614003300666809,-0.33169642090797424
1772649654991042800,0.843042724609375,0.3885548710823059,0.91026771068573,-0.2992058992385864
1772649655001047000,0.853047119140625,0.3619232773780823,0.8415581583976746,-0.2667153477668762
1772649655011051300,0.86305126953125,0.3454116880893707,0.8303729295730591,-0.25553008913993835
1772649655021055500,0.873055419921875,0.32144325971603394,0.9177245497703552,-0.2539321780204773
1772649655031059700,0.883059814453125,0.27403903007507324,1.0109350681304932,-0.28375956416130066
1772649655041064200,0.893064208984375,0.23675481975078583,1.044490933418274,-0.3380880057811737
1772649655051068400,0.903068359375,0.20692743360996246,1.078579306602478,-0.39721015095710754
1772649655061072600,0.91307275390625,0.22610218822956085,1.108939290046692,-0.45793014764785767
1772649655071076600,0.92307666015625,0.3518032729625702,1.0668613910675049,-0.5181175470352173
1772649655081080800,0.933080810546875,0.5153212547302246,0.8532760739326477,-0.5532712340354919
1772649655091085000,0.9430849609375,0.6202496886253357,0.46924859285354614,-0.531965970993042
1772649655101089300,0.95308935546875,0.6426202058792114,0.15872426331043243,-0.44035330414772034
1772649655111093200,0.96309326171875,0.5829654932022095,0.15872426331043243,-0.32104378938674927
1772649655121097500,0.973097412109375,0.5339633226394653,0.283360093832016,-0.2763027250766754
1772649655131101700,0.983101806640625,0.45193806290626526,0.3632548749446869,-0.2901511490345001
1772649655141106000,0.99310595703125,0.2793653607368469,0.33236223459243774,-0.24221429228782654
1772649655151110000,1.00310986328125,0.06524739414453506,0.24394534528255463,-0.0834900289773941
1772649655161114000,1.013114013671875,-0.11957582831382751,0.10173266381025314,0.10133319348096848
1772649655171118300,1.023118408203125,-0.2719085216522217,-0.0330231711268425,0.2366216629743576
1772649655181122300,1.033122314453125,-0.398674875497818,-0.14008215069770813,0.29680904746055603
1772649655191126500,1.04312646484375,-0.49401596188545227,-0.26418536901474,0.2978743016719818
1772649655201130800,1.053130859375,-0.5781717896461487,-0.4111917316913605,0.2850911617279053
1772649655211135000,1.063135009765625,-0.6351633667945862,-0.5123917460441589,0.2781669497489929
1772649655221139000,1.073138916015625,-0.6516749858856201,-0.5363602042198181,0.2595248222351074
1772649655231143200,1.08314306640625,-0.657001256942749,-0.5171854496002197,0.23928481340408325
1772649655241147400,1.0931474609375,-0.6468812823295593,-0.36059170961380005,0.21957744657993317
1772649655251151400,1.1031513671875,-0.572845458984375,-0.10013477504253387,0.2568616569042206
1772649655261155600,1.113155517578125,-0.4466117322444916,0.2354232370853424,0.38149750232696533
1772649655271159800,1.123159912109375,-0.3326285481452942,0.7068023681640625,0.6856302618980408
1772649655281164000,1.1331640625,-0.1771000623703003,1.812545895576477,1.7913737297058105
1772649655291168000,1.14316796875,0.1302284598350525,1.9137458801269531,2.8923237323760986
1772649655301172200,1.153172119140625,0.15952321887016296,0.1129179298877716,1.667270541191101
1772649655311176400,1.163176513671875,-0.10253161191940308,-0.9805750846862793,-0.01957421749830246
1772649655321180700,1.1731806640625,-0.2985401153564453,0.005326317623257637,-0.08189213275909424
1772649655331184600,1.1831845703125,0.11638004332780838,1.0679266452789307,0.7101312875747681
1772649655341188900,1.19318896484375,0.22184112668037415,0.23489060997962952,1.5916368961334229
1772649655351193000,1.203193115234375,-0.39494645595550537,-0.88150554895401,1.5676684379577637
1772649655361197300,1.213197265625,-0.9185234904289246,-0.9171919226646423,0.5482112169265747
1772649655371201300,1.223201171875,-0.9526119232177734,-0.7350318431854248,-0.26884588599205017
1772649655381205500,1.23320556640625,-0.8918918967247009,-0.8117308020591736,-0.23742060363292694
1772649655391209700,1.243209716796875,-0.7262434363365173,-0.927311897277832,0.07789739221334457
1772649655401213700,1.253213623046875,-0.36884748935699463,-0.7281076312065125,0.20519638061523438
1772649655411218000,1.263218017578125,0.12596741318702698,-0.3201116919517517,0.11571425199508667
1772649655421222100,1.27322216796875,0.5344959497451782,0.06498107314109802,-0.014247899875044823
1772649655431226400,1.283226318359375,0.711862325668335,0.2577937841415405,-0.11970898509025574
1772649655441230300,1.293230224609375,0.6767086386680603,0.3962780237197876,-0.2757700979709625
1772649655451234600,1.303234619140625,0.5616601705551147,0.34674328565597534,-0.475506991147995
1772649655461238800,1.31323876953125,0.3997401297092438,0.21038953959941864,-0.6757765412330627
1772649655471243000,1.323242919921875,0.27776744961738586,-0.017576847225427628,-0.8313050270080566
1772649655481247000,1.3332470703125,0.22556954622268677,-0.09693898260593414,-0.9186566472053528
1772649655491251200,1.343251220703125,0.2431464046239853,-0.059122126549482346,-0.9506145119667053
1772649655501255400,1.35325537109375,0.28309378027915955,0.08522108197212219,-0.9383640289306641
1772649655511259400,1.36325927734375,0.33475905656814575,0.2844253480434418,-0.8984166383743286
1772649655521263600,1.373263671875,0.41039276123046875,0.4303664565086365,-0.8605997562408447
1772649655531267800,1.383267822265625,0.509462296962738,0.5049349069595337,-0.8163913488388062
1772649655541272000,1.39327197265625,0.5685843825340271,0.4751075208187103,-0.75034499168396
1772649655551276000,1.403276123046875,0.5739107131958008,0.31372010707855225,-0.6246439218521118
1772649655561280300,1.4132802734375,0.5078643560409546,0.10279793292284012,-0.41531962156295776
1772649655571284700,1.42328466796875,0.4354264736175537,-0.029294747859239578,-0.16977638006210327
1772649655581289000,1.4332890625,0.40613171458244324,-0.029827378690242767,0.024634219706058502
1772649655591293400,1.44329345703125,0.3944138288497925,0.10972214490175247,0.09973529726266861
1772649655601297700,1.453297607421875,0.3848264515399933,0.3201116919517517,0.03262369707226753
1772649655611302100,1.46330224609375,0.38269591331481934,0.5310338735580444,-0.12024161964654922
1772649655621306400,1.473306396484375,0.40027275681495667,0.7408908009529114,-0.29281431436538696
1772649655631310800,1.483310791015625,0.42424118518829346,0.9118655920028687,-0.4376901388168335
1772649655641315000,1.493315185546875,0.4119906723499298,1.0434256792068481,-0.4600606858730316
1772649655651319600,1.503319580078125,0.4077296257019043,1.0274466276168823,-0.3609911799430847
1772649655661323800,1.51332373046875,0.4924180507659912,0.8554065823554993,-0.19587533175945282
1772649655671328300,1.523328369140625,0.6218475699424744,0.6524739265441895,-0.054727911949157715
1772649655681332500,1.53333251953125,0.6111949682235718,0.446878045797348,-0.02809632569551468
1772649655691337000,1.5433369140625,0.4961465001106262,0.3296990692615509,-0.04301001504063606
1772649655701341400,1.553341552734375,0.3326285481452942,0.3158506453037262,-0.0318247489631176
1772649655711345700,1.563345703125,0.15952321887016296,0.283360093832016,0.009720529429614544
1772649655721350100,1.57335009765625,-0.01038631983101368,0.14274531602859497,0.06777739524841309
1772649655731354400,1.583354248046875,-0.1675126850605011,-0.070840023458004,0.11731214821338654
1772649655741358600,1.593358642578125,-0.2996053695678711,-0.27110958099365234,0.13435636460781097
1772649655751363000,1.603363037109375,-0.4029359221458435,-0.4527370035648346,0.1290300488471985
1772649655761367600,1.613367431640625,-0.4977443814277649,-0.6135917901992798,0.13382373750209808
1772649655771371800,1.623371826171875,-0.5925528407096863,-0.7307707667350769,0.16951005160808563
1772649655781376300,1.633376220703125,-0.6213149428367615,-0.7568697333335876,0.20999006927013397
1772649655791380500,1.64338037109375,-0.6458160281181335,-0.658332884311676,0.1998700648546219
1772649655801385000,1.653385009765625,-0.6159886121749878,-0.5629917979240417,0.11837740987539291
1772649655811389200,1.66338916015625,-0.5382243990898132,-0.42237699031829834,0.05819002166390419
1772649655821393700,1.6733935546875,-0.47164541482925415,-0.21837902069091797,0.06884265691041946
1772649655831398000,1.68339794921875,-0.45247069001197815,0.10972214490175247,0.19294585287570953
1772649655841402400,1.69340234375,-0.46205806732177734,0.7707181572914124,0.7239797115325928
1772649655851406600,1.703406494140625,-0.5872265100479126,2.295642852783203,2.513089895248413
1772649655861411000,1.7134111328125,-0.48549383878707886,0.7462170720100403,2.6984455585479736
1772649655871415300,1.723415283203125,-0.049268439412117004,-1.4285184144973755,0.6952176094055176
1772649655881419800,1.733419677734375,0.44714435935020447,-0.4420843720436096,-0.4803006947040558
1772649655891424000,1.743424072265625,0.4087948799133301,-0.07456845045089722,-0.4339617192745209
1772649655901428500,1.753428466796875,0.0013315794058144093,-1.3779183626174927,0.6531397104263306
1772649655911432700,1.7634326171875,-0.19201375544071198,-1.1797794103622437,1.129312515258789
1772649655921437200,1.773437255859375,0.028495799750089645,-0.9321056008338928,0.34687644243240356
1772649655931441400,1.78344140625,0.09720529615879059,-1.1989541053771973,-0.5250417590141296
1772649655941446000,1.79344580078125,-0.09827055782079697,-1.447693109512329,-0.6012080907821655
1772649655951450000,1.8034501953125,0.021571585908532143,-1.2026824951171875,-0.1878858506679535
1772649655961454600,1.81345458984375,0.20106849074363708,-0.637560248374939,0.14021530747413635
1772649655971458800,1.823458740234375,0.3613906502723694,-0.09587371349334717,0.18282584846019745
1772649655981463300,1.83346337890625,0.4924180507659912,0.29401272535324097,0.02996053732931614
1772649655991467800,1.8434677734375,0.514255940914154,0.36165696382522583,-0.2012016475200653
1772649656001472000,1.853471923828125,0.407196968793869,0.2173137664794922,-0.4414185583591461
1772649656011476500,1.8634765625,0.2612558901309967,0.029294747859239578,-0.5964143872261047
1772649656021480700,1.873480712890625,0.15526215732097626,-0.026098955422639847,-0.6315681338310242
1772649656031485200,1.883485107421875,0.06205160170793533,0.0798947662115097,-0.574043869972229
1772649656041489400,1.893489501953125,-0.037550538778305054,0.21784639358520508,-0.44940805435180664
1772649656051494000,1.903493896484375,-0.18349164724349976,0.30945906043052673,-0.38336169719696045
1772649656061497900,1.913497802734375,-0.33475905656814575,0.31265485286712646,-0.4376901388168335
1772649656071501600,1.92350146484375,-0.4631233215332031,0.3105243146419525,-0.5564670562744141
1772649656081505300,1.93350537109375,-0.5036033391952515,0.26738113164901733,-0.619850218296051
1772649656091509000,1.943509033203125,-0.4540685713291168,0.18002954125404358,-0.5751091241836548
1772649656101512700,1.9535126953125,-0.3976096212863922,0.034621063619852066,-0.42490699887275696
1772649656111516400,1.963516357421875,-0.3331611752510071,-0.08362318575382233,-0.21931113302707672
1772649656121520000,1.97352001953125,-0.24208113551139832,-0.15339794754981995,0.0011984214652329683
1772649656131523800,1.98352392578125,-0.14194636046886444,-0.14434321224689484,0.19827216863632202
1772649656141527600,1.993527587890625,-0.02263684943318367,-0.02450106106698513,0.3032006323337555
1772649656161535000,2.013534912109375,0.26338639855384827,0.3637875020503998,0.18602164089679718
1772649656171538700,2.02353857421875,0.3518032729625702,0.5661875605583191,0.05712475627660751
1772649656181542400,2.03354248046875,0.36724960803985596,0.6471475958824158,-0.08082687109708786
1772649656191546000,2.043546142578125,0.3613906502723694,0.6034718155860901,-0.16977638006210327
1772649656201549800,2.0535498046875,0.3384874761104584,0.5954822897911072,-0.2012016475200653
1772649656211553500,2.063553466796875,0.30599695444107056,0.6567349433898926,-0.16711321473121643
1772649656221557200,2.07355712890625,0.27830010652542114,0.666854977607727,-0.062184758484363556
1772649656231561000,2.08356103515625,0.277234822511673,0.6391581296920776,0.0294279046356678
1772649656241564700,2.093564697265625,0.20266638696193695,0.5768402218818665,0.04114580526947975
1772649656251568000,2.103568115234375,0.08868318796157837,0.4090611934661865,0.03741738200187683
1772649656261571800,2.11357177734375,-0.05938844010233879,0.2029327005147934,0.05552686005830765
1772649656271575600,2.123575439453125,-0.18349164724349976,0.018642112612724304,0.09227845072746277
1772649656281579300,2.133579345703125,-0.27403903007507324,-0.11611372232437134,0.10932266712188721
1772649656291583000,2.1435830078125,-0.33902010321617126,-0.20399796962738037,0.09014792740345001
1772649656301586700,2.153586669921875,-0.38589170575141907,-0.27483800053596497,0.08801739662885666
1772649656311590400,2.16359033203125,-0.4253064692020416,-0.29507800936698914,0.11731214821338654
1772649656321594000,2.173593994140625,-0.4418180584907532,-0.2588590383529663,0.1615205854177475
1772649656331597800,2.183597900390625,-0.4396875202655792,-0.17523585259914398,0.20040270686149597
1772649656341601500,2.1936015625,-0.4173169732093811,-0.06072001904249191,0.2179795503616333
1772649656351605200,2.203605224609375,-0.3837611973285675,0.06072001904249191,0.18442374467849731
1772649656361609000,2.21360888671875,-0.3289000988006592,0.1603221595287323,0.11571425199508667
1772649656371612700,2.22361279296875,-0.2426137626171112,0.15446321666240692,0.0810931846499443
1772649656381616400,2.233616455078125,-0.15046846866607666,0.11451582610607147,0.1189100444316864
1772649656391620000,2.2436201171875,-0.0870852917432785,0.1081242486834526,0.1988048106431961
1772649656401623800,2.253623779296875,-0.11211898922920227,0.16724637150764465,0.24780692160129547
1772649656411627500,2.26362744140625,-0.2628537714481354,0.26258745789527893,0.3351585268974304
1772649656421631200,2.27363134765625,-0.5621927976608276,0.6780402064323425,1.2257188558578491
1772649656431635000,2.283635009765625,-1.2120035886764526,0.48362964391708374,2.7634267807006836
1772649656441638700,2.293638671875,-1.6860458850860596,-2.4533019065856934,1.042493462562561
1772649656451642400,2.303642333984375,-1.2423635721206665,-1.994173288345337,-0.5484775304794312
1772649656461646000,2.31364599609375,-0.581367552280426,-0.8106655478477478,-0.21291954815387726
1772649656471649800,2.32364990234375,-1.0570077896118164,-2.212552309036255,1.020655632019043
1772649656481653500,2.333653564453125,-1.3808478116989136,-2.014413356781006,1.5277210474014282
1772649656491657200,2.3436572265625,-1.3030836582183838,-1.1147983074188232,1.0962892770767212
1772649656501660700,2.35366064453125,-0.8471508026123047,-0.5661875605583191,0.4810996353626251
1772649656511664600,2.36366455078125,-0.40613171458244324,-0.38828855752944946,0.08162581920623779
1772649656521668400,2.37366845703125,-0.11957582831382751,-0.0846884474158287,-0.025965798646211624
1772649656531672000,2.383672119140625,0.3219758868217468,0.35633066296577454,-0.0073236869648098946
1772649656541675500,2.393675537109375,0.7651255130767822,0.8878971338272095,-0.018508953973650932
1772649656551679200,2.40367919921875,1.1512835025787354,1.0274466276168823,-0.050466857850551605
1772649656561683200,2.41368310546875,1.2876372337341309,0.7041391730308533,-0.2059953361749649
1772649656571687400,2.4236875,1.1326414346694946,0.3249053657054901,-0.3620564341545105
1772649656581692000,2.43369189453125,0.707068681716919,0.1784316450357437,-0.3705785572528839
1772649656591696100,2.443696044921875,0.2287653386592865,0.09321055561304092,-0.3993406593799591
1772649656601700600,2.45370068359375,-0.14993584156036377,-0.13209268450737,-0.5309007167816162
1772649656611704800,2.463704833984375,-0.4375569820404053,-0.2588590383529663,-0.6683197021484375
1772649656621709300,2.473709228515625,-0.5797696709632874,-0.17576847970485687,-0.7077344655990601
1772649656631713500,2.483713623046875,-0.5195822715759277,0.02024000696837902,-0.7396923303604126
1772649656641717800,2.4937177734375,-0.31185588240623474,0.10439582169055939,-0.796151340007782
1772649656651722200,2.50372216796875,-0.08388949930667877,0.13049478828907013,-0.8355661034584045
1772649656661726500,2.5137265625,0.12117372453212738,0.2125200778245926,-0.816923975944519
1772649656671730700,2.523730712890625,0.28788745403289795,0.31798115372657776,-0.7231807708740234
1772649656681735200,2.533735107421875,0.4412854015827179,0.33662328124046326,-0.5447491407394409
1772649656691739400,2.543739501953125,0.5099949240684509,0.35153695940971375,-0.34021854400634766
1772649656701743900,2.553743896484375,0.4886896312236786,0.3808317184448242,-0.1495363712310791
1772649656711748000,2.563748046875,0.407196968793869,0.38988643884658813,0.015579478815197945
1772649656721752300,2.57375244140625,0.29800745844841003,0.44634541869163513,0.13222584128379822
1772649656731756800,2.5837568359375,0.2101232260465622,0.5699160099029541,0.16737952828407288
1772649656741761000,2.593760986328125,0.19893796741962433,0.7036065459251404,0.11092056334018707
1772649656751765500,2.603765625,0.19787269830703735,0.9070718884468079,-0.04514054208993912
1772649656761769700,2.613769775390625,0.22770008444786072,1.146223545074463,-0.20333217084407806
1772649656771774000,2.62377392578125,0.3187801241874695,1.3614068031311035,-0.31252169609069824
1772649656781778400,2.6337783203125,0.3763043284416199,1.3076109886169434,-0.3380880057811737
1772649656791782700,2.64378271484375,0.388022243976593,0.9587371945381165,-0.2922816872596741
1772649656811791400,2.663791259765625,0.28682219982147217,0.20879164338111877,-0.3285006284713745
1772649656821795600,2.673795654296875,0.23249375820159912,0.1315600425004959,-0.28429219126701355
1772649656831800000,2.683800048828125,0.18508954346179962,0.12090741097927094,-0.16764584183692932
1772649656841804300,2.69380419921875,0.1856221705675125,0.029827378690242767,-0.04886896535754204
1772649656851808800,2.703808837890625,0.1904158592224121,-0.1842905879020691,-0.06165212765336037
1772649656861813000,2.71381298828125,0.11691267043352127,-0.446878045797348,-0.12343741208314896
1772649656871817500,2.7238173828125,0.025832640007138252,-0.767522394657135,-0.10373003780841827
1772649656881821700,2.73382177734375,-0.13608741760253906,-1.0354361534118652,-0.06751107424497604
1772649656891826000,2.743825927734375,-0.30599695444107056,-1.2064108848571777,-0.05366265028715134
1772649656901830400,2.753830322265625,-0.49135279655456543,-1.2884361743927002,-0.020639481022953987
1772649656911834600,2.763834716796875,-0.6575338840484619,-1.2665983438491821,0.048602648079395294
1772649656921839000,2.773839111328125,-0.7427549958229065,-1.157941460609436,0.1567268967628479
1772649656931843300,2.78384326171875,-0.7720497250556946,-0.9901624321937561,0.2946785092353821
1772649656941847600,2.79384765625,-0.7384939193725586,-0.7872297167778015,0.4262385666370392
1772649656951852000,2.80385205078125,-0.5994770526885986,-0.5352949500083923,0.4496743679046631
1772649656961856300,2.813856201171875,-0.4274369776248932,-0.2455432415008545,0.3889543414115906
1772649656971860500,2.823860595703125,-0.26445168256759644,0.13422320783138275,0.36711645126342773
1772649656981865000,2.833864990234375,-0.1350221484899521,0.6093307137489319,0.5221123099327087
1772649656991869200,2.843869140625,0.0023968429304659367,1.7656742334365845,1.461674690246582
1772649657001873700,2.853873779296875,0.1866874396800995,2.351569175720215,2.9967193603515625
1772649657011878000,2.8638779296875,-0.2719085216522217,-0.9933582544326782,0.9940240383148193
1772649657021882400,2.87388232421875,-0.803475022315979,-2.223205089569092,-0.410525918006897
1772649657031886600,2.883886474609375,-0.9456877112388611,-1.2516846656799316,0.4150533080101013
1772649657041890800,2.893890869140625,-1.1635340452194214,-0.8372971415519714,1.1873693466186523
1772649657051895300,2.903895263671875,-1.1709909439086914,-0.6455497145652771,1.1751188039779663
1772649657061899300,2.913899169921875,-1.0532792806625366,-0.7462170720100403,0.4251733124256134
1772649657071903000,2.923903076171875,-0.9121319055557251,-0.3057306408882141,-0.09254477173089981
1772649657081907000,2.933906982421875,-0.5286370515823364,0.04474106803536415,-0.12769846618175507
1772649657091910700,2.94391064453125,-0.05086633190512657,0.13741900026798248,-0.10958898812532425
1772649657101914400,2.953914306640625,0.4934833347797394,0.47297701239585876,-0.01105210930109024
1772649657111918300,2.96391845703125,0.8242476582527161,1.0524803400039673,0.09121318906545639
1772649657121922000,2.973922119140625,0.8849676847457886,1.267130970954895,-0.01531316339969635
1772649657131925800,2.98392578125,0.745418131351471,1.0759161710739136,-0.3290332853794098
1772649657141929700,2.9939296875,0.4753738343715668,0.8745813369750977,-0.7444860339164734
1772649657151933400,3.003933349609375,0.28362640738487244,0.6711159944534302,-1.0470209121704102
1772649657161937200,3.013937255859375,0.2197106033563614,0.46445488929748535,-1.119991421699524
1772649657171941000,3.023941162109375,0.3406180143356323,0.055393703281879425,-1.0416945219039917
1772649657181944800,3.03394482421875,0.4647212028503418,-0.24714113771915436,-0.9207871556282043
1772649657191948500,3.043948486328125,0.33049800992012024,-0.3760380148887634,-0.9271787405014038
1772649657201952500,3.053952392578125,0.3267695903778076,-0.31265485286712646,-0.938896656036377
1772649657211956200,3.063956298828125,0.41891488432884216,0.11611372232437134,-0.9106671810150146
1772649657221960000,3.0739599609375,0.4966791272163391,0.5635244250297546,-0.7945534586906433
1772649657231963600,3.083963623046875,0.5233107209205627,0.8138613104820251,-0.6097301840782166
1772649657241967600,3.093967529296875,0.5169191360473633,0.8602002859115601,-0.3748396039009094
1772649657251971300,3.103971435546875,0.5062664747238159,0.7440865635871887,-0.1639174222946167
1772649657261975300,3.113975341796875,0.5046685934066772,0.5523391366004944,-0.054195281118154526
1772649657271979000,3.12397900390625,0.5568665266036987,0.38029909133911133,0.00013315794058144093
1772649657281982700,3.133982666015625,0.6282391548156738,0.27110958099365234,0.04274369776248932
1772649657291986400,3.143986328125,0.6639254689216614,0.1459411084651947,0.03475422412157059
1772649657301990400,3.153990478515625,0.7182539105415344,0.021305270493030548,-0.029694220051169395
1772649657311994000,3.163994140625,0.7880287170410156,-0.02450106106698513,-0.09201213717460632
1772649657321997800,3.173997802734375,0.8072034120559692,0.0804273933172226,-0.14101426303386688
1772649657332001800,3.184001708984375,0.7917571067810059,0.26684850454330444,-0.18522270023822784
1772649657342005500,3.194005615234375,0.7427549958229065,0.41278961300849915,-0.20812585949897766
1772649657352009200,3.20400927734375,0.6916223168373108,0.4447475075721741,-0.1921469122171402
1772649657362013200,3.21401318359375,0.6846981048583984,0.4522043764591217,-0.18042901158332825
1772649657372017000,3.224016845703125,0.6644580960273743,0.4814991056919098,-0.21664796769618988
1772649657382020600,3.2340205078125,0.6005423069000244,0.33715590834617615,-0.23529008030891418
1772649657392024600,3.244024658203125,0.5435507297515869,0.058589495718479156,-0.22303955256938934
1772649657402028300,3.2540283203125,0.4444811940193176,-0.2647179961204529,-0.21398481726646423
1772649657412032000,3.264031982421875,0.30546432733535767,-0.4751075208187103,-0.19960375130176544
1772649657422036000,3.274035888671875,0.15899057686328888,-0.5326317548751831,-0.16711321473121643
1772649657432039700,3.284039794921875,0.021571585908532143,-0.5001412034034729,-0.10373003780841827
1772649657442043400,3.29404345703125,-0.12277162075042725,-0.43729066848754883,-0.0073236869648098946
1772649657452047400,3.30404736328125,-0.2612558901309967,-0.4069306552410126,0.09600687772035599
1772649657462051000,3.314051025390625,-0.3752390742301941,-0.4090611934661865,0.18868480622768402
1772649657472054800,3.3240546875,-0.48975491523742676,-0.4436822533607483,0.3037332594394684
1772649657482058800,3.334058837890625,-0.5036033391952515,-0.3824295997619629,0.38149750232696533
1772649657492062500,3.3440625,-0.45247069001197815,-0.23009692132472992,0.3649859130382538
1772649657502066200,3.354066162109375,-0.38269591331481934,0.046871595084667206,0.3223753869533539
1772649657512070100,3.364070068359375,-0.32570433616638184,0.392549604177475,0.34847432374954224
1772649657522073900,3.374073974609375,-0.3086601197719574,0.7803055047988892,0.5711144208908081
1772649657532077600,3.38407763671875,-0.32463905215263367,1.3416993618011475,1.1926956176757812
1772649657542081500,3.39408154296875,-0.30546432733535767,1.589905858039856,1.729588508605957
1772649657552085200,3.404085205078125,-0.4396875202655792,0.516120195388794,1.1133335828781128
1772649657562089500,3.41408935546875,-0.8844350576400757,-0.8990824222564697,-0.04354264587163925
1772649657572094000,3.424093994140625,-0.8828371167182922,-0.9390298128128052,-0.4099932909011841
1772649657582098700,3.4340986328125,-0.5435507297515869,-0.19654111564159393,0.016112111508846283
1772649657592103400,3.444103515625,-0.669784426689148,-0.1507347822189331,0.6467481255531311
1772649657602108000,3.45410791015625,-1.0442246198654175,-0.7435539364814758,0.8496808409690857
1772649657612112600,3.464112548828125,-1.0548771619796753,-0.6924213171005249,0.6488786339759827
1772649657622117400,3.474117431640625,-0.8641950488090515,-0.5811012387275696,0.41345539689064026
1772649657632121900,3.484121826171875,-0.7358307838439941,-0.45433488488197327,0.20519638061523438
1772649657642126600,3.494126708984375,-0.45619910955429077,-0.018109479919075966,0.16524900496006012
1772649657652131300,3.50413134765625,-0.061518967151641846,0.6945518255233765,0.2936132550239563
1772649657662135800,3.5141357421875,0.3177148401737213,1.1664636135101318,0.42836910486221313
1772649657672140500,3.524140625,0.530767560005188,1.086568832397461,0.2802974581718445
1772649657682145300,3.534145263671875,0.455133855342865,0.7792402505874634,-0.16604794561862946
1772649657692149800,3.544149658203125,0.18775269389152527,0.5954822897911072,-0.5601954460144043
1772649657702154500,3.554154541015625,-0.0013315794058144093,0.25140219926834106,-0.7231807708740234
1772649657712159000,3.564158935546875,-0.0918789803981781,-0.14274531602859497,-0.7743134498596191
1772649657722163700,3.574163818359375,-0.10466214269399643,-0.5289033651351929,-0.7695197463035583
1772649657732168400,3.58416845703125,-0.023702112957835197,-0.7531412839889526,-0.7364965677261353
1772649657742173000,3.5941728515625,0.10519476979970932,-0.6823012828826904,-0.7183870673179626
1772649657752177700,3.604177734375,0.223439022898674,-0.3829622268676758,-0.7151913046836853
1772649657762182400,3.614182373046875,0.3129211664199829,-0.03994738310575485,-0.7258439064025879
1772649657772187000,3.624186767578125,0.3608580231666565,0.32650327682495117,-0.72903972864151
1772649657782191600,3.634191650390625,0.3997401297092438,0.5480780601501465,-0.6773744225502014
1772649657792196000,3.644196044921875,0.4162517189979553,0.6061349511146545,-0.5532712340354919
1772649657802200800,3.654200927734375,0.39068540930747986,0.5443496704101562,-0.3817638158798218
1772649657812205600,3.66420556640625,0.2884201109409332,0.36591801047325134,-0.18522270023822784
1772649657822210000,3.6742099609375,0.17816533148288727,0.11877688020467758,-0.02756369300186634
1772649657832214800,3.68421484375,0.09400950372219086,-0.13049478828907013,0.02623211406171322
1772649657842219500,3.694219482421875,0.09720529615879059,-0.10439582169055939,-0.02383527159690857
1772649657852224000,3.70422412109375,0.12436951696872711,0.10918951034545898,-0.16764584183692932
1772649657862228700,3.714228759765625,0.17603479325771332,0.3547327518463135,-0.34021854400634766
1772649657872233500,3.7242333984375,0.28256115317344666,0.6285054683685303,-0.4701806902885437
1772649657882238000,3.734238037109375,0.3885548710823059,0.6892254948616028,-0.5543364882469177
1772649657892242700,3.74424267578125,0.432230681180954,0.5187833309173584,-0.5372923016548157
1772649657902247400,3.754247314453125,0.388022243976593,0.3765706419944763,-0.399873286485672
1772649657912252000,3.764251953125,0.33955276012420654,0.31265485286712646,-0.18575532734394073
1772649657922256600,3.774256591796875,0.33475905656814575,0.2551306188106537,0.02197105996310711
1772649657932261000,3.78426123046875,0.45832961797714233,0.050600018352270126,0.1098553016781807
1772649657942265900,3.794265869140625,0.5717802047729492,-0.3350253701210022,-0.03608580306172371
1772649657952270600,3.8042705078125,0.5067991018295288,-0.6540718078613281,-0.257127970457077
1772649657962275000,3.814275146484375,0.45619910955429077,-0.9289097785949707,-0.37324169278144836
1772649657972279800,3.82427978515625,0.3795001208782196,-1.1430277824401855,-0.4222438335418701
1772649657982284500,3.834284423828125,0.26764747500419617,-1.2271835803985596,-0.4382227957248688
1772649657992289000,3.8442890625,0.16538216173648834,-1.1797794103622437,-0.4222438335418701
1772649658002293800,3.854293701171875,0.04181159287691116,-1.0173267126083374,-0.3673827648162842
1772649658012298200,3.86429833984375,-0.0684431791305542,-0.8282423615455627,-0.2640521824359894
1772649658022303000,3.874302978515625,-0.17017585039138794,-0.6599307656288147,-0.12503530085086823
1772649658032307700,3.8843076171875,-0.2719085216522217,-0.5576654672622681,0.0011984214652329683
1772649658042312200,3.894312255859375,-0.26019060611724854,-0.5006738305091858,0.06138581037521362
1772649658052317000,3.90431689453125,-0.1579253226518631,-0.348341166973114,0.06937528401613235
1772649658062321400,3.9143212890625,-0.03861580416560173,-0.164583221077919,0.07257107645273209
1772649658072326000,3.924325927734375,0.08761792629957199,0.12197267264127731,0.12476898729801178
1772649658082330000,3.934330078125,0.1344895213842392,0.43143174052238464,0.2520679831504822
1772649658092334600,3.94433447265625,0.10679266601800919,0.6679202318191528,0.5684512257575989
1772649658102338800,3.9543388671875,0.029561063274741173,1.04928457736969,1.2166640758514404
1772649658112343300,3.96434326171875,-0.19254638254642487,1.2309119701385498,1.8675401210784912
1772649658122347800,3.97434765625,-0.7246454954147339,0.4388885796070099,1.9005632400512695
1772649658132352000,3.98435205078125,-1.3723257780075073,-1.284175157546997,0.919988214969635
1772649658142356500,3.9943564453125,-1.5715299844741821,-1.7438364028930664,0.11358372122049332
1772649658152360700,4.004360595703125,-1.0921614170074463,-0.5187833309173584,0.38575854897499084
1772649658162365200,4.014365234375,-0.678306519985199,-0.03355580195784569,1.2145335674285889
1772649658172369700,4.02436962890625,-0.6213149428367615,-0.8559392690658569,1.340234637260437
1772649658182374000,4.034373779296875,-0.7965508103370667,-1.2463582754135132,0.6163880825042725
1772649658192378400,4.04437841796875,-0.6479465365409851,-1.0705899000167847,0.024634219706058502
1772649658202382600,4.054382568359375,-0.5856286287307739,-0.8202528953552246,-0.10213214159011841
1772649658212387000,4.064386962890625,-0.5227780938148499,-0.423974871635437,-0.02383527159690857
1772649658222391300,4.074391357421875,-0.3091927468776703,0.1784316450357437,0.11518161743879318
1772649658232395800,4.084395751953125,-0.10040108859539032,0.6487454771995544,0.1524658352136612
1772649658242400300,4.094400146484375,0.09560739994049072,0.7872297167778015,-0.0696416050195694
1772649658252404500,4.104404541015625,0.32517167925834656,0.6056023240089417,-0.4004059135913849
1772649658262409000,4.114408935546875,0.3901527523994446,0.42770329117774963,-0.552738606929779
1772649658272413200,4.1244130859375,0.23675481975078583,0.2700442969799042,-0.5745764970779419
1772649658282417700,4.134417724609375,0.08815055340528488,-0.00852210819721222,-0.5735112428665161
1772649658292422100,4.144422119140625,0.032224223017692566,-0.31425273418426514,-0.5596628189086914
1772649658302426400,4.15442626953125,0.020506322383880615,-0.4532696306705475,-0.5149217844009399
1772649658312430800,4.164430908203125,0.04873580485582352,-0.4000064432621002,-0.46219122409820557
1772649658322435000,4.17443505859375,0.08761792629957199,-0.09267792850732803,-0.35566484928131104
1772649658332439600,4.184439453125,0.23462429642677307,0.14008215069770813,-0.10586056113243103
1772649658342444000,4.194444091796875,0.24208113551139832,-0.4000064432621002,-0.1921469122171402
1772649658352448300,4.2044482421875,0.21598218381404877,-0.7478150129318237,-0.41585224866867065
1772649658362452700,4.21445263671875,0.2282327115535736,-0.5720465183258057,-0.6246439218521118
1772649658372457000,4.22445703125,0.31611695885658264,-0.22423797845840454,-0.7306376099586487
1772649658382461400,4.23446142578125,0.4780369997024536,0.13102741539478302,-0.6922881603240967
1772649658392466000,4.2444658203125,0.5840307474136353,0.5038696527481079,-0.5633912682533264
1772649658402470100,4.25447021484375,0.6000096797943115,0.8122634291648865,-0.4222438335418701
1772649658412474600,4.264474609375,0.5776391625404358,0.9667266607284546,-0.313586950302124
1772649658422478800,4.274478759765625,0.5611275434494019,0.9965540170669556,-0.23635534942150116
1772649658432483300,4.2844833984375,0.5707149505615234,1.0396971702575684,-0.18096163868904114
1772649658442487600,4.294487548828125,0.5776391625404358,1.1616698503494263,-0.13195951282978058
1772649658452492000,4.304491943359375,0.5344959497451782,1.246890902519226,-0.1026647686958313
1772649658462496500,4.31449658203125,0.48123279213905334,1.1542130708694458,-0.06751107424497604
1772649658472500700,4.324500732421875,0.4130559265613556,0.9134634733200073,0.004394211806356907
1772649658482505200,4.334505126953125,0.356596976518631,0.5326317548751831,0.09867003560066223
1772649658492509400,4.344509521484375,0.2910832464694977,0.04154527932405472,0.1471395194530487
1772649658502514000,4.354513916015625,0.18455690145492554,-0.3680485486984253,0.14128057658672333
1772649658512518400,4.364518310546875,0.06311686336994171,-0.5587307214736938,0.11997530609369278
1772649658522522600,4.374522705078125,-0.027430536225438118,-0.6684528589248657,0.11464899033308029
1772649658532527000,4.384527099609375,-0.12170635908842087,-0.8138613104820251,0.14074794948101044
1772649658542531300,4.39453125,-0.23995061218738556,-0.9582045674324036,0.18176059424877167
1772649658552535800,4.404535888671875,-0.356596976518631,-1.0098698139190674,0.2035984843969345
1772649658562540000,4.4145400390625,-0.4498075246810913,-0.9688571691513062,0.20679427683353424
1772649658572544000,4.4245439453125,-0.5105275511741638,-0.8559392690658569,0.1998700648546219
1772649658582547700,4.434547607421875,-0.5339633226394653,-0.696682333946228,0.18868480622768402
1772649658592551700,4.4445517578125,-0.5297023057937622,-0.533164381980896,0.1753690093755722
1772649658602555600,4.4545556640625,-0.49082016944885254,-0.3446127474308014,0.1380847841501236
1772649658612559600,4.4645595703125,-0.4748412072658539,-0.1794968992471695,0.0864195004105568
1772649658622563600,4.4745634765625,-0.43862226605415344,-0.02024000696837902,0.08162581920623779
1772649658632567600,4.484567626953125,-0.39654433727264404,0.09267792850732803,0.1514005810022354
1772649658652575500,4.504575439453125,-0.4370243549346924,0.29827380180358887,0.7287734150886536
1772649658662579500,4.514579345703125,-0.6191844344139099,1.0897645950317383,1.868072748184204
1772649658672583400,4.52458349609375,-0.9446224570274353,0.709465503692627,2.6254751682281494
1772649658682587100,4.534587158203125,-0.9600687623023987,-2.0708723068237305,1.330114722251892
1772649658692591000,4.544591064453125,-0.40453383326530457,-2.5710134506225586,-0.2763027250766754
1772649658702595000,4.554594970703125,-0.40932750701904297,-1.4034847021102905,-0.7018755078315735
1772649658712599000,4.56459912109375,-1.1528815031051636,-0.7584676146507263,0.23875218629837036
1772649658722603000,4.57460302734375,-1.016527771949768,-0.5720465183258057,1.2795146703720093
1772649658732607000,4.58460693359375,-0.2671148180961609,-0.37497276067733765,1.1804451942443848
1772649658742611000,4.59461083984375,-0.08655266463756561,-0.3717769682407379,0.2557964026927948
1772649658752615000,4.604614990234375,-0.27297377586364746,-0.5150549411773682,-0.24274691939353943
1772649658762619000,4.614618896484375,-0.3358243405818939,-0.3344927430152893,-0.21664796769618988
1772649658772622800,4.624622802734375,-0.158457949757576,-0.19014954566955566,0.04274369776248932
1772649658782626600,4.63462646484375,0.12223898619413376,0.2913495600223541,0.20466375350952148
1772649658802634500,4.654634521484375,0.5872265100479126,0.985901415348053,-0.10000161081552505
1772649658812638500,4.664638427734375,0.6687191724777222,0.5230444073677063,-0.28375956416130066
1772649658822642400,4.674642333984375,0.5803022980690002,0.002130527049303055,-0.4376901388168335
1772649658832646400,4.684646484375,0.36352118849754333,-0.3499390780925751,-0.5937512516975403
1772649658842650400,4.694650390625,0.14141373336315155,-0.5709812641143799,-0.678439736366272
1772649658852654300,4.704654296875,-0.02636527270078659,-0.6348970532417297,-0.6576670408248901
1772649658862658300,4.714658203125,-0.1621863692998886,-0.5081307291984558,-0.5921533703804016
1772649658872662300,4.724662353515625,-0.2713758945465088,-0.23702113330364227,-0.5388901829719543
1772649658882666000,4.734666015625,-0.3134537935256958,0.003195790573954582,-0.5074648857116699
1772649658892670000,4.744669921875,-0.2511358857154846,0.17576847970485687,-0.5048017501831055
1772649658902674000,4.754673828125,-0.10945582389831543,0.32756853103637695,-0.5159870386123657
1772649658912678000,4.764677978515625,-0.020506322383880615,0.46338963508605957,-0.4408859312534332
1772649658922681900,4.774681884765625,0.049268439412117004,0.8048065900802612,-0.20919112861156464
1772649658932685800,4.784685791015625,0.23675481975078583,1.1467561721801758,0.10346371680498123
1772649658942689800,4.794689697265625,0.18242637813091278,0.663126528263092,-0.010519477538764477
1772649658952693800,4.80469384765625,0.17923058569431305,0.20612849295139313,-0.24967113137245178
1772649658962697700,4.81469775390625,0.21331901848316193,0.12836425006389618,-0.39774277806282043
1772649658972701400,4.824701416015625,0.2793653607368469,0.34674328565597534,-0.48722490668296814
1772649658982705400,4.834705322265625,0.3379548490047455,0.6178528666496277,-0.5133238434791565
1772649658992709400,4.84470947265625,0.4183822572231293,0.8538087010383606,-0.4472775161266327
1772649659002713300,4.85471337890625,0.5195822715759277,1.0178593397140503,-0.31305432319641113
1772649659012717300,4.86471728515625,0.5840307474136353,1.1840404272079468,-0.11757846176624298
1772649659022721300,4.87472119140625,0.59787917137146,1.2958930730819702,0.14394372701644897
1772649659032725200,4.884725341796875,0.5435507297515869,1.200019359588623,0.4539354145526886
1772649659042729200,4.894729248046875,0.45247069001197815,0.9539434909820557,0.6872281432151794
1772649659052733200,4.904733154296875,0.43915489315986633,0.5129243731498718,0.6797713041305542
1772649659062737200,4.914737060546875,0.48123279213905334,-0.007456844672560692,0.4523375332355499
1772649659072741000,4.9247412109375,0.42477384209632874,-0.3914843499660492,0.23342587053775787
1772649659082745300,4.934745361328125,0.3507380187511444,-0.6242444515228271,0.08056055754423141
1772649659092749600,4.94474951171875,0.2884201109409332,-0.7712507843971252,-0.03502053767442703
1772649659102753500,4.95475341796875,0.2090579718351364,-0.847949743270874,-0.12290477752685547
1772649659112757500,4.964757568359375,0.10679266601800919,-0.9044087529182434,-0.17670059204101562
1772649659122761700,4.97476171875,0.02689790353178978,-0.9470192790031433,-0.19427743554115295
1772649659132766000,4.984765869140625,-0.04394211992621422,-0.9880319237709045,-0.1964079588651657
1772649659142770000,4.99477001953125,-0.10519476979970932,-0.9970866441726685,-0.20226691663265228
1772649659152774100,5.004774169921875,-0.1621863692998886,-0.9922930002212524,-0.19800585508346558
1772649659162778000,5.014778076171875,-0.19254638254642487,-0.9411603212356567,-0.16764584183692932
1772649659172782300,5.0247822265625,-0.18881796300411224,-0.8106655478477478,-0.10905635356903076
1772649659182786300,5.034786376953125,-0.1904158592224121,-0.6380928754806519,-0.04886896535754204
1772649659192790500,5.04479052734375,-0.2239716500043869,-0.392549604177475,-0.00945421401411295
1772649659202794500,5.05479443359375,-0.27403903007507324,-0.04846949130296707,0.09387634694576263
1772649659212798700,5.064798828125,-0.35872748494148254,0.46924859285354614,0.5098617672920227
1772649659222803000,5.074802978515625,-0.40506646037101746,1.4157352447509766,1.7615463733673096
1772649659232807000,5.084806884765625,-0.463655948638916,0.8910929560661316,2.3527677059173584
1772649659242811100,5.09481103515625,-0.9020118713378906,-1.5510237216949463,0.1428784728050232
1772649659252815000,5.104815185546875,-0.2751043140888214,-1.0455561876296997,-1.2057451009750366
1772649659262819300,5.1148193359375,0.5163865089416504,0.3813643455505371,-0.4664522707462311
1772649659272823300,5.1248232421875,0.18828532099723816,-0.4303664565086365,1.0297104120254517
1772649659282827500,5.13482763671875,-0.224504292011261,-0.7499455213546753,1.3503546714782715
1772649659292831500,5.14483154296875,-0.46685174107551575,-0.8554065823554993,0.4736427962779999
1772649659302835700,5.154835693359375,-0.46738436818122864,-1.2106720209121704,-0.14314478635787964
1772649659312840000,5.16483984375,-0.3848264515399933,-1.246890902519226,-0.290683776140213
1772649659322844000,5.174843994140625,-0.26871272921562195,-0.7930886745452881,-0.2198437601327896
1772649659332848000,5.18484814453125,-0.05193159729242325,-0.2689790427684784,-0.025433165952563286
1772649659342852000,5.19485205078125,0.21225376427173615,0.2450106143951416,0.04167843610048294
1772649659352856300,5.204856201171875,0.3709780275821686,0.49694544076919556,-0.19321216642856598
1772649659362860300,5.2148603515625,0.3273022174835205,0.5448822975158691,-0.4616585671901703
1772649659372864500,5.224864501953125,0.17763268947601318,0.5113264918327332,-0.6054691672325134
1772649659382868500,5.234868408203125,-0.0189084280282259,0.33609065413475037,-0.7066692113876343
1772649659392872700,5.244872802734375,-0.21118849515914917,0.09960214048624039,-0.7977492213249207
1772649659402876700,5.254876708984375,-0.3193127512931824,-0.12037477642297745,-0.8201197385787964
1772649659412881000,5.264880859375,-0.39068540930747986,-0.18056216835975647,-0.7743134498596191
1772649659422884900,5.274884765625,-0.4029359221458435,-0.06498107314109802,-0.6906902194023132
1772649659432889000,5.28488916015625,-0.40027275681495667,0.21411797404289246,-0.6102628707885742
1772649659442893300,5.294893310546875,-0.3241064250469208,0.49854332208633423,-0.5133238434791565
1772649659452897300,5.304897216796875,-0.19467690587043762,0.8346339464187622,-0.39294907450675964
1772649659462901500,5.314901611328125,-0.0828242376446724,1.2863056659698486,-0.30666273832321167
1772649659472905500,5.324905517578125,0.04181159287691116,1.4913688898086548,-0.1735047996044159
1772649659482909700,5.33490966796875,0.07643266022205353,1.4828468561172485,-0.046205803751945496
1772649659492913700,5.34491357421875,0.11158635467290878,1.5185331106185913,0.040613170713186264
1772649659502918000,5.35491796875,0.3049316704273224,1.7763268947601318,0.21691428124904633
1772649659512921900,5.364921875,0.24048323929309845,1.6586153507232666,0.4400869905948639
1772649659522926000,5.374926025390625,0.1525990068912506,0.8548739552497864,0.34794169664382935
1772649659532930000,5.384929931640625,0.15952321887016296,-0.017576847225427628,0.06564686447381973
1772649659542934300,5.394934326171875,0.17337164282798767,-0.4346275329589844,-0.13195951282978058
1772649659552938500,5.4049384765625,0.2287653386592865,-0.4751075208187103,-0.19001637399196625
1772649659562942500,5.4149423828125,0.3837611973285675,-0.3153179883956909,-0.18042901158332825
1772649659572946700,5.42494677734375,0.585096001625061,0.017576847225427628,-0.1964079588651657
1772649659582950700,5.43495068359375,0.618651807308197,0.23169481754302979,-0.2304963916540146
1772649659592955000,5.444954833984375,0.5462138652801514,0.24341271817684174,-0.21718059480190277
1772649659602959000,5.454958984375,0.505733847618103,0.06178528442978859,-0.17084163427352905
1772649659612963000,5.464963134765625,0.4396875202655792,-0.20453059673309326,-0.13249215483665466
1772649659622967300,5.47496728515625,0.3225085437297821,-0.4532696306705475,-0.09094687551259995
1772649659632971500,5.484971435546875,0.1914811134338379,-0.6146570444107056,-0.05739107355475426
1772649659642975500,5.4949755859375,0.06311686336994171,-0.6998781561851501,-0.02756369300186634
1772649659652979700,5.504979736328125,-0.05459475517272949,-0.705204427242279,0.013981583528220654
1772649659662984000,5.51498388671875,-0.15153373777866364,-0.6780402064323425,0.08162581920623779
1772649659672988200,5.52498828125,-0.2047969102859497,-0.6578001976013184,0.16045531630516052
1772649659682992000,5.5349921875,-0.2197106033563614,-0.6306359767913818,0.24887219071388245
1772649659692996400,5.544996337890625,-0.22237375378608704,-0.5347622632980347,0.3553985357284546
1772649659703000300,5.555000244140625,-0.20746007561683655,-0.4058654010295868,0.4251733124256134
1772649659713004500,5.565004638671875,-0.19734007120132446,-0.28122955560684204,0.4725775420665741
1772649659723008800,5.5750087890625,-0.20266638696193695,-0.11717899143695831,0.4997417628765106
1772649659733012700,5.5850126953125,-0.25965797901153564,0.1272989958524704,0.5247754454612732
1772649659743017000,5.595016845703125,-0.40133804082870483,0.41705065965652466,0.6467481255531311
1772649659753021200,5.605021240234375,-0.5808349251747131,0.8554065823554993,1.2651336193084717
1772649659763025200,5.615025146484375,-0.7187865376472473,1.4018868207931519,2.4470434188842773
1772649659773029400,5.625029296875,-0.8823044896125793,-0.6290380954742432,1.4824473857879639
1772649659783033600,5.63503369140625,-0.8716518878936768,-2.147571325302124,-0.7173218131065369
1772649659793037600,5.64503759765625,-0.43276330828666687,-0.25193482637405396,-0.9841703176498413
1772649659803041800,5.655041748046875,-0.30226853489875793,0.4538022577762604,0.2510027289390564
1772649659813046000,5.6650458984375,-0.41465383768081665,-0.3025348484516144,1.2715251445770264
1772649659823050200,5.67505029296875,-0.29694220423698425,-0.2822948396205902,1.20920729637146
1772649659833054200,5.68505419921875,-0.1392832100391388,-0.05379580706357956,0.462457537651062
1772649659843058400,5.695058349609375,-0.023702112957835197,-0.06977476179599762,-0.05952160060405731
1772649659853062400,5.7050625,0.10572740435600281,-0.015446321107447147,-0.17723321914672852
1772649659863066600,5.715066650390625,0.1957421749830246,0.2881537973880768,-0.012650004588067532
1772649659873070800,5.72507080078125,0.3177148401737213,0.8042739629745483,0.24514377117156982
1772649659883075000,5.735074951171875,0.4828307032585144,1.1499519348144531,0.39854171872138977
1772649659893079000,5.7450791015625,0.4929507076740265,1.0886993408203125,0.17377111315727234
1772649659903083300,5.755083251953125,0.2511358857154846,0.8724508285522461,-0.25606271624565125
1772649659913087500,5.76508740234375,-0.04713791236281395,0.5858949422836304,-0.5053343772888184
1772649659923091500,5.775091552734375,-0.2532663941383362,0.2647179961204529,-0.5969470739364624
1772649659933095700,5.785095703125,-0.35766223073005676,-0.08894950151443481,-0.6139912605285645
1772649659943099600,5.795099609375,-0.3278348445892334,-0.4436822533607483,-0.5820333361625671
1772649659953104000,5.805103759765625,-0.20319901406764984,-0.6237117648124695,-0.498410165309906
1772649659963108000,5.815108154296875,-0.05512738600373268,-0.5384907126426697,-0.42011329531669617
1772649659973112300,5.8251123046875,0.07590002566576004,-0.2647179961204529,-0.4318312108516693
1772649659983116300,5.8351162109375,0.20852532982826233,0.06817686557769775,-0.5181175470352173
1772649659993120500,5.84512060546875,0.3081274628639221,0.27643588185310364,-0.6129260063171387
1772649660003124500,5.85512451171875,0.3603253960609436,0.3808317184448242,-0.6571344137191772
1772649660013128700,5.865128662109375,0.34807485342025757,0.4186485707759857,-0.59002286195755
1772649660023133000,5.8751328125,0.35712960362434387,0.4069306552410126,-0.389220654964447
1772649660033137200,5.88513720703125,0.27883273363113403,0.2838927209377289,-0.1442100554704666
1772649660043141000,5.89514111328125,0.23196113109588623,-0.27483800053596497,-0.1442100554704666
1772649660053145300,5.905145263671875,0.24154850840568542,-0.6364949345588684,-0.36898064613342285
1772649660063149600,5.915149658203125,0.30226853489875793,-0.48682543635368347,-0.5767070651054382
1772649660073154000,5.925154052734375,0.3549990653991699,-0.12836425006389618,-0.6789723634719849
1772649660083158500,5.935158447265625,0.41571909189224243,0.1603221595287323,-0.6422207355499268
1772649660093163000,5.9451630859375,0.5046685934066772,0.4159854054450989,-0.5585975646972656
1772649660103167500,5.95516748046875,0.6356959939002991,0.7046718001365662,-0.45260384678840637
1772649660113171700,5.965171630859375,0.7310370802879333,0.8804402947425842,-0.28322693705558777
1772649660123176200,5.97517626953125,0.7496792078018188,0.8399602770805359,-0.03289001062512398
1772649660133180700,5.9851806640625,0.6506096720695496,0.772316038608551,0.19134795665740967
1772649660143185200,5.99518505859375,0.5787044167518616,0.8703203201293945,0.22490376234054565
1772649660153189400,6.005189453125,0.5680517554283142,0.9683245420455933,0.1290300488471985
1772649660163193900,6.01519384765625,0.5265064835548401,0.8442213535308838,0.007057370617985725
1772649660173198300,6.0251982421875,0.4263717234134674,0.4335622489452362,-0.1213068813085556
1772649660183202800,6.035202880859375,0.3081274628639221,-0.06072001904249191,-0.26991114020347595
1772649660193207300,6.045207275390625,0.2516685128211975,-0.49694544076919556,-0.37377434968948364
1772649660203211800,6.055211669921875,0.16911058127880096,-0.864461362361908,-0.39294907450675964
1772649660213216000,6.065216064453125,0.07430212944746017,-1.2804467678070068,-0.3530017137527466
1772649660223220500,6.075220458984375,0.02689790353178978,-1.5840468406677246,-0.28802061080932617
1772649660233225000,6.085224853515625,0.006657897029072046,-1.6383752822875977,-0.2203763872385025
1772649660243229400,6.0952294921875,-0.008788423612713814,-1.5211963653564453,-0.15752583742141724
1772649660253234000,6.10523388671875,-0.04767054319381714,-1.3060131072998047,-0.07656581699848175
1772649660263238100,6.115238037109375,-0.09827055782079697,-1.083372950553894,0.013981583528220654
1772649660273242600,6.12524267578125,-0.1344895213842392,-0.7930886745452881,0.08375634253025055
1772649660283247000,6.1352470703125,-0.17869795858860016,-0.5054675340652466,0.12050793319940567
1772649660293251600,6.14525146484375,-0.15526215732097626,-0.21145480871200562,0.1375521570444107
1772649660303256000,6.155256103515625,-0.15686005353927612,0.08149266242980957,0.1519332081079483
1772649660313260300,6.16526025390625,-0.23089586198329926,0.4799012243747711,0.2275669276714325
1772649660323264800,6.1752646484375,-0.27350640296936035,1.1483540534973145,0.726642906665802
1772649660333269200,6.185269287109375,-0.277234822511673,1.9478343725204468,2.0102853775024414
1772649660343273700,6.195273681640625,-0.6633928418159485,0.1267663538455963,1.7700685262680054
1772649660353278200,6.2052783203125,-0.9520792961120605,-1.3960278034210205,-0.1692437380552292
1772649660363282400,6.215282470703125,-0.2617885172367096,-0.6013412475585938,-0.910134494304657
1772649660373287000,6.225286865234375,-0.30173590779304504,-0.22477060556411743,-0.21505007147789001
1772649660383291400,6.23529150390625,-0.6617949604988098,-0.898017168045044,0.9524787664413452
1772649660393296000,6.2452958984375,-0.5089296698570251,-1.1259835958480835,1.3072115182876587
1772649660403300400,6.25530029296875,-0.4024032950401306,-0.7776423692703247,0.6792386770248413
1772649660413304800,6.265304931640625,-0.3459443151950836,-0.516120195388794,0.12317109853029251
1772649660423309000,6.27530908203125,-0.33369380235671997,-0.23861902952194214,-0.00519315991550684
1772649660433313500,6.2853134765625,-0.35340118408203125,0.2311621904373169,0.08748476952314377
1772649660443318000,6.295318115234375,-0.17816533148288727,0.6066675782203674,0.16684690117835999
1772649660453322500,6.305322509765625,0.05672528222203255,0.8213181495666504,0.1524658352136612
1772649660463326700,6.31532666015625,0.20426428318023682,0.8341013193130493,-0.06538055092096329
1772649660473331200,6.325331298828125,0.2005358636379242,0.7984150052070618,-0.3205111622810364
1772649660483335700,6.335335693359375,-0.024767376482486725,0.7174549698829651,-0.42011329531669617
1772649660493340200,6.345340087890625,-0.3171822130680084,0.4612590968608856,-0.4941491186618805
1772649660503344600,6.3553447265625,-0.49561384320259094,0.11504846066236496,-0.5649891495704651
1772649660513348900,6.365348876953125,-0.555801272392273,-0.19014954566955566,-0.5479449033737183
1772649660523353300,6.375353271484375,-0.5456812381744385,-0.29880642890930176,-0.4557996392250061
1772649660533357800,6.38535791015625,-0.5046685934066772,-0.174170583486557,-0.3620564341545105
1772649660543362300,6.3953623046875,-0.4231759309768677,0.011717898771166801,-0.2949448525905609
1772649660553366800,6.40536669921875,-0.3187801241874695,0.21837902069091797,-0.2576606273651123
1772649660563371300,6.415371337890625,-0.23675481975078583,0.42663803696632385,-0.21185427904129028
1772649660573375700,6.425375732421875,-0.1962748020887375,0.633831799030304,-0.16178689897060394
1772649660583380500,6.43538037109375,-0.16911058127880096,0.8372971415519714,-0.09680582582950592
1772649660593385000,6.445385009765625,-0.17443689703941345,1.0460888147354126,0.02143842913210392
1772649660603389400,6.455389404296875,-0.15100111067295074,1.1638003587722778,0.14500899612903595
1772649660613394200,6.465394287109375,-0.12117372453212738,1.132907748222351,0.3261038064956665
1772649660623398700,6.475398681640625,-0.08069371432065964,1.175518274307251,0.5652554631233215
1772649660633403100,6.485403076171875,-0.07110633701086044,0.9965540170669556,0.6355628371238708
1772649660643408000,6.495407958984375,-0.07483476400375366,0.24341271817684174,0.4150533080101013
1772649660653412400,6.505412353515625,-0.04234422370791435,-0.4751075208187103,0.12104056775569916
1772649660663416800,6.515416748046875,0.016245268285274506,-0.8506129384040833,-0.0786963403224945
1772649660673421600,6.525421630859375,0.15153373777866364,-0.8191876411437988,-0.17190690338611603
1772649660683426000,6.535426025390625,0.3992075026035309,-0.45966121554374695,-0.1916142702102661
1772649660693430800,6.5454306640625,0.7305044531822205,-0.09747160971164703,-0.21291954815387726
1772649660703435300,6.555435302734375,0.9440897703170776,0.14274531602859497,-0.2613890469074249
1772649660713439700,6.565439697265625,0.9701887369155884,0.030892642214894295,-0.357795387506485
1772649660723444500,6.575444580078125,0.9568729400634766,-0.2024000734090805,-0.3961448669433594
1772649660733449000,6.585448974609375,0.8817718625068665,-0.37390750646591187,-0.3801659345626831
1772649660743453400,6.595453369140625,0.7539402842521667,-0.5145222544670105,-0.380698561668396
1772649660753458200,6.605458251953125,0.5755085945129395,-0.6700507402420044,-0.35087117552757263
1772649660763462700,6.615462646484375,0.3997401297092438,-0.8447539806365967,-0.282161682844162
1772649660773467100,6.625467041015625,0.21811270713806152,-0.9395624399185181,-0.15592794120311737
1772649660783471900,6.635471923828125,0.0588558092713356,-0.9779118895530701,-0.01904158480465412
1772649660793476400,6.645476318359375,-0.07270423322916031,-0.9459540247917175,0.09494160860776901
1772649660803480800,6.655480712890625,-0.1254347860813141,-0.8378297686576843,0.15939006209373474
1772649660813485600,6.665485595703125,-0.13289162516593933,-0.6780402064323425,0.17749953269958496
1772649660823490000,6.675489990234375,-0.10892319679260254,-0.47297701239585876,0.16791217029094696
1772649660833494800,6.685494873046875,-0.0402136966586113,-0.1885516494512558,0.17963005602359772
1772649660843499300,6.695499267578125,-0.0045273699797689915,0.13741900026798248,0.2467416673898697
1772649660853503700,6.705503662109375,-0.019973691552877426,0.5081307291984558,0.4006722569465637
1772649660863508500,6.715508544921875,-0.11851056665182114,0.9326382279396057,0.8267776370048523
1772649660873513000,6.725512939453125,-0.2617885172367096,1.515337347984314,2.0012307167053223
1772649660883517400,6.735517333984375,-0.45619910955429077,1.3022847175598145,3.0952563285827637
1772649660893522200,6.745522216796875,-1.328649878501892,-1.090829849243164,1.4254558086395264
1772649660903526700,6.755526611328125,-2.005625009536743,-2.311621904373169,-0.2523342967033386
1772649660913531400,6.765531494140625,-1.4937658309936523,-1.1728551387786865,0.5471459627151489
1772649660923536000,6.775535888671875,-1.270060420036316,-0.7653918266296387,1.8792580366134644
1772649660933540400,6.785540283203125,-1.3467594385147095,-1.0950908660888672,1.9245316982269287
1772649660943545000,6.795545166015625,-1.1022814512252808,-0.8351665735244751,1.0275797843933105
1772649660953549600,6.805549560546875,-0.8167908191680908,-0.5081307291984558,0.4406196177005768
1772649660963554000,6.815553955078125,-0.6612623333930969,-0.4106590747833252,0.2648511528968811
1772649660973558800,6.825558837890625,-0.5568665266036987,0.03142527490854263,0.3069290518760681
1772649660983563300,6.835563232421875,-0.32144325971603394,0.6647244691848755,0.4906870126724243
1772649660993567700,6.845567626953125,-0.045007385313510895,1.0684592723846436,0.6089312434196472
1772649661003572500,6.855572509765625,0.20160111784934998,1.2532825469970703,0.4858933389186859
1772649661013577000,6.865576904296875,0.39654433727264404,1.174985647201538,0.13488899171352386
1772649661023581400,6.87558154296875,0.5110601782798767,0.8772445321083069,-0.31305432319641113
1772649661033586200,6.885586181640625,0.5568665266036987,0.5198485851287842,-0.6523407697677612
1772649661043590700,6.895590576171875,0.5265064835548401,0.15659373998641968,-0.7897597551345825
1772649661053595400,6.905595458984375,0.44341593980789185,-0.10333056002855301,-0.7854986786842346
1772649661063599600,6.915599609375,0.37204328179359436,-0.32277485728263855,-0.6912228465080261
1772649661073604000,6.92560400390625,0.28735482692718506,-0.52091383934021,-0.5756417512893677
1772649661083608300,6.9356083984375,0.20852532982826233,-0.6625939011573792,-0.5218459963798523
1772649661093612500,6.945612548828125,0.1249021515250206,-0.7360970973968506,-0.5383575558662415
1772649661103617000,6.955616943359375,0.053529493510723114,-0.7861644625663757,-0.556999683380127
1772649661113621200,6.965621337890625,0.016245268285274506,-0.8101329207420349,-0.5639238953590393
1772649661123625500,6.97562548828125,0.003994738217443228,-0.8064044713973999,-0.5575323104858398
1772649661133630000,6.9856298828125,0.0189084280282259,-0.7707181572914124,-0.5340964794158936
1772649661143634200,6.99563427734375,0.0684431791305542,-0.6972149610519409,-0.49042069911956787
1772649661153638400,7.005638427734375,0.1339568942785263,-0.5715138912200928,-0.43928804993629456
1772649661163643000,7.015642822265625,0.1962748020887375,-0.42717066407203674,-0.38229644298553467
1772649661173647000,7.025647216796875,0.266582190990448,-0.2918822169303894,-0.3375553786754608
1772649661183651600,7.035651611328125,0.33103063702583313,-0.1693768948316574,-0.2992058992385864
1772649661193655800,7.04565576171875,0.37257590889930725,-0.20985691249370575,-0.26032376289367676
1772649661203660000,7.055659912109375,0.3507380187511444,-0.3664506673812866,-0.16977638006210327
1772649661213664500,7.06566455078125,0.34914010763168335,-0.4532696306705475,-0.08455529063940048
1772649661223668700,7.075668701171875,0.3187801241874695,-0.4340948760509491,-0.06804370880126953
1772649661233673200,7.085673095703125,0.3086601197719574,-0.23915165662765503,-0.15699321031570435
1772649661243677400,7.095677490234375,0.2852243185043335,-0.09108003228902817,-0.21931113302707672
1772649661253681700,7.105681640625,0.26391902565956116,-0.038882117718458176,-0.21771323680877686
1772649661263686100,7.11568603515625,0.2330264002084732,-0.08841687440872192,-0.22144165635108948
1772649661273690400,7.1256904296875,0.19361165165901184,-0.21891164779663086,-0.2342248111963272
1772649661283694600,7.135694580078125,0.14247900247573853,-0.36432012915611267,-0.25180166959762573
1772649661293699000,7.145698974609375,0.09986845403909683,-0.46924859285354614,-0.24700798094272614
1772649661303703300,7.155703369140625,0.05992107465863228,-0.5384907126426697,-0.22197428345680237
1772649661313707800,7.165707763671875,0.017310531809926033,-0.5885580778121948,-0.20386481285095215
1772649661323712000,7.1757119140625,-0.02210421860218048,-0.6343644261360168,-0.2012016475200653
1772649661333716200,7.18571630859375,-0.06524739414453506,-0.7030739188194275,-0.18149426579475403
1772649661343720700,7.195720703125,-0.10945582389831543,-0.7733812928199768,-0.1356879472732544
1772649661353725000,7.205724853515625,-0.13129372894763947,-0.8527434468269348,-0.07017423212528229
1772649661363729200,7.215729248046875,-0.11638004332780838,-0.9576718807220459,0.011851056478917599
1772649661373733600,7.225733642578125,-0.1062600389122963,-1.0125329494476318,0.07416897267103195
1772649661383737900,7.23573779296875,-0.07270423322916031,-0.9917603135108948,0.12050793319940567
1772649661393742000,7.2457421875,-0.04447475075721741,-0.9054740071296692,0.13488899171352386
1772649661403746600,7.25574658203125,0.00026631588116288185,-0.7984150052070618,0.1279647797346115
1772649661413750800,7.265750732421875,0.05193159729242325,-0.7376949787139893,0.10293108969926834
1772649661423755300,7.27575537109375,0.07270423322916031,-0.7355644702911377,0.06138581037521362
1772649661433759500,7.285759521484375,0.0636494979262352,-0.7882950305938721,0.02197105996310711
1772649661443763700,7.295763671875,0.023702112957835197,-0.8868318796157837,0.0027963167522102594
1772649661453768200,7.305768310546875,-0.013582110404968262,-0.9816403388977051,0.008122634142637253
1772649661463772400,7.3157724609375,-0.061518967151641846,-1.0226529836654663,0.02569948323071003
1772649661473777000,7.32577685546875,-0.10093371570110321,-0.9795098304748535,0.05499422922730446
1772649661483781000,7.335781005859375,-0.12330425530672073,-0.8756465911865234,0.06404896825551987
1772649661493785300,7.345785400390625,-0.13768531382083893,-0.7621960639953613,0.047537386417388916
1772649661503789800,7.355789794921875,-0.13608741760253906,-0.6679202318191528,0.016112111508846283
1772649661513794000,7.3657939453125,-0.1249021515250206,-0.6008086204528809,-0.0014647373463958502
1772649661523798500,7.375798583984375,-0.11744530498981476,-0.5555348992347717,-0.0009321055840700865
1772649661533802800,7.385802734375,-0.11797793209552765,-0.49268439412117004,0.007057370617985725
1772649661543807000,7.395806884765625,-0.10839056223630905,-0.46338963508605957,0.01344895176589489
1772649661553811500,7.4058115234375,-0.10839056223630905,-0.4623243808746338,0.01344895176589489
1772649661563815400,7.4158154296875,-0.1105210930109024,-0.4394212067127228,0.018242638558149338
1772649661573819100,7.425819091796875,-0.10785793513059616,-0.39734330773353577,0.035819485783576965
1772649661583823000,7.435822998046875,-0.11691267043352127,-0.3824295997619629,0.048070017248392105
1772649661593826800,7.445826904296875,-0.13981583714485168,-0.3440801203250885,0.056592125445604324
1772649661603830800,7.455830810546875,-0.13821794092655182,-0.2870885133743286,0.06777739524841309
1772649661613834500,7.46583447265625,-0.15952321887016296,-0.2535327076911926,0.08375634253025055
1772649661623838500,7.47583837890625,-0.18029585480690002,-0.19973690807819366,0.10186582803726196
1772649661633842400,7.485842529296875,-0.18988321721553802,-0.174170583486557,0.11464899033308029
1772649661643846100,7.49584619140625,-0.20106849074363708,-0.19121479988098145,0.11464899033308029
1772649661653850000,7.50585009765625,-0.20692743360996246,-0.21784639358520508,0.1189100444316864
1772649661663853800,7.515853759765625,-0.2191779762506485,-0.23329271376132965,0.12423636019229889
1772649661673857800,7.52585791015625,-0.20426428318023682,-0.27483800053596497,0.12476898729801178
1772649661683861500,7.535861572265625,-0.18828532099723816,-0.3339601159095764,0.12476898729801178
1772649661693865500,7.545865478515625,-0.14993584156036377,-0.35579800605773926,0.11677951365709305
1772649661703869400,7.555869384765625,-0.15153373777866364,-0.38349485397338867,0.11571425199508667
1772649661713873200,7.565873046875,-0.1291632056236267,-0.35579800605773926,0.10719214379787445
1772649661723877000,7.575877197265625,-0.09827055782079697,-0.3573959171772003,0.09760477393865585
1772649661733880800,7.585880859375,-0.06311686336994171,-0.3595264256000519,0.09281108528375626
1772649661743884800,7.595884765625,-0.04234422370791435,-0.3536674976348877,0.08801739662885666
1772649661753888500,7.605888427734375,-0.0306263267993927,-0.3392864465713501,0.08375634253025055
1772649661763892500,7.615892578125,-0.025300009176135063,-0.3312969505786896,0.08695213496685028
1772649661773896200,7.625896240234375,-0.025300009176135063,-0.3259706497192383,0.09281108528375626
1772649661793904000,7.645904052734375,-0.025832640007138252,-0.316915899515152,0.11677951365709305
1772649661803907800,7.655907958984375,-0.021571585908532143,-0.3115895688533783,0.12743215262889862
1772649661813911800,7.665911865234375,-0.01411474123597145,-0.3057306408882141,0.1380847841501236
1772649661823915500,7.67591552734375,-0.006125265266746283,-0.2876211404800415,0.14660689234733582
1772649661833919500,7.68591943359375,0.0029294746927917004,-0.25300008058547974,0.15406373143196106
1772649661843923200,7.695923095703125,0.011451583355665207,-0.20559586584568024,0.16311848163604736
1772649661853927200,7.70592724609375,0.014647373929619789,-0.1597895324230194,0.16684690117835999
1772649661863931000,7.715930908203125,0.01411474123597145,-0.12357056885957718,0.15086795389652252
1772649661873934800,7.725934814453125,0.011984214186668396,-0.09321055561304092,0.1237037256360054
1772649661883938800,7.735938720703125,0.01038631983101368,-0.06711160391569138,0.10133319348096848
1772649661893942500,7.745942626953125,0.008788423612713814,-0.029827378690242767,0.0906805545091629
1772649661903946500,7.755946533203125,0.0045273699797689915,0.006924212910234928,0.08215844631195068
1772649661913950200,7.7659501953125,0.0023968429304659367,0.038882117718458176,0.0768321305513382
1772649661923954200,7.7759541015625,-0.001864211168140173,0.059122126549482346,0.07576686888933182
1772649661933958000,7.7859580078125,-0.00719052879139781,0.06924212723970413,0.0762995034456253
1772649661943961900,7.7959619140625,-0.012516846880316734,0.07403581589460373,0.07843002676963806
1772649661953965600,7.805965576171875,-0.021038955077528954,0.08575371652841568,0.0858868733048439
1772649661963969500,7.815969482421875,-0.028495799750089645,0.09960214048624039,0.09494160860776901
1772649661973973500,7.825973388671875,-0.03382211551070213,0.11824425309896469,0.10346371680498123
1772649661993981200,7.845981201171875,-0.04447475075721741,0.13954952359199524,0.11038793623447418
1772649662003985000,7.85598486328125,-0.049801070243120193,0.14274531602859497,0.1050616130232811
1772649662013988900,7.86598876953125,-0.04713791236281395,0.1411474198102951,0.10186582803726196
1772649662023992600,7.87599267578125,-0.04767054319381714,0.1315600425004959,0.10665950924158096
1772649662033996500,7.88599658203125,-0.03595264256000519,0.13741900026798248,0.11677951365709305
1772649662044000300,7.896000244140625,-0.024767376482486725,0.13475583493709564,0.11358372122049332
1772649662054004200,7.906004150390625,-0.008788423612713814,0.14327794313430786,0.10719214379787445
1772649662064008200,7.91600830078125,0.0013315794058144093,0.14008215069770813,0.08482161164283752
1772649662074012000,7.926011962890625,0.0045273699797689915,0.12623372673988342,0.056059494614601135
1772649662084015900,7.936015869140625,0.007723160553723574,0.11717899143695831,0.03741738200187683
1772649662094019800,7.946019775390625,0.009321056306362152,0.10972214490175247,0.02143842913210392
1772649662104023600,7.9560234375,0.013582110404968262,0.09267792850732803,0.007057370617985725
1772649662114027500,7.966027587890625,0.01784316450357437,0.070840023458004,-0.010519477538764477
1772649662124031500,7.976031494140625,0.02689790353178978,0.055926334112882614,-0.008388950489461422
1772649662134035500,7.986035400390625,0.03595264256000519,0.04633896425366402,-0.0014647373463958502
1772649662144039200,7.9960390625,0.04287685826420784,0.04154527932405472,-0.001997369108721614
